SpectraSuite Data File
++++++++++++++++++++++++++++++++++++
Date: Fri Oct 04 11:41:49 GMT-05:00 2013
User: price-jones
Dark Spectrum Present: No
Reference Spectrum Present: No
Number of Sampled Component Spectra: 1
Spectrometers: USB2+H05261
Integration Time (usec): 100000 (USB2+H05261)
Spectra Averaged: 1 (USB2+H05261)
Boxcar Smoothing: 0 (USB2+H05261)
Correct for Electrical Dark: No (USB2+H05261)
Strobe/Lamp Enabled: No (USB2+H05261)
Correct for Detector Non-linearity: No (USB2+H05261)
Correct for Stray Light: No (USB2+H05261)
Number of Pixels in Processed Spectrum: 2048
>>>>>Begin Processed Spectral Data<<<<<
365.73	14.04
365.92	14.04
366.12	14.04
366.32	0.00
366.52	0.00
366.72	0.00
366.91	0.00
367.11	0.00
367.31	0.00
367.51	0.00
367.70	0.00
367.90	0.00
368.10	0.00
368.30	0.00
368.49	0.00
368.69	0.00
368.89	0.00
369.09	0.00
369.28	0.00
369.48	0.00
369.68	0.00
369.87	0.00
370.07	0.00
370.27	0.00
370.47	74.90
370.66	25.75
370.86	95.96
371.06	140.43
371.25	67.88
371.45	25.75
371.65	74.90
371.84	60.85
372.04	121.71
372.24	154.48
372.44	147.45
372.63	74.90
372.83	168.52
373.03	156.82
373.22	93.62
373.42	91.28
373.62	182.56
373.81	110.01
374.01	138.09
374.21	133.41
374.40	110.01
374.60	149.79
374.79	100.64
374.99	124.05
375.19	107.66
375.38	175.54
375.58	124.05
375.78	117.03
375.97	163.84
376.17	140.43
376.37	107.66
376.56	152.13
376.76	105.32
376.95	91.28
377.15	177.88
377.35	196.60
377.54	102.98
377.74	77.24
377.93	187.24
378.13	126.39
378.33	93.62
378.52	140.43
378.72	205.97
378.91	133.41
379.11	180.22
379.31	152.13
379.50	142.77
379.70	198.95
379.89	170.86
380.09	93.62
380.28	140.43
380.48	133.41
380.68	102.98
380.87	84.26
381.07	234.05
381.26	205.97
381.46	124.05
381.65	147.45
381.85	100.64
382.04	126.39
382.24	91.28
382.43	56.17
382.63	53.83
382.83	168.52
383.02	93.62
383.22	88.94
383.41	124.05
383.61	95.96
383.80	152.13
384.00	149.79
384.19	112.35
384.39	107.66
384.58	142.77
384.78	147.45
384.97	86.60
385.17	93.62
385.36	133.41
385.56	149.79
385.75	121.71
385.95	128.73
386.14	149.79
386.34	95.96
386.53	119.37
386.72	86.60
386.92	91.28
387.11	128.73
387.31	105.32
387.50	56.17
387.70	91.28
387.89	189.58
388.09	23.41
388.28	159.16
388.48	184.90
388.67	114.69
388.86	126.39
389.06	142.77
389.25	166.18
389.45	145.11
389.64	102.98
389.84	149.79
390.03	131.07
390.22	156.82
390.42	191.92
390.61	154.48
390.81	114.69
391.00	140.43
391.19	229.37
391.39	203.63
391.58	117.03
391.78	163.84
391.97	128.73
392.16	72.56
392.36	152.13
392.55	170.86
392.75	145.11
392.94	175.54
393.13	168.52
393.33	142.77
393.52	149.79
393.71	135.75
393.91	147.45
394.10	131.07
394.29	163.84
394.49	145.11
394.68	121.71
394.88	131.07
395.07	159.16
395.26	126.39
395.46	189.58
395.65	131.07
395.84	88.94
396.04	234.05
396.23	152.13
396.42	84.26
396.62	86.60
396.81	227.03
397.00	117.03
397.19	105.32
397.39	184.90
397.58	170.86
397.77	180.22
397.97	88.94
398.16	112.35
398.35	119.37
398.55	119.37
398.74	147.45
398.93	196.60
399.12	248.10
399.32	126.39
399.51	100.64
399.70	147.45
399.90	166.18
400.09	112.35
400.28	121.71
400.47	194.26
400.67	161.50
400.86	180.22
401.05	159.16
401.24	205.97
401.44	208.31
401.63	222.35
401.82	138.09
402.01	250.44
402.21	198.95
402.40	243.42
402.59	212.99
402.78	222.35
402.97	210.65
403.17	222.35
403.36	280.86
403.55	341.72
403.74	812.17
403.93	2305.43
404.13	5694.52
404.32	9004.04
404.51	8549.98
404.70	5551.75
404.89	2165.00
405.09	660.03
405.28	313.63
405.47	238.73
405.66	201.29
405.85	292.57
406.05	238.73
406.24	210.65
406.43	243.42
406.62	269.16
406.81	290.23
407.00	341.72
407.20	713.86
407.39	1139.84
407.58	1376.24
407.77	1013.45
407.96	547.69
408.15	304.27
408.34	194.26
408.54	138.09
408.73	224.69
408.92	276.18
409.11	212.99
409.30	280.86
409.49	205.97
409.68	86.60
409.87	222.35
410.07	187.24
410.26	234.05
410.45	210.65
410.64	231.71
410.83	194.26
411.02	205.97
411.21	224.69
411.40	208.31
411.59	229.37
411.78	245.76
411.98	231.71
412.17	257.46
412.36	229.37
412.55	306.61
412.74	177.88
412.93	276.18
413.12	166.18
413.31	236.39
413.50	234.05
413.69	238.73
413.88	294.91
414.07	255.12
414.26	259.80
414.45	217.67
414.64	208.31
414.83	255.12
415.02	259.80
415.22	250.44
415.41	208.31
415.60	248.10
415.79	201.29
415.98	353.42
416.17	273.84
416.36	264.48
416.55	248.10
416.74	283.20
416.93	280.86
417.12	287.89
417.31	287.89
417.50	203.63
417.69	327.68
417.88	285.55
418.07	292.57
418.26	229.37
418.45	304.27
418.64	304.27
418.83	262.14
419.02	308.95
419.21	325.33
419.39	262.14
419.58	220.01
419.77	224.69
419.96	308.95
420.15	320.65
420.34	294.91
420.53	320.65
420.72	262.14
420.91	414.27
421.10	341.72
421.29	362.78
421.48	374.49
421.67	374.49
421.86	252.78
422.05	304.27
422.24	283.20
422.43	292.57
422.61	341.72
422.80	315.97
422.99	283.20
423.18	383.85
423.37	348.74
423.56	414.27
423.75	355.76
423.94	367.46
424.13	348.74
424.32	313.63
424.50	337.04
424.69	332.36
424.88	388.53
425.07	353.42
425.26	327.68
425.45	372.15
425.64	327.68
425.83	315.97
426.01	414.27
426.20	418.96
426.39	423.64
426.58	341.72
426.77	374.49
426.96	442.36
427.15	383.85
427.33	404.91
427.52	383.85
427.71	337.04
427.90	404.91
428.09	341.72
428.28	369.80
428.46	397.89
428.65	465.77
428.84	400.23
429.03	507.90
429.22	372.15
429.40	442.36
429.59	428.32
429.78	449.38
429.97	404.91
430.16	484.49
430.34	428.32
430.53	330.02
430.72	379.17
430.91	477.47
431.10	444.70
431.28	468.11
431.47	498.53
431.66	442.36
431.85	465.77
432.03	528.96
432.22	491.51
432.41	482.15
432.60	610.88
432.79	458.74
432.97	629.60
433.16	559.39
433.35	695.14
433.54	774.72
433.72	777.06
433.91	767.70
434.10	851.96
434.28	990.05
434.47	1196.01
434.66	1383.26
434.85	1519.01
435.03	3833.80
435.22	13902.78
435.41	34890.37
435.59	44638.70
435.78	31260.20
435.97	14642.39
436.16	5624.31
436.34	1877.11
436.53	1086.01
436.72	912.81
436.90	685.78
437.09	690.46
437.28	634.29
437.46	615.56
437.65	571.09
437.84	624.92
438.02	582.79
438.21	629.60
438.40	561.73
438.58	592.16
438.77	519.60
438.96	535.98
439.14	493.85
439.33	645.99
439.52	531.30
439.70	547.69
439.89	557.05
440.08	566.41
440.26	526.62
440.45	585.13
440.63	505.56
440.82	550.03
441.01	547.69
441.19	627.26
441.38	545.34
441.57	477.47
441.75	524.28
441.94	596.84
442.12	547.69
442.31	568.75
442.50	596.84
442.68	540.66
442.87	559.39
443.05	571.09
443.24	568.75
443.43	547.69
443.61	557.05
443.80	617.90
443.98	526.62
444.17	524.28
444.35	519.60
444.54	535.98
444.73	554.71
444.91	587.47
445.10	543.00
445.28	566.41
445.47	550.03
445.65	531.30
445.84	655.35
446.02	578.11
446.21	507.90
446.39	575.77
446.58	554.71
446.77	566.41
446.95	571.09
447.14	587.47
447.32	601.52
447.51	554.71
447.69	521.94
447.88	500.87
448.06	538.32
448.25	615.56
448.43	496.19
448.62	580.45
448.80	580.45
448.99	512.58
449.17	580.45
449.36	526.62
449.54	503.22
449.73	594.50
449.91	557.05
450.10	575.77
450.28	559.39
450.46	557.05
450.65	615.56
450.83	528.96
451.02	514.92
451.20	498.53
451.39	535.98
451.57	496.19
451.76	559.39
451.94	538.32
452.13	622.58
452.31	596.84
452.49	580.45
452.68	554.71
452.86	514.92
453.05	596.84
453.23	514.92
453.42	535.98
453.60	468.11
453.78	514.92
453.97	440.02
454.15	507.90
454.34	477.47
454.52	451.72
454.70	589.82
454.89	535.98
455.07	498.53
455.26	540.66
455.44	571.09
455.62	585.13
455.81	547.69
455.99	552.37
456.17	557.05
456.36	571.09
456.54	552.37
456.73	514.92
456.91	521.94
457.09	524.28
457.28	425.98
457.46	440.02
457.64	540.66
457.83	505.56
458.01	517.26
458.19	571.09
458.38	505.56
458.56	531.30
458.74	465.77
458.93	491.51
459.11	491.51
459.29	496.19
459.48	475.13
459.66	587.47
459.84	564.07
460.03	587.47
460.21	650.67
460.39	627.26
460.57	575.77
460.76	561.73
460.94	489.17
461.12	585.13
461.31	566.41
461.49	552.37
461.67	456.40
461.85	531.30
462.04	524.28
462.22	1008.77
462.40	503.22
462.59	514.92
462.77	524.28
462.95	461.09
463.13	528.96
463.32	566.41
463.50	514.92
463.68	538.32
463.86	517.26
464.05	578.11
464.23	550.03
464.41	531.30
464.59	482.15
464.78	543.00
464.96	561.73
465.14	578.11
465.32	456.40
465.50	458.74
465.69	489.17
465.87	477.47
466.05	454.06
466.23	503.22
466.41	514.92
466.60	554.71
466.78	568.75
466.96	540.66
467.14	585.13
467.32	568.75
467.51	608.54
467.69	519.60
467.87	571.09
468.05	547.69
468.23	554.71
468.41	500.87
468.60	423.64
468.78	557.05
468.96	528.96
469.14	458.74
469.32	458.74
469.50	465.77
469.69	475.13
469.87	498.53
470.05	531.30
470.23	519.60
470.41	463.43
470.59	475.13
470.77	468.11
470.95	468.11
471.14	606.20
471.32	496.19
471.50	554.71
471.68	512.58
471.86	479.81
472.04	451.72
472.22	486.83
472.40	461.09
472.58	521.94
472.77	430.66
472.95	444.70
473.13	489.17
473.31	564.07
473.49	531.30
473.67	440.02
473.85	486.83
474.03	519.60
474.21	512.58
474.39	482.15
474.57	524.28
474.75	552.37
474.93	517.26
475.12	465.77
475.30	491.51
475.48	498.53
475.66	479.81
475.84	486.83
476.02	519.60
476.20	526.62
476.38	486.83
476.56	561.73
476.74	465.77
476.92	545.34
477.10	535.98
477.28	564.07
477.46	498.53
477.64	543.00
477.82	655.35
478.00	674.07
478.18	456.40
478.36	660.03
478.54	540.66
478.72	667.05
478.90	617.90
479.08	657.69
479.26	592.16
479.44	653.01
479.62	676.41
479.80	615.56
479.98	755.99
480.16	702.16
480.34	737.27
480.52	718.54
480.70	866.00
480.88	840.25
481.06	788.76
481.24	950.26
481.41	994.73
481.59	1050.90
481.77	1013.45
481.95	1121.12
482.13	1198.35
482.31	1291.98
482.49	1324.74
482.67	1434.75
482.85	1535.39
483.03	1699.23
483.21	1830.30
483.39	1827.96
483.57	2069.03
483.74	2235.21
483.92	2202.44
484.10	2235.21
484.28	2455.22
484.46	2691.62
484.64	2712.68
484.82	2846.09
485.00	3009.93
485.18	3187.81
485.35	3400.80
485.53	3620.81
485.71	3667.62
485.89	3840.82
486.07	4028.06
486.25	4028.06
486.43	3983.59
486.61	3875.93
486.78	4035.08
486.96	3906.35
487.14	4002.32
487.32	3955.51
487.50	4021.04
487.68	3974.23
487.85	3798.69
488.03	3882.95
488.21	3861.88
488.39	3623.15
488.57	3625.49
488.75	3449.95
488.92	3632.51
489.10	3520.17
489.28	3318.88
489.46	3293.13
489.64	3136.32
489.81	3187.81
489.99	3087.17
490.17	3000.57
490.35	3052.06
490.53	2963.12
490.70	2977.16
490.88	3030.99
491.06	2979.50
491.24	3300.16
491.41	3499.10
491.59	3293.13
491.77	3080.14
491.95	2979.50
492.13	2794.60
492.30	2693.96
492.48	2661.19
492.66	2747.79
492.84	2635.44
493.01	2630.76
493.19	2698.64
493.37	2621.40
493.54	2495.01
493.72	2443.52
493.90	2373.30
494.08	2331.17
494.25	2326.49
494.43	2275.00
494.61	2230.53
494.79	2228.19
494.96	2223.51
495.14	2193.08
495.32	2129.89
495.49	2188.40
495.67	2125.21
495.85	1991.80
496.02	2052.65
496.20	1935.62
496.38	1961.37
496.55	1930.94
496.73	1806.89
496.91	1743.70
497.09	1870.09
497.26	1820.94
497.44	1788.17
497.62	1701.57
497.79	1710.93
497.97	1692.21
498.14	1699.23
498.32	1671.14
498.50	1657.10
498.67	1582.20
498.85	1502.62
499.03	1437.09
499.20	1394.96
499.38	1383.26
499.56	1301.34
499.73	1409.00
499.91	1238.14
500.08	1289.64
500.26	1240.48
500.44	1242.82
500.61	1135.16
500.79	1071.97
500.97	1069.62
501.14	1083.67
501.32	1046.22
501.49	1109.41
501.67	994.73
501.84	978.34
502.02	1018.13
502.20	950.26
502.37	915.15
502.55	912.81
502.72	863.66
502.90	809.83
503.07	725.57
503.25	819.19
503.43	791.10
503.60	788.76
503.78	812.17
503.95	709.18
504.13	610.88
504.30	641.31
504.48	692.80
504.65	744.29
504.83	674.07
505.01	695.14
505.18	573.43
505.36	571.09
505.53	678.76
505.71	524.28
505.88	641.31
506.06	526.62
506.23	521.94
506.41	606.20
506.58	667.05
506.76	592.16
506.93	519.60
507.11	589.82
507.28	496.19
507.46	627.26
507.63	519.60
507.81	533.64
507.98	594.50
508.16	491.51
508.33	498.53
508.50	512.58
508.68	543.00
508.85	601.52
509.03	580.45
509.20	627.26
509.38	594.50
509.55	650.67
509.73	582.79
509.90	552.37
510.08	538.32
510.25	517.26
510.42	461.09
510.60	444.70
510.77	505.56
510.95	526.62
511.12	447.04
511.30	489.17
511.47	528.96
511.64	524.28
511.82	531.30
511.99	458.74
512.17	496.19
512.34	458.74
512.51	510.24
512.69	463.43
512.86	575.77
513.04	374.49
513.21	421.30
513.38	535.98
513.56	442.36
513.73	388.53
513.90	449.38
514.08	475.13
514.25	451.72
514.43	510.24
514.60	463.43
514.77	468.11
514.95	423.64
515.12	435.34
515.29	416.62
515.47	407.25
515.64	332.36
515.81	468.11
515.99	451.72
516.16	395.55
516.33	514.92
516.51	393.21
516.68	468.11
516.85	418.96
517.03	428.32
517.20	404.91
517.37	456.40
517.54	428.32
517.72	418.96
517.89	320.65
518.06	404.91
518.24	491.51
518.41	451.72
518.58	390.87
518.75	451.72
518.93	388.53
519.10	418.96
519.27	358.10
519.45	397.89
519.62	428.32
519.79	390.87
519.96	402.57
520.14	400.23
520.31	479.81
520.48	430.66
520.65	341.72
520.83	423.64
521.00	411.93
521.17	393.21
521.34	332.36
521.52	449.38
521.69	423.64
521.86	348.74
522.03	404.91
522.20	447.04
522.38	463.43
522.55	409.59
522.72	351.08
522.89	416.62
523.07	395.55
523.24	372.15
523.41	376.83
523.58	447.04
523.75	402.57
523.92	388.53
524.10	367.46
524.27	400.23
524.44	440.02
524.61	442.36
524.78	454.06
524.96	369.80
525.13	442.36
525.30	486.83
525.47	461.09
525.64	397.89
525.81	477.47
525.98	465.77
526.16	484.49
526.33	397.89
526.50	433.00
526.67	486.83
526.84	507.90
527.01	463.43
527.18	545.34
527.36	552.37
527.53	430.66
527.70	554.71
527.87	596.84
528.04	636.63
528.21	510.24
528.38	477.47
528.55	444.70
528.72	599.18
528.89	524.28
529.07	568.75
529.24	603.86
529.41	641.31
529.58	575.77
529.75	533.64
529.92	624.92
530.09	554.71
530.26	643.65
530.43	615.56
530.60	629.60
530.77	610.88
530.94	674.07
531.11	636.63
531.28	655.35
531.46	566.41
531.63	737.27
531.80	781.74
531.97	795.78
532.14	889.40
532.31	1048.56
532.48	1291.98
532.65	1490.92
532.82	1741.36
532.99	1930.94
533.16	2359.26
533.33	2506.71
533.50	2317.13
533.67	2031.58
533.84	1645.40
534.01	1537.73
534.18	1420.71
534.35	1313.04
534.52	1404.32
534.69	1427.73
534.86	1526.03
535.03	1488.58
535.20	1600.93
535.37	1626.67
535.54	1739.02
535.71	1781.15
535.88	1968.39
536.05	2038.61
536.22	2195.42
536.38	2473.95
536.55	2724.38
536.72	2909.29
536.89	3288.45
537.06	3534.21
537.23	3960.19
537.40	4435.32
537.57	4727.88
537.74	5001.72
537.91	5188.97
538.08	5472.17
538.25	5441.75
538.42	5425.36
538.59	5699.20
538.75	5722.61
538.92	6097.10
539.09	6750.10
539.26	7473.33
539.43	8212.94
539.60	9563.43
539.77	10731.36
539.94	11749.49
540.11	13312.97
540.28	14867.08
540.44	16065.44
540.61	17958.93
540.78	20421.17
540.95	24247.95
541.12	29352.66
541.29	33469.66
541.46	34492.47
541.62	34848.24
541.79	33350.29
541.96	31101.04
542.13	28556.88
542.30	26766.37
542.47	25275.45
542.63	23623.03
542.80	23248.54
542.97	22808.52
543.14	22408.29
543.31	22434.03
543.48	22412.97
543.64	23056.62
543.81	23012.15
543.98	23786.86
544.15	23594.94
544.32	23751.76
544.48	23749.42
544.65	23199.39
544.82	23332.80
544.99	23281.31
545.16	23791.55
545.32	25034.37
545.49	37516.45
545.66	59047.04
545.83	65535.00
546.00	65535.00
546.16	53804.24
546.33	41198.11
546.50	30937.20
546.67	24362.64
546.83	21284.83
547.00	20030.30
547.17	19461.55
547.34	18607.26
547.50	17937.87
547.67	17394.86
547.84	16514.82
548.00	16219.91
548.17	15447.54
548.34	14703.25
548.51	14005.77
548.67	13439.36
548.84	12713.79
549.01	12042.06
549.18	11756.51
549.34	11250.96
549.51	10810.93
549.68	10544.11
549.84	10120.48
550.01	9521.30
550.18	9097.66
550.34	8564.02
550.51	8100.59
550.68	7875.90
550.84	7485.03
551.01	6988.84
551.18	6801.60
551.34	6509.03
551.51	6113.48
551.68	5849.00
551.84	5544.73
552.01	5369.19
552.18	5214.71
552.34	4877.68
552.51	4793.42
552.68	4496.17
552.84	4346.37
553.01	4306.59
553.18	4217.65
553.34	4009.34
553.51	3819.75
553.67	3688.68
553.84	3669.96
554.01	3414.84
554.17	3056.74
554.34	2785.24
554.51	2796.94
554.67	2717.36
554.84	2609.70
555.00	2345.22
555.17	2298.41
555.33	2188.40
555.50	1963.71
555.67	1944.99
555.83	1811.57
556.00	1806.89
556.16	1919.24
556.33	1717.95
556.50	1600.93
556.66	1586.88
556.83	1446.45
556.99	1413.68
557.16	1418.36
557.32	1336.45
557.49	1359.85
557.65	1242.82
557.82	1205.38
557.98	1221.76
558.15	1177.29
558.32	1254.53
558.48	1172.61
558.65	1121.12
558.81	1121.12
558.98	1046.22
559.14	1123.46
559.31	1039.20
559.47	1018.13
559.64	919.83
559.80	889.40
559.97	1006.43
560.13	997.07
560.30	954.94
560.46	887.06
560.63	968.98
560.79	896.43
560.96	901.11
561.12	983.02
561.29	959.62
561.45	844.93
561.61	947.92
561.78	980.68
561.94	887.06
562.11	816.85
562.27	828.55
562.44	854.30
562.60	917.49
562.77	889.40
562.93	983.02
563.10	870.68
563.26	842.59
563.42	933.87
563.59	943.24
563.75	774.72
563.92	842.59
564.08	833.23
564.24	833.23
564.41	884.72
564.57	809.83
564.74	704.50
564.90	814.51
565.07	716.20
565.23	798.12
565.39	716.20
565.56	734.93
565.72	725.57
565.88	685.78
566.05	617.90
566.21	741.95
566.38	732.59
566.54	828.55
566.70	638.97
566.87	725.57
567.03	667.05
567.19	704.50
567.36	725.57
567.52	793.44
567.68	781.74
567.85	704.50
568.01	791.10
568.17	807.48
568.34	727.91
568.50	830.89
568.66	688.12
568.83	823.87
568.99	711.52
569.15	720.88
569.32	720.88
569.48	603.86
569.64	624.92
569.81	650.67
569.97	582.79
570.13	564.07
570.30	538.32
570.46	622.58
570.62	503.22
570.78	606.20
570.95	472.79
571.11	561.73
571.27	589.82
571.43	580.45
571.60	521.94
571.76	650.67
571.92	521.94
572.09	543.00
572.25	517.26
572.41	547.69
572.57	449.38
572.74	566.41
572.90	585.13
573.06	582.79
573.22	599.18
573.38	559.39
573.55	575.77
573.71	517.26
573.87	596.84
574.03	580.45
574.20	629.60
574.36	653.01
574.52	706.84
574.68	662.37
574.84	655.35
575.01	814.51
575.17	793.44
575.33	791.10
575.49	915.15
575.65	894.08
575.82	1022.81
575.98	1128.14
576.14	1156.22
576.30	2204.78
576.46	6895.22
576.62	14941.98
576.79	19723.69
576.95	13383.18
577.11	8049.10
577.27	5682.82
577.43	3770.60
577.59	2331.17
577.75	1837.32
577.92	1799.87
578.08	1631.35
578.24	1647.74
578.40	2555.86
578.56	6513.71
578.72	13469.78
578.88	17099.95
579.04	12517.18
579.21	7939.10
579.37	5783.46
579.53	4367.44
579.69	3969.55
579.85	5011.09
580.01	6169.65
580.17	6038.58
580.33	5217.05
580.49	4437.66
580.65	3840.82
580.82	3510.80
580.98	3342.28
581.14	3293.13
581.30	3571.66
581.46	3688.68
581.62	4114.66
581.78	4395.53
581.94	4847.25
582.10	5025.13
582.26	5294.29
582.42	5584.52
582.58	5647.71
582.74	5713.25
582.90	5827.93
583.06	6029.22
583.22	6083.05
583.38	6136.88
583.54	5921.56
583.70	5783.46
583.86	5706.23
584.02	5596.22
584.18	5554.09
584.34	5462.81
584.50	5406.64
584.66	5366.85
584.82	5207.69
584.98	5137.48
585.14	5238.12
585.30	5060.24
585.46	4980.66
585.62	4915.12
585.78	4910.44
585.94	4840.23
586.10	5109.39
586.26	5348.12
586.42	5994.11
586.58	7080.12
586.74	8498.49
586.90	10457.51
587.06	11475.65
587.22	11660.55
587.38	10628.37
587.54	8999.36
587.70	7653.55
587.86	6462.22
588.02	5544.73
588.18	4676.39
588.34	4355.74
588.49	3906.35
588.65	3618.47
588.81	3492.08
588.97	3349.31
589.13	3236.96
589.29	3227.60
589.45	3082.49
589.61	3213.56
589.77	3279.09
589.93	3335.26
590.08	3456.97
590.24	3515.48
590.40	3559.95
590.56	3681.66
590.72	3721.45
590.88	3852.52
591.04	3981.25
591.20	4107.64
591.35	4313.61
591.51	4458.72
591.67	4601.49
591.83	4863.63
591.99	5455.79
592.15	5757.72
592.31	6202.42
592.46	6925.65
592.62	7599.72
592.78	7964.84
592.94	8320.60
593.10	8262.09
593.26	7815.05
593.41	7375.03
593.57	6511.37
593.73	5771.76
593.89	5172.58
594.05	4489.15
594.20	4072.53
594.36	3747.20
594.52	3410.16
594.68	3405.48
594.84	3187.81
594.99	3038.02
595.15	3096.53
595.31	2939.71
595.47	3021.63
595.62	2853.11
595.78	2928.01
595.94	2944.39
596.10	2920.99
596.25	3002.91
596.41	2958.44
596.57	2846.09
596.73	2813.32
596.88	2808.64
597.04	2867.16
597.20	2965.46
597.36	3014.61
597.51	3023.97
597.67	3152.70
597.83	3499.10
597.99	3576.34
598.14	3765.92
598.30	4114.66
598.46	4227.01
598.61	4360.42
598.77	4489.15
598.93	4727.88
599.09	4992.36
599.24	5139.82
599.40	5081.30
599.56	4994.70
599.71	4725.54
599.87	4482.13
600.03	4205.94
600.18	3906.35
600.34	3489.74
600.50	3283.77
600.65	3080.14
600.81	3014.61
600.97	2799.28
601.12	2621.40
601.28	2509.05
601.44	2399.05
601.59	2162.66
601.75	2190.74
601.91	2085.42
602.06	2087.76
602.22	2148.61
602.37	1977.75
602.53	1998.82
602.69	1900.52
602.84	1909.88
603.00	1973.07
603.16	1886.47
603.31	2012.86
603.47	1994.14
603.62	2017.54
603.78	2024.56
603.94	2157.97
604.09	2207.13
604.25	2097.12
604.40	2162.66
604.56	2181.38
604.71	2415.43
604.87	2275.00
605.03	2265.64
605.18	2459.90
605.34	2385.01
605.49	2565.23
605.65	2499.69
605.80	2560.55
605.96	2708.00
606.12	2796.94
606.27	3012.27
606.43	2986.52
606.58	3169.09
606.74	3293.13
606.89	3471.01
607.05	3651.24
607.20	3822.09
607.36	4044.45
607.51	4276.16
607.67	4545.32
607.82	4781.71
607.98	5203.01
608.13	5549.41
608.29	6122.84
608.44	6506.69
608.60	7215.87
608.75	7894.63
608.91	8725.52
609.06	9415.98
609.22	10324.10
609.37	11342.24
609.53	12882.31
609.68	14656.43
609.84	16856.54
609.99	19363.25
610.15	23351.52
610.30	28510.07
610.46	35700.19
610.61	45209.79
610.76	54351.92
610.92	60200.92
611.07	63735.13
611.23	64898.37
611.38	63554.91
611.54	60399.86
611.69	56191.58
611.84	50468.97
612.00	43194.59
612.15	36493.63
612.31	31400.63
612.46	27702.58
612.62	26319.32
612.77	24702.01
612.92	23358.55
613.08	21729.53
613.23	20599.05
613.39	19845.40
613.54	19276.65
613.69	18813.23
613.85	18939.62
614.00	18719.60
614.15	18506.62
614.31	18099.36
614.46	17923.82
614.62	17202.94
614.77	16482.05
614.92	15302.42
615.08	13942.57
615.23	13369.14
615.38	12147.38
615.54	11021.58
615.69	10277.29
615.84	9418.32
616.00	8594.45
616.15	7918.03
616.30	7506.10
616.46	6820.32
616.61	6490.31
616.76	6150.93
616.92	5870.06
617.07	5652.39
617.22	5114.07
617.37	4985.34
617.53	4788.74
617.68	4648.30
617.83	4337.01
617.99	4208.28
618.14	4023.38
618.29	4091.26
618.45	3974.23
618.60	3829.12
618.75	3929.76
618.90	3868.91
619.06	3761.24
619.21	3712.09
619.36	3838.48
619.51	3707.41
619.67	3669.96
619.82	3786.99
619.97	3920.40
620.12	3887.63
620.28	3758.90
620.43	4051.47
620.58	4077.21
620.73	4081.89
620.89	4081.89
621.04	4016.36
621.19	4051.47
621.34	3964.87
621.49	3978.91
621.65	3920.40
621.80	3829.12
621.95	3936.78
622.10	3777.62
622.25	3779.97
622.41	3831.46
622.56	4152.11
622.71	4107.64
622.86	4299.56
623.01	4379.14
623.16	4374.46
623.32	4528.94
623.47	4571.07
623.62	4318.29
623.77	4397.87
623.92	4273.82
624.07	4395.53
624.23	4465.74
624.38	4409.57
624.53	4381.48
624.68	4416.59
624.83	4603.83
624.98	4566.39
625.13	4477.44
625.29	4505.53
625.44	4423.61
625.59	4444.68
625.74	4477.44
625.89	4493.83
626.04	4451.70
626.19	4423.61
626.34	4475.10
626.49	4608.51
626.65	4531.28
626.80	4568.73
626.95	4463.40
627.10	4344.03
627.25	4463.40
627.40	4117.00
627.55	4149.77
627.70	4173.18
627.85	4117.00
628.00	3962.53
628.15	4035.08
628.30	4051.47
628.45	4035.08
628.60	3922.74
628.76	4145.09
628.91	4023.38
629.06	4224.67
629.21	4273.82
629.36	4196.58
629.51	4496.17
629.66	4557.02
629.81	5018.11
629.96	5238.12
630.11	5717.93
630.26	6375.62
630.41	7260.34
630.56	8011.65
630.71	8690.41
630.86	9008.72
631.01	8819.14
631.16	8250.39
631.31	7339.92
631.46	6473.92
631.61	5310.68
631.76	4461.06
631.91	3674.64
632.06	3122.27
632.21	2724.38
632.36	2513.74
632.51	2129.89
632.66	1975.41
632.81	1858.39
632.96	1760.08
633.10	1521.35
633.25	1521.35
633.40	1467.52
633.55	1465.18
633.70	1341.13
633.85	1256.87
634.00	1371.55
634.15	1280.27
634.30	1186.65
634.45	1111.75
634.60	1210.06
634.75	1116.44
634.90	1165.59
635.05	1118.78
635.19	1196.01
635.34	1135.16
635.49	1093.03
635.64	1006.43
635.79	1027.50
635.94	1104.73
636.09	954.94
636.24	1034.52
636.39	1144.52
636.53	1018.13
636.68	1015.79
636.83	903.45
636.98	868.34
637.13	847.27
637.28	894.08
637.43	931.53
637.57	882.38
637.72	894.08
637.87	870.68
638.02	910.47
638.17	823.87
638.32	807.48
638.46	816.85
638.61	842.59
638.76	833.23
638.91	744.29
639.06	744.29
639.20	833.23
639.35	809.83
639.50	697.48
639.65	809.83
639.80	744.29
639.94	784.08
640.09	739.61
640.24	798.12
640.39	697.48
640.54	699.82
640.68	791.10
640.83	770.04
640.98	683.44
641.13	711.52
641.27	741.95
641.42	755.99
641.57	697.48
641.72	702.16
641.86	758.33
642.01	664.71
642.16	706.84
642.31	709.18
642.45	802.80
642.60	779.40
642.75	660.03
642.90	697.48
643.04	660.03
643.19	781.74
643.34	784.08
643.48	704.50
643.63	741.95
643.78	812.17
643.93	809.83
644.07	669.39
644.22	699.82
644.37	781.74
644.51	753.65
644.66	758.33
644.81	695.14
644.95	774.72
645.10	741.95
645.25	716.20
645.39	711.52
645.54	734.93
645.69	755.99
645.83	617.90
645.98	744.29
646.13	650.67
646.27	706.84
646.42	723.23
646.57	678.76
646.71	741.95
646.86	755.99
647.00	723.23
647.15	662.37
647.30	692.80
647.44	748.97
647.59	699.82
647.74	685.78
647.88	627.26
648.03	676.41
648.17	819.19
648.32	746.63
648.47	777.06
648.61	718.54
648.76	774.72
648.90	802.80
649.05	887.06
649.20	936.21
649.34	903.45
649.49	1048.56
649.63	1235.80
649.78	1437.09
649.92	1739.02
650.07	1980.09
650.21	2265.64
650.36	2356.92
650.51	2392.03
650.65	2300.75
650.80	2143.93
650.94	1736.68
651.09	1610.29
651.23	1551.78
651.38	1322.40
651.52	1242.82
651.67	1104.73
651.81	1053.24
651.96	1043.88
652.10	1029.84
652.25	905.79
652.39	926.85
652.54	844.93
652.68	1043.88
652.83	1210.06
652.97	1156.22
653.12	1252.19
653.26	1179.63
653.41	1076.65
653.55	1046.22
653.70	910.47
653.84	926.85
653.99	858.98
654.13	826.21
654.27	809.83
654.42	699.82
654.56	751.31
654.71	720.88
654.85	683.44
655.00	674.07
655.14	629.60
655.29	723.23
655.43	650.67
655.57	667.05
655.72	720.88
655.86	704.50
656.01	622.58
656.15	615.56
656.30	678.76
656.44	723.23
656.58	615.56
656.73	622.58
656.87	671.73
657.01	667.05
657.16	786.42
657.30	741.95
657.45	863.66
657.59	830.89
657.73	772.38
657.88	861.32
658.02	805.14
658.16	837.91
658.31	737.27
658.45	669.39
658.60	706.84
658.74	594.50
658.88	592.16
659.03	512.58
659.17	575.77
659.31	503.22
659.46	517.26
659.60	545.34
659.74	440.02
659.89	561.73
660.03	486.83
660.17	505.56
660.32	535.98
660.46	517.26
660.60	454.06
660.74	524.28
660.89	526.62
661.03	571.09
661.17	645.99
661.32	706.84
661.46	692.80
661.60	805.14
661.74	992.39
661.89	1088.35
662.03	1296.66
662.17	1343.47
662.31	1523.69
662.46	1329.42
662.60	1359.85
662.74	1224.10
662.88	1172.61
663.03	903.45
663.17	854.30
663.31	849.61
663.45	791.10
663.60	634.29
663.74	713.86
663.88	704.50
664.02	660.03
664.17	540.66
664.31	575.77
664.45	589.82
664.59	524.28
664.73	505.56
664.88	601.52
665.02	533.64
665.16	479.81
665.30	538.32
665.44	524.28
665.59	526.62
665.73	507.90
665.87	470.45
666.01	557.05
666.15	472.79
666.29	489.17
666.44	503.22
666.58	519.60
666.72	498.53
666.86	447.04
667.00	510.24
667.14	496.19
667.28	482.15
667.43	472.79
667.57	533.64
667.71	578.11
667.85	514.92
667.99	489.17
668.13	498.53
668.27	491.51
668.41	437.68
668.56	442.36
668.70	442.36
668.84	437.68
668.98	517.26
669.12	428.32
669.26	418.96
669.40	493.85
669.54	496.19
669.68	526.62
669.82	477.47
669.96	482.15
670.10	425.98
670.25	458.74
670.39	416.62
670.53	404.91
670.67	479.81
670.81	458.74
670.95	472.79
671.09	477.47
671.23	447.04
671.37	428.32
671.51	435.34
671.65	463.43
671.79	414.27
671.93	433.00
672.07	472.79
672.21	454.06
672.35	355.76
672.49	339.38
672.63	353.42
672.77	404.91
672.91	409.59
673.05	360.44
673.19	376.83
673.33	418.96
673.47	449.38
673.61	351.08
673.75	411.93
673.89	383.85
674.03	397.89
674.17	414.27
674.31	402.57
674.45	365.12
674.59	360.44
674.73	411.93
674.87	418.96
675.01	402.57
675.15	355.76
675.29	407.25
675.43	416.62
675.56	383.85
675.70	379.17
675.84	386.19
675.98	332.36
676.12	297.25
676.26	318.31
676.40	337.04
676.54	339.38
676.68	337.04
676.82	348.74
676.96	313.63
677.10	273.84
677.23	393.21
677.37	358.10
677.51	351.08
677.65	365.12
677.79	311.29
677.93	381.51
678.07	252.78
678.21	271.50
678.34	348.74
678.48	327.68
678.62	355.76
678.76	304.27
678.90	355.76
679.04	421.30
679.18	327.68
679.31	315.97
679.45	337.04
679.59	395.55
679.73	442.36
679.87	381.51
680.00	383.85
680.14	365.12
680.28	379.17
680.42	395.55
680.56	428.32
680.70	360.44
680.83	348.74
680.97	383.85
681.11	418.96
681.25	472.79
681.39	369.80
681.52	421.30
681.66	334.70
681.80	369.80
681.94	318.31
682.07	344.06
682.21	353.42
682.35	313.63
682.49	306.61
682.62	353.42
682.76	308.95
682.90	311.29
683.04	369.80
683.17	313.63
683.31	280.86
683.45	358.10
683.59	395.55
683.72	292.57
683.86	386.19
684.00	304.27
684.13	313.63
684.27	327.68
684.41	332.36
684.55	416.62
684.68	341.72
684.82	278.52
684.96	411.93
685.09	332.36
685.23	337.04
685.37	344.06
685.50	411.93
685.64	386.19
685.78	374.49
685.91	402.57
686.05	456.40
686.19	409.59
686.32	433.00
686.46	514.92
686.60	451.72
686.73	580.45
686.87	603.86
687.01	671.73
687.14	662.37
687.28	821.53
687.42	753.65
687.55	784.08
687.69	858.98
687.82	826.21
687.96	767.70
688.10	875.36
688.23	716.20
688.37	730.25
688.50	746.63
688.64	589.82
688.78	496.19
688.91	528.96
689.05	454.06
689.18	451.72
689.32	437.68
689.46	383.85
689.59	423.64
689.73	402.57
689.86	327.68
690.00	285.55
690.13	315.97
690.27	271.50
690.41	318.31
690.54	374.49
690.68	437.68
690.81	393.21
690.95	322.99
691.08	292.57
691.22	292.57
691.35	252.78
691.49	257.46
691.62	234.05
691.76	320.65
691.89	217.67
692.03	212.99
692.16	250.44
692.30	238.73
692.43	259.80
692.57	241.08
692.70	231.71
692.84	353.42
692.97	255.12
693.11	374.49
693.24	447.04
693.38	442.36
693.51	657.69
693.65	683.44
693.78	631.94
693.92	624.92
694.05	617.90
694.19	540.66
694.32	458.74
694.45	344.06
694.59	262.14
694.72	243.42
694.86	271.50
694.99	273.84
695.13	278.52
695.26	187.24
695.39	222.35
695.53	311.29
695.66	205.97
695.80	252.78
695.93	243.42
696.07	210.65
696.20	245.76
696.33	222.35
696.47	173.20
696.60	297.25
696.73	215.33
696.87	147.45
697.00	320.65
697.14	194.26
697.27	166.18
697.40	243.42
697.54	201.29
697.67	182.56
697.80	128.73
697.94	147.45
698.07	234.05
698.21	124.05
698.34	140.43
698.47	191.92
698.61	173.20
698.74	198.95
698.87	173.20
699.01	234.05
699.14	212.99
699.27	248.10
699.40	166.18
699.54	161.50
699.67	175.54
699.80	124.05
699.94	177.88
700.07	196.60
700.20	86.60
700.34	198.95
700.47	175.54
700.60	184.90
700.73	212.99
700.87	287.89
701.00	177.88
701.13	147.45
701.26	201.29
701.40	271.50
701.53	273.84
701.66	163.84
701.79	227.03
701.93	175.54
702.06	283.20
702.19	175.54
702.32	180.22
702.46	210.65
702.59	168.52
702.72	220.01
702.85	196.60
702.99	147.45
703.12	191.92
703.25	229.37
703.38	290.23
703.51	299.59
703.65	299.59
703.78	292.57
703.91	311.29
704.04	308.95
704.17	381.51
704.31	322.99
704.44	264.48
704.57	248.10
704.70	341.72
704.83	273.84
704.96	306.61
705.10	381.51
705.23	353.42
>>>>>End Processed Spectral Data<<<<<
