SpectraSuite Data File
++++++++++++++++++++++++++++++++++++
Date: Fri Oct 04 11:41:55 GMT-05:00 2013
User: price-jones
Dark Spectrum Present: No
Reference Spectrum Present: No
Number of Sampled Component Spectra: 1
Spectrometers: USB2+H05261
Integration Time (usec): 100000 (USB2+H05261)
Spectra Averaged: 1 (USB2+H05261)
Boxcar Smoothing: 0 (USB2+H05261)
Correct for Electrical Dark: No (USB2+H05261)
Strobe/Lamp Enabled: No (USB2+H05261)
Correct for Detector Non-linearity: No (USB2+H05261)
Correct for Stray Light: No (USB2+H05261)
Number of Pixels in Processed Spectrum: 2048
>>>>>Begin Processed Spectral Data<<<<<
365.73	21.06
365.92	21.06
366.12	21.06
366.32	0.00
366.52	0.00
366.72	0.00
366.91	0.00
367.11	0.00
367.31	0.00
367.51	0.00
367.70	0.00
367.90	2.34
368.10	0.00
368.30	0.00
368.49	0.00
368.69	18.72
368.89	0.00
369.09	0.00
369.28	0.00
369.48	0.00
369.68	0.00
369.87	28.09
370.07	18.72
370.27	46.81
370.47	81.92
370.66	7.02
370.86	44.47
371.06	84.26
371.25	140.43
371.45	16.38
371.65	112.35
371.84	58.51
372.04	42.13
372.24	88.94
372.44	65.54
372.63	70.22
372.83	67.88
373.03	135.75
373.22	105.32
373.42	126.39
373.62	175.54
373.81	88.94
374.01	145.11
374.21	152.13
374.40	74.90
374.60	166.18
374.79	191.92
374.99	121.71
375.19	210.65
375.38	152.13
375.58	138.09
375.78	198.95
375.97	168.52
376.17	245.76
376.37	177.88
376.56	166.18
376.76	88.94
376.95	65.54
377.15	149.79
377.35	201.29
377.54	168.52
377.74	145.11
377.93	126.39
378.13	161.50
378.33	142.77
378.52	142.77
378.72	182.56
378.91	121.71
379.11	140.43
379.31	128.73
379.50	56.17
379.70	102.98
379.89	170.86
380.09	102.98
380.28	156.82
380.48	140.43
380.68	119.37
380.87	100.64
381.07	77.24
381.26	194.26
381.46	117.03
381.65	168.52
381.85	84.26
382.04	170.86
382.24	79.58
382.43	107.66
382.63	114.69
382.83	138.09
383.02	180.22
383.22	163.84
383.41	102.98
383.61	182.56
383.80	168.52
384.00	149.79
384.19	79.58
384.39	63.19
384.58	131.07
384.78	159.16
384.97	77.24
385.17	107.66
385.36	44.47
385.56	173.20
385.75	70.22
385.95	46.81
386.14	112.35
386.34	110.01
386.53	154.48
386.72	74.90
386.92	152.13
387.11	131.07
387.31	135.75
387.50	72.56
387.70	112.35
387.89	147.45
388.09	170.86
388.28	86.60
388.48	100.64
388.67	152.13
388.86	156.82
389.06	175.54
389.25	149.79
389.45	86.60
389.64	175.54
389.84	217.67
390.03	173.20
390.22	166.18
390.42	110.01
390.61	128.73
390.81	110.01
391.00	124.05
391.19	131.07
391.39	149.79
391.58	163.84
391.78	177.88
391.97	110.01
392.16	140.43
392.36	203.63
392.55	180.22
392.75	93.62
392.94	117.03
393.13	110.01
393.33	149.79
393.52	166.18
393.71	131.07
393.91	126.39
394.10	4.68
394.29	112.35
394.49	77.24
394.68	170.86
394.88	156.82
395.07	147.45
395.26	133.41
395.46	114.69
395.65	102.98
395.84	166.18
396.04	222.35
396.23	163.84
396.42	98.30
396.62	154.48
396.81	117.03
397.00	67.88
397.19	163.84
397.39	81.92
397.58	170.86
397.77	152.13
397.97	177.88
398.16	154.48
398.35	205.97
398.55	124.05
398.74	124.05
398.93	168.52
399.12	154.48
399.32	205.97
399.51	145.11
399.70	180.22
399.90	196.60
400.09	252.78
400.28	231.71
400.47	117.03
400.67	234.05
400.86	187.24
401.05	170.86
401.24	194.26
401.44	175.54
401.63	194.26
401.82	215.33
402.01	131.07
402.21	255.12
402.40	264.48
402.59	278.52
402.78	330.02
402.97	208.31
403.17	264.48
403.36	297.25
403.55	367.46
403.74	650.67
403.93	2305.43
404.13	5963.68
404.32	9659.39
404.51	10480.92
404.70	6441.15
404.89	2340.54
405.09	650.67
405.28	421.30
405.47	320.65
405.66	264.48
405.85	271.50
406.05	266.82
406.24	238.73
406.43	217.67
406.62	262.14
406.81	315.97
407.00	493.85
407.20	695.14
407.39	1212.40
407.58	1479.22
407.77	1240.48
407.96	622.58
408.15	269.16
408.34	203.63
408.54	196.60
408.73	170.86
408.92	250.44
409.11	252.78
409.30	255.12
409.49	236.39
409.68	177.88
409.87	271.50
410.07	301.93
410.26	212.99
410.45	187.24
410.64	208.31
410.83	198.95
411.02	220.01
411.21	250.44
411.40	212.99
411.59	259.80
411.78	215.33
411.98	264.48
412.17	208.31
412.36	227.03
412.55	238.73
412.74	205.97
412.93	278.52
413.12	220.01
413.31	330.02
413.50	201.29
413.69	287.89
413.88	250.44
414.07	264.48
414.26	215.33
414.45	229.37
414.64	266.82
414.83	243.42
415.02	217.67
415.22	294.91
415.41	283.20
415.60	201.29
415.79	264.48
415.98	330.02
416.17	294.91
416.36	313.63
416.55	313.63
416.74	301.93
416.93	297.25
417.12	283.20
417.31	278.52
417.50	269.16
417.69	355.76
417.88	208.31
418.07	287.89
418.26	266.82
418.45	191.92
418.64	318.31
418.83	322.99
419.02	262.14
419.21	255.12
419.39	367.46
419.58	264.48
419.77	283.20
419.96	283.20
420.15	360.44
420.34	330.02
420.53	287.89
420.72	318.31
420.91	383.85
421.10	325.33
421.29	332.36
421.48	409.59
421.67	334.70
421.86	339.38
422.05	351.08
422.24	351.08
422.43	355.76
422.61	283.20
422.80	351.08
422.99	318.31
423.18	257.46
423.37	341.72
423.56	308.95
423.75	414.27
423.94	285.55
424.13	318.31
424.32	320.65
424.50	322.99
424.69	381.51
424.88	402.57
425.07	346.40
425.26	379.17
425.45	416.62
425.64	376.83
425.83	334.70
426.01	397.89
426.20	418.96
426.39	425.98
426.58	383.85
426.77	318.31
426.96	517.26
427.15	376.83
427.33	402.57
427.52	418.96
427.71	344.06
427.90	433.00
428.09	374.49
428.28	479.81
428.46	400.23
428.65	470.45
428.84	404.91
429.03	418.96
429.22	468.11
429.40	440.02
429.59	503.22
429.78	468.11
429.97	430.66
430.16	458.74
430.34	451.72
430.53	472.79
430.72	482.15
430.91	503.22
431.10	374.49
431.28	524.28
431.47	526.62
431.66	531.30
431.85	568.75
432.03	613.22
432.22	585.13
432.41	559.39
432.60	620.24
432.79	503.22
432.97	617.90
433.16	648.33
433.35	823.87
433.54	800.46
433.72	842.59
433.91	919.83
434.10	901.11
434.28	1135.16
434.47	1345.81
434.66	1495.60
434.85	1636.03
435.03	3892.31
435.22	13902.78
435.41	36493.63
435.59	50033.63
435.78	39622.93
435.97	17603.17
436.16	6509.03
436.34	2150.95
436.53	1235.80
436.72	875.36
436.90	870.68
437.09	788.76
437.28	629.60
437.46	648.33
437.65	674.07
437.84	636.63
438.02	676.41
438.21	667.05
438.40	645.99
438.58	613.22
438.77	615.56
438.96	617.90
439.14	653.01
439.33	641.31
439.52	606.20
439.70	564.07
439.89	578.11
440.08	519.60
440.26	601.52
440.45	631.94
440.63	648.33
440.82	531.30
441.01	601.52
441.19	578.11
441.38	615.56
441.57	580.45
441.75	585.13
441.94	617.90
442.12	617.90
442.31	599.18
442.50	601.52
442.68	592.16
442.87	580.45
443.05	531.30
443.24	599.18
443.43	561.73
443.61	535.98
443.80	587.47
443.98	589.82
444.17	571.09
444.35	589.82
444.54	578.11
444.73	578.11
444.91	573.43
445.10	578.11
445.28	592.16
445.47	638.97
445.65	578.11
445.84	531.30
446.02	559.39
446.21	557.05
446.39	568.75
446.58	608.54
446.77	531.30
446.95	528.96
447.14	573.43
447.32	596.84
447.51	578.11
447.69	634.29
447.88	592.16
448.06	585.13
448.25	711.52
448.43	573.43
448.62	571.09
448.80	559.39
448.99	624.92
449.17	580.45
449.36	559.39
449.54	603.86
449.73	571.09
449.91	692.80
450.10	631.94
450.28	648.33
450.46	594.50
450.65	521.94
450.83	596.84
451.02	580.45
451.20	535.98
451.39	580.45
451.57	594.50
451.76	550.03
451.94	594.50
452.13	594.50
452.31	650.67
452.49	566.41
452.68	592.16
452.86	599.18
453.05	730.25
453.23	627.26
453.42	561.73
453.60	599.18
453.78	573.43
453.97	557.05
454.15	620.24
454.34	500.87
454.52	566.41
454.70	631.94
454.89	585.13
455.07	608.54
455.26	657.69
455.44	669.39
455.62	596.84
455.81	496.19
455.99	603.86
456.17	582.79
456.36	535.98
456.54	540.66
456.73	507.90
456.91	540.66
457.09	543.00
457.28	634.29
457.46	540.66
457.64	636.63
457.83	559.39
458.01	538.32
458.19	603.86
458.38	559.39
458.56	566.41
458.74	554.71
458.93	554.71
459.11	582.79
459.29	575.77
459.48	566.41
459.66	571.09
459.84	575.77
460.03	568.75
460.21	533.64
460.39	603.86
460.57	557.05
460.76	540.66
460.94	599.18
461.12	610.88
461.31	503.22
461.49	557.05
461.67	531.30
461.85	552.37
462.04	589.82
462.22	1013.45
462.40	575.77
462.59	533.64
462.77	498.53
462.95	589.82
463.13	571.09
463.32	503.22
463.50	610.88
463.68	582.79
463.86	552.37
464.05	580.45
464.23	538.32
464.41	528.96
464.59	540.66
464.78	599.18
464.96	500.87
465.14	557.05
465.32	540.66
465.50	545.34
465.69	482.15
465.87	535.98
466.05	514.92
466.23	500.87
466.41	603.86
466.60	582.79
466.78	594.50
466.96	587.47
467.14	575.77
467.32	601.52
467.51	617.90
467.69	575.77
467.87	568.75
468.05	512.58
468.23	528.96
468.41	592.16
468.60	526.62
468.78	592.16
468.96	603.86
469.14	475.13
469.32	517.26
469.50	475.13
469.69	510.24
469.87	486.83
470.05	528.96
470.23	507.90
470.41	425.98
470.59	442.36
470.77	554.71
470.95	521.94
471.14	528.96
471.32	475.13
471.50	447.04
471.68	585.13
471.86	582.79
472.04	528.96
472.22	503.22
472.40	575.77
472.58	568.75
472.77	580.45
472.95	535.98
473.13	587.47
473.31	571.09
473.49	592.16
473.67	622.58
473.85	643.65
474.03	648.33
474.21	491.51
474.39	528.96
474.57	533.64
474.75	608.54
474.93	587.47
475.12	491.51
475.30	470.45
475.48	575.77
475.66	538.32
475.84	573.43
476.02	470.45
476.20	514.92
476.38	533.64
476.56	528.96
476.74	507.90
476.92	500.87
477.10	465.77
477.28	594.50
477.46	585.13
477.64	620.24
477.82	638.97
478.00	573.43
478.18	482.15
478.36	634.29
478.54	543.00
478.72	704.50
478.90	620.24
479.08	669.39
479.26	685.78
479.44	685.78
479.62	746.63
479.80	763.01
479.98	706.84
480.16	791.10
480.34	870.68
480.52	866.00
480.70	884.72
480.88	828.55
481.06	997.07
481.24	976.00
481.41	1111.75
481.59	1174.95
481.77	1118.78
481.95	1179.63
482.13	1383.26
482.31	1373.89
482.49	1488.58
482.67	1668.80
482.85	1680.50
483.03	1844.34
483.21	2001.16
483.39	2047.97
483.57	2200.10
483.74	2401.39
483.92	2413.09
484.10	2551.18
484.28	2722.04
484.46	2967.80
484.64	2951.42
484.82	3124.62
485.00	3272.07
485.18	3639.53
485.35	3702.73
485.53	3899.33
485.71	4114.66
485.89	4411.91
486.07	4475.10
486.25	4472.76
486.43	4423.61
486.61	4463.40
486.78	4526.60
486.96	4440.00
487.14	4498.51
487.32	4418.93
487.50	4423.61
487.68	4376.80
487.85	4283.18
488.03	4388.50
488.21	4248.07
488.39	4039.76
488.57	4149.77
488.75	4021.04
488.92	3985.93
489.10	3751.88
489.28	3639.53
489.46	3513.14
489.64	3501.44
489.81	3550.59
489.99	3571.66
490.17	3419.52
490.35	3496.76
490.53	3260.37
490.70	3403.14
490.88	3426.54
491.06	3410.16
491.24	3655.92
491.41	3812.73
491.59	3686.34
491.77	3375.05
491.95	3241.64
492.13	3141.00
492.30	3061.42
492.48	3012.27
492.66	2979.50
492.84	2953.76
493.01	2827.37
493.19	2899.92
493.37	2722.04
493.54	2729.06
493.72	2696.30
493.90	2649.49
494.08	2614.38
494.25	2733.75
494.43	2539.48
494.61	2602.68
494.79	2541.82
494.96	2506.71
495.14	2448.20
495.32	2349.90
495.49	2342.88
495.67	2310.11
495.85	2258.62
496.02	2157.97
496.20	2195.42
496.38	2284.36
496.55	2162.66
496.73	2101.80
496.91	2019.88
497.09	2101.80
497.26	1893.49
497.44	1933.28
497.62	1865.41
497.79	2010.52
497.97	1802.21
498.14	1881.79
498.32	1956.69
498.50	1776.47
498.67	1722.63
498.85	1652.42
499.03	1629.01
499.20	1544.75
499.38	1575.18
499.56	1488.58
499.73	1502.62
499.91	1561.14
500.08	1488.58
500.26	1378.58
500.44	1331.76
500.61	1303.68
500.79	1172.61
500.97	1205.38
501.14	1233.46
501.32	1053.24
501.49	1158.57
501.67	1142.18
501.84	1043.88
502.02	882.38
502.20	1067.28
502.37	957.28
502.55	1004.09
502.72	882.38
502.90	954.94
503.07	922.17
503.25	919.83
503.43	889.40
503.60	903.45
503.78	760.67
503.95	795.78
504.13	802.80
504.30	741.95
504.48	763.01
504.65	826.21
504.83	746.63
505.01	620.24
505.18	758.33
505.36	615.56
505.53	613.22
505.71	653.01
505.88	627.26
506.06	741.95
506.23	676.41
506.41	699.82
506.58	641.31
506.76	638.97
506.93	559.39
507.11	608.54
507.28	521.94
507.46	559.39
507.63	582.79
507.81	535.98
507.98	507.90
508.16	519.60
508.33	561.73
508.50	688.12
508.68	594.50
508.85	601.52
509.03	589.82
509.20	631.94
509.38	638.97
509.55	617.90
509.73	554.71
509.90	550.03
510.08	582.79
510.25	608.54
510.42	451.72
510.60	561.73
510.77	498.53
510.95	557.05
511.12	589.82
511.30	468.11
511.47	594.50
511.64	533.64
511.82	498.53
511.99	517.26
512.17	430.66
512.34	528.96
512.51	498.53
512.69	512.58
512.86	524.28
513.04	489.17
513.21	603.86
513.38	451.72
513.56	540.66
513.73	510.24
513.90	404.91
514.08	547.69
514.25	482.15
514.43	484.49
514.60	470.45
514.77	500.87
514.95	362.78
515.12	456.40
515.29	390.87
515.47	465.77
515.64	433.00
515.81	456.40
515.99	543.00
516.16	418.96
516.33	465.77
516.51	484.49
516.68	470.45
516.85	465.77
517.03	472.79
517.20	449.38
517.37	435.34
517.54	477.47
517.72	458.74
517.89	463.43
518.06	351.08
518.24	470.45
518.41	444.70
518.58	482.15
518.75	461.09
518.93	358.10
519.10	379.17
519.27	428.32
519.45	334.70
519.62	409.59
519.79	486.83
519.96	404.91
520.14	402.57
520.31	393.21
520.48	440.02
520.65	423.64
520.83	449.38
521.00	376.83
521.17	402.57
521.34	372.15
521.52	393.21
521.69	423.64
521.86	425.98
522.03	449.38
522.20	414.27
522.38	482.15
522.55	395.55
522.72	393.21
522.89	421.30
523.07	491.51
523.24	442.36
523.41	397.89
523.58	421.30
523.75	425.98
523.92	414.27
524.10	430.66
524.27	400.23
524.44	376.83
524.61	482.15
524.78	402.57
524.96	461.09
525.13	454.06
525.30	528.96
525.47	456.40
525.64	526.62
525.81	477.47
525.98	484.49
526.16	390.87
526.33	489.17
526.50	421.30
526.67	444.70
526.84	524.28
527.01	535.98
527.18	545.34
527.36	622.58
527.53	615.56
527.70	643.65
527.87	500.87
528.04	561.73
528.21	493.85
528.38	554.71
528.55	578.11
528.72	592.16
528.89	603.86
529.07	575.77
529.24	634.29
529.41	592.16
529.58	657.69
529.75	557.05
529.92	610.88
530.09	627.26
530.26	636.63
530.43	725.57
530.60	592.16
530.77	545.34
530.94	678.76
531.11	688.12
531.28	695.14
531.46	758.33
531.63	772.38
531.80	847.27
531.97	908.13
532.14	1025.15
532.31	1132.82
532.48	1394.96
532.65	1659.44
532.82	1877.11
532.99	2209.47
533.16	2551.18
533.33	2806.30
533.50	2436.50
533.67	2230.53
533.84	1823.28
534.01	1638.38
534.18	1535.39
534.35	1554.12
534.52	1453.47
534.69	1614.97
534.86	1584.54
535.03	1636.03
535.20	1619.65
535.37	1748.38
535.54	1942.64
535.71	2010.52
535.88	2216.49
536.05	2195.42
536.22	2473.95
536.38	2621.40
536.55	2920.99
536.72	3192.49
536.89	3508.46
537.06	4004.66
537.23	4468.08
537.40	4950.23
537.57	5387.91
537.74	5654.73
537.91	6038.58
538.08	5961.34
538.25	6143.91
538.42	6083.05
538.59	6303.06
538.75	6471.58
538.92	6754.79
539.09	7382.05
539.26	8037.40
539.43	9467.47
539.60	10633.05
539.77	11623.10
539.94	13289.56
540.11	14810.91
540.28	16592.06
540.44	17830.20
540.61	19782.21
540.78	22686.81
540.95	26913.82
541.12	32650.47
541.29	37511.77
541.46	39854.64
541.62	39306.96
541.79	37975.19
541.96	35262.51
542.13	32334.50
542.30	30649.32
542.47	28496.02
542.63	27026.17
542.80	26253.79
542.97	25771.64
543.14	24882.24
543.31	25453.33
543.48	25275.45
543.64	26223.36
543.81	26169.53
543.98	26089.95
544.15	26703.17
544.32	27028.51
544.48	26506.57
544.65	26082.93
544.82	25975.27
544.99	25926.11
545.16	26616.57
545.32	27424.06
545.49	39749.32
545.66	59718.77
545.83	65535.00
546.00	65535.00
546.16	62101.43
546.33	44828.28
546.50	34625.89
546.67	27171.28
546.83	23941.34
547.00	22808.52
547.17	22162.53
547.34	20875.24
547.50	20276.06
547.67	19454.53
547.84	18637.69
548.00	17855.95
548.17	17294.22
548.34	16636.53
548.51	16035.01
548.67	15204.12
548.84	14256.20
549.01	13687.45
549.18	13233.39
549.34	12493.78
549.51	11861.84
549.68	11517.78
549.84	11316.49
550.01	10759.44
550.18	9958.98
550.34	9528.32
550.51	9259.16
550.68	8833.18
550.84	8367.42
551.01	7796.32
551.18	7538.87
551.34	7185.44
551.51	6876.49
551.68	6548.82
551.84	6298.38
552.01	6045.60
552.18	5867.72
552.34	5699.20
552.51	5308.34
552.68	5231.10
552.84	4983.00
553.01	4819.16
553.18	4521.92
553.34	4425.95
553.51	4320.63
553.67	4180.20
553.84	3896.99
554.01	3815.07
554.17	3501.44
554.34	3255.69
554.51	3019.29
554.67	2986.52
554.84	2764.17
555.00	2717.36
555.17	2530.12
555.33	2326.49
555.50	2300.75
555.67	2129.89
555.83	2076.06
556.00	1975.41
556.16	2019.88
556.33	1895.83
556.50	1806.89
556.66	1713.27
556.83	1624.33
556.99	1607.95
557.16	1500.28
557.32	1544.75
557.49	1528.37
557.65	1383.26
557.82	1387.94
557.98	1385.60
558.15	1352.83
558.32	1277.93
558.48	1411.34
558.65	1259.21
558.81	1315.38
558.98	1170.27
559.14	1200.69
559.31	1184.31
559.47	1128.14
559.64	1060.26
559.80	1090.69
559.97	1067.28
560.13	954.94
560.30	966.64
560.46	1184.31
560.63	1100.05
560.79	1086.01
560.96	1060.26
561.12	1095.37
561.29	1036.86
561.45	983.02
561.61	1041.54
561.78	1198.35
561.94	1055.58
562.11	1027.50
562.27	1001.75
562.44	983.02
562.60	1013.45
562.77	1111.75
562.93	1062.60
563.10	954.94
563.26	947.92
563.42	919.83
563.59	866.00
563.75	961.96
563.92	889.40
564.08	891.74
564.24	873.02
564.41	840.25
564.57	826.21
564.74	793.44
564.90	805.14
565.07	866.00
565.23	882.38
565.39	814.51
565.56	767.70
565.72	720.88
565.88	781.74
566.05	828.55
566.21	800.46
566.38	809.83
566.54	805.14
566.70	816.85
566.87	758.33
567.03	779.40
567.19	788.76
567.36	772.38
567.52	741.95
567.68	777.06
567.85	870.68
568.01	833.23
568.17	741.95
568.34	833.23
568.50	835.57
568.66	814.51
568.83	809.83
568.99	807.48
569.15	828.55
569.32	716.20
569.48	774.72
569.64	697.48
569.81	648.33
569.97	638.97
570.13	664.71
570.30	526.62
570.46	599.18
570.62	627.26
570.78	505.56
570.95	463.43
571.11	550.03
571.27	667.05
571.43	524.28
571.60	688.12
571.76	561.73
571.92	596.84
572.09	507.90
572.25	582.79
572.41	615.56
572.57	627.26
572.74	681.10
572.90	580.45
573.06	585.13
573.22	627.26
573.38	662.37
573.55	662.37
573.71	620.24
573.87	692.80
574.03	645.99
574.20	674.07
574.36	683.44
574.52	737.27
574.68	755.99
574.84	849.61
575.01	842.59
575.17	837.91
575.33	919.83
575.49	1018.13
575.65	1004.09
575.82	1104.73
575.98	1203.04
576.14	1416.02
576.30	2249.25
576.46	7157.36
576.62	15262.63
576.79	22782.77
576.95	15461.58
577.11	8877.65
577.27	6104.12
577.43	4042.11
577.59	2539.48
577.75	2153.29
577.92	1923.92
578.08	1804.55
578.24	1827.96
578.40	2829.71
578.56	6827.34
578.72	14370.89
578.88	20910.35
579.04	14792.19
579.21	8791.05
579.37	6080.71
579.53	4704.48
579.69	4311.27
579.85	5275.57
580.01	6853.09
580.17	7007.56
580.33	5858.36
580.49	4741.93
580.65	4294.88
580.82	3981.25
580.98	3763.58
581.14	3721.45
581.30	4018.70
581.46	4315.95
581.62	4718.52
581.78	4816.82
581.94	5516.64
582.10	5675.80
582.26	5963.68
582.42	6274.98
582.58	6445.84
582.74	6520.73
582.90	6602.65
583.06	6544.14
583.22	6712.66
583.38	6579.25
583.54	6768.83
583.70	6656.48
583.86	6471.58
584.02	6354.55
584.18	6373.28
584.34	6270.30
584.50	6242.21
584.66	5923.90
584.82	6132.20
584.98	5809.21
585.14	5657.07
585.30	5640.69
585.46	5416.00
585.62	5373.87
585.78	5460.47
585.94	5593.88
586.10	5708.57
586.26	6029.22
586.42	6574.56
586.58	7655.89
586.74	9486.19
586.90	11513.10
587.06	13327.01
587.22	13310.63
587.38	12025.67
587.54	10040.90
587.70	8446.99
587.86	7052.03
588.02	5982.41
588.18	5432.38
588.34	4854.27
588.49	4292.54
588.65	4140.41
588.81	4072.53
588.97	3763.58
589.13	3866.56
589.29	3590.38
589.45	3637.19
589.61	3581.02
589.77	3585.70
589.93	3604.42
590.08	3840.82
590.24	3756.56
590.40	4018.70
590.56	4039.76
590.72	4201.26
590.88	4283.18
591.04	4449.36
591.20	4674.05
591.35	4882.36
591.51	5067.26
591.67	5085.98
591.83	5465.15
591.99	6017.52
592.15	6429.45
592.31	7178.42
592.46	7712.07
592.62	8318.26
592.78	9102.34
592.94	9537.68
593.10	9509.60
593.26	8947.87
593.41	8219.96
593.57	7311.83
593.73	6392.00
593.89	5753.04
594.05	5074.28
594.20	4557.02
594.36	4184.88
594.52	3880.61
594.68	3789.33
594.84	3571.66
594.99	3386.76
595.15	3239.30
595.31	3283.77
595.47	3325.90
595.62	3370.37
595.78	3309.52
595.94	3243.98
596.10	3279.09
596.25	3307.18
596.41	3283.77
596.57	3206.53
596.73	3332.92
596.88	3084.83
597.04	3241.64
597.20	3204.19
597.36	3232.28
597.51	3513.14
597.67	3611.45
597.83	3840.82
597.99	4023.38
598.14	4285.52
598.30	4498.51
598.46	4615.54
598.61	4940.87
598.77	4983.00
598.93	5355.15
599.09	5497.92
599.24	5743.67
599.40	5624.31
599.56	5446.43
599.71	5247.48
599.87	4870.65
600.03	4610.86
600.18	4212.96
600.34	4007.00
600.50	3698.05
600.65	3536.55
600.81	3377.39
600.97	3222.92
601.12	2871.84
601.28	2815.66
601.44	2649.49
601.59	2630.76
601.75	2427.14
601.91	2448.20
602.06	2324.15
602.22	2321.81
602.37	2167.34
602.53	2087.76
602.69	2153.29
602.84	2118.18
603.00	2279.68
603.16	2246.91
603.31	2253.94
603.47	2160.31
603.62	2167.34
603.78	2319.47
603.94	2324.15
604.09	2427.14
604.25	2420.11
604.40	2438.84
604.56	2448.20
604.71	2569.91
604.87	2527.78
605.03	2595.65
605.18	2616.72
605.34	2761.83
605.49	2829.71
605.65	2808.64
605.80	2813.32
605.96	2956.10
606.12	3056.74
606.27	3272.07
606.43	3410.16
606.58	3578.68
606.74	3653.58
606.89	3845.50
607.05	4086.58
607.20	4212.96
607.36	4585.11
607.51	4814.48
607.67	5039.17
607.82	5359.83
607.98	5804.53
608.13	6090.07
608.29	6792.23
608.44	7435.88
608.60	7990.59
608.75	8901.06
608.91	9776.42
609.06	10289.00
609.22	11648.85
609.37	12816.77
609.53	14333.44
609.68	16198.85
609.84	19098.77
609.99	22136.79
610.15	26178.89
610.30	31772.77
610.46	39885.07
610.61	50026.61
610.76	57687.18
610.92	63098.50
611.07	65535.00
611.23	65535.00
611.38	65535.00
611.54	63515.12
611.69	59690.68
611.84	54625.76
612.00	48278.23
612.15	41111.51
612.31	35763.39
612.46	31674.47
612.62	29563.31
612.77	27948.34
612.92	26941.91
613.08	24872.87
613.23	23840.70
613.39	22415.31
613.54	21834.86
613.69	21411.22
613.85	21163.12
614.00	21312.92
614.15	21195.89
614.31	20683.31
614.46	20318.19
614.62	19412.40
614.77	18401.29
614.92	17408.90
615.08	16283.11
615.23	15176.03
615.38	13514.25
615.54	12582.72
615.69	11386.71
615.84	10539.43
616.00	9788.12
616.15	8798.07
616.30	8311.24
616.46	7812.71
616.61	7435.88
616.76	6946.71
616.92	6602.65
617.07	6099.44
617.22	6043.26
617.37	5614.95
617.53	5364.51
617.68	5006.41
617.83	4905.76
617.99	4938.53
618.14	4669.37
618.29	4772.35
618.45	4524.26
618.60	4348.72
618.75	4440.00
618.90	4311.27
619.06	4046.79
619.21	4180.20
619.36	4297.22
619.51	4072.53
619.67	4070.19
619.82	4278.50
619.97	4271.48
620.12	4374.46
620.28	4404.89
620.43	4493.83
620.58	4517.23
620.73	4571.07
620.89	4709.16
621.04	4641.28
621.19	4540.64
621.34	4428.29
621.49	4435.32
621.65	4475.10
621.80	4313.61
621.95	4287.86
622.10	4444.68
622.25	4299.56
622.41	4510.21
622.56	4545.32
622.71	4655.33
622.86	4835.55
623.01	4865.97
623.16	4992.36
623.32	4992.36
623.47	5060.24
623.62	5060.24
623.77	5001.72
623.92	5067.26
624.07	4821.50
624.23	5001.72
624.38	4849.59
624.53	4966.62
624.68	5085.98
624.83	5177.26
624.98	5067.26
625.13	5069.60
625.29	5116.41
625.44	5149.18
625.59	5050.88
625.74	5224.08
625.89	5109.39
626.04	5060.24
626.19	5022.79
626.34	5151.52
626.49	5107.05
626.65	4992.36
626.80	4945.55
626.95	4891.72
627.10	4851.93
627.25	4849.59
627.40	4629.58
627.55	4547.66
627.70	4704.48
627.85	4580.43
628.00	4500.85
628.15	4542.98
628.30	4554.68
628.45	4540.64
628.60	4437.66
628.76	4547.66
628.91	4547.66
629.06	4432.97
629.21	4624.90
629.36	4762.99
629.51	4861.29
629.66	5013.43
629.81	5331.74
629.96	5923.90
630.11	6712.66
630.26	7208.85
630.41	8290.18
630.56	9074.26
630.71	9853.66
630.86	10143.88
631.01	10455.17
631.16	9305.97
631.31	8226.98
631.46	7162.04
631.61	6019.86
631.76	4950.23
631.91	4135.73
632.06	3559.95
632.21	3021.63
632.36	2651.83
632.51	2380.32
632.66	2143.93
632.81	1947.33
632.96	1956.69
633.10	1755.40
633.25	1668.80
633.40	1537.73
633.55	1519.01
633.70	1479.22
633.85	1444.11
634.00	1514.33
634.15	1383.26
634.30	1383.26
634.45	1359.85
634.60	1308.36
634.75	1219.42
634.90	1188.99
635.05	1226.44
635.19	1242.82
635.34	1156.22
635.49	1282.61
635.64	1289.64
635.79	1100.05
635.94	1097.71
636.09	1064.94
636.24	1170.27
636.39	1050.90
636.53	1095.37
636.68	1067.28
636.83	999.41
636.98	1034.52
637.13	940.90
637.28	952.60
637.43	1008.77
637.57	983.02
637.72	947.92
637.87	983.02
638.02	971.32
638.17	919.83
638.32	877.70
638.46	922.17
638.61	929.19
638.76	873.02
638.91	826.21
639.06	833.23
639.20	978.34
639.35	786.42
639.50	826.21
639.65	767.70
639.80	835.57
639.94	884.72
640.09	924.51
640.24	819.19
640.39	866.00
640.54	873.02
640.68	802.80
640.83	704.50
640.98	861.32
641.13	823.87
641.27	763.01
641.42	870.68
641.57	744.29
641.72	830.89
641.86	819.19
642.01	842.59
642.16	844.93
642.31	791.10
642.45	858.98
642.60	856.64
642.75	856.64
642.90	802.80
643.04	912.81
643.19	868.34
643.34	837.91
643.48	840.25
643.63	849.61
643.78	938.55
643.93	912.81
644.07	851.96
644.22	732.59
644.37	840.25
644.51	887.06
644.66	894.08
644.81	870.68
644.95	863.66
645.10	830.89
645.25	763.01
645.39	866.00
645.54	781.74
645.69	788.76
645.83	805.14
645.98	807.48
646.13	765.36
646.27	765.36
646.42	744.29
646.57	732.59
646.71	772.38
646.86	784.08
647.00	781.74
647.15	784.08
647.30	683.44
647.44	716.20
647.59	711.52
647.74	835.57
647.88	777.06
648.03	758.33
648.17	823.87
648.32	711.52
648.47	847.27
648.61	842.59
648.76	880.04
648.90	863.66
649.05	938.55
649.20	950.26
649.34	999.41
649.49	1100.05
649.63	1343.47
649.78	1558.80
649.92	1881.79
650.07	2113.50
650.21	2541.82
650.36	2729.06
650.51	2656.51
650.65	2675.23
650.80	2366.28
650.94	2122.87
651.09	1750.72
651.23	1645.40
651.38	1474.54
651.52	1277.93
651.67	1245.16
651.81	1123.46
651.96	1097.71
652.10	1020.47
652.25	1083.67
652.39	1170.27
652.54	1193.67
652.68	1097.71
652.83	1188.99
652.97	1320.06
653.12	1336.45
653.26	1275.59
653.41	1341.13
653.55	1107.07
653.70	983.02
653.84	983.02
653.99	952.60
654.13	887.06
654.27	809.83
654.42	760.67
654.56	856.64
654.71	828.55
654.85	814.51
655.00	753.65
655.14	746.63
655.29	770.04
655.43	830.89
655.57	748.97
655.72	660.03
655.86	660.03
656.01	760.67
656.15	812.17
656.30	763.01
656.44	718.54
656.58	683.44
656.73	643.65
656.87	709.18
657.01	760.67
657.16	814.51
657.30	851.96
657.45	891.74
657.59	828.55
657.73	964.30
657.88	910.47
658.02	983.02
658.16	849.61
658.31	758.33
658.45	805.14
658.60	734.93
658.74	657.69
658.88	603.86
659.03	645.99
659.17	559.39
659.31	531.30
659.46	615.56
659.60	643.65
659.74	622.58
659.89	557.05
660.03	503.22
660.17	627.26
660.32	573.43
660.46	550.03
660.60	528.96
660.74	613.22
660.89	615.56
661.03	533.64
661.17	671.73
661.32	610.88
661.46	805.14
661.60	933.87
661.74	1139.84
661.89	1299.00
662.03	1462.83
662.17	1514.33
662.31	1598.59
662.46	1636.03
662.60	1568.16
662.74	1469.86
662.88	1306.02
663.03	1078.99
663.17	1004.09
663.31	868.34
663.45	795.78
663.60	744.29
663.74	777.06
663.88	767.70
664.02	622.58
664.17	603.86
664.31	636.63
664.45	674.07
664.59	592.16
664.73	561.73
664.88	575.77
665.02	592.16
665.16	475.13
665.30	538.32
665.44	636.63
665.59	535.98
665.73	524.28
665.87	510.24
666.01	575.77
666.15	472.79
666.29	468.11
666.44	573.43
666.58	496.19
666.72	505.56
666.86	521.94
667.00	643.65
667.14	617.90
667.28	599.18
667.43	571.09
667.57	531.30
667.71	592.16
667.85	540.66
667.99	510.24
668.13	486.83
668.27	507.90
668.41	608.54
668.56	521.94
668.70	503.22
668.84	500.87
668.98	472.79
669.12	545.34
669.26	512.58
669.40	545.34
669.54	503.22
669.68	543.00
669.82	442.36
669.96	430.66
670.10	526.62
670.25	540.66
670.39	465.77
670.53	440.02
670.67	468.11
670.81	458.74
670.95	498.53
671.09	458.74
671.23	458.74
671.37	524.28
671.51	550.03
671.65	512.58
671.79	430.66
671.93	440.02
672.07	477.47
672.21	423.64
672.35	475.13
672.49	374.49
672.63	491.51
672.77	390.87
672.91	461.09
673.05	428.32
673.19	435.34
673.33	440.02
673.47	465.77
673.61	416.62
673.75	379.17
673.89	353.42
674.03	458.74
674.17	379.17
674.31	386.19
674.45	355.76
674.59	428.32
674.73	351.08
674.87	470.45
675.01	390.87
675.15	369.80
675.29	397.89
675.43	428.32
675.56	482.15
675.70	365.12
675.84	409.59
675.98	376.83
676.12	334.70
676.26	311.29
676.40	313.63
676.54	337.04
676.68	395.55
676.82	360.44
676.96	301.93
677.10	360.44
677.23	393.21
677.37	353.42
677.51	341.72
677.65	440.02
677.79	353.42
677.93	381.51
678.07	292.57
678.21	337.04
678.34	330.02
678.48	330.02
678.62	369.80
678.76	334.70
678.90	348.74
679.04	341.72
679.18	346.40
679.31	372.15
679.45	421.30
679.59	435.34
679.73	379.17
679.87	376.83
680.00	390.87
680.14	402.57
680.28	397.89
680.42	372.15
680.56	458.74
680.70	491.51
680.83	503.22
680.97	425.98
681.11	414.27
681.25	468.11
681.39	433.00
681.52	465.77
681.66	458.74
681.80	369.80
681.94	344.06
682.07	435.34
682.21	451.72
682.35	381.51
682.49	388.53
682.62	461.09
682.76	395.55
682.90	365.12
683.04	374.49
683.17	330.02
683.31	306.61
683.45	400.23
683.59	376.83
683.72	322.99
683.86	374.49
684.00	332.36
684.13	381.51
684.27	414.27
684.41	374.49
684.55	416.62
684.68	344.06
684.82	292.57
684.96	374.49
685.09	397.89
685.23	372.15
685.37	418.96
685.50	395.55
685.64	390.87
685.78	367.46
685.91	390.87
686.05	421.30
686.19	491.51
686.32	489.17
686.46	468.11
686.60	463.43
686.73	568.75
686.87	620.24
687.01	685.78
687.14	748.97
687.28	786.42
687.42	891.74
687.55	912.81
687.69	933.87
687.82	976.00
687.96	943.24
688.10	866.00
688.23	823.87
688.37	915.15
688.50	725.57
688.64	671.73
688.78	571.09
688.91	620.24
689.05	557.05
689.18	496.19
689.32	425.98
689.46	411.93
689.59	437.68
689.73	374.49
689.86	390.87
690.00	330.02
690.13	301.93
690.27	301.93
690.41	411.93
690.54	423.64
690.68	491.51
690.81	449.38
690.95	442.36
691.08	280.86
691.22	271.50
691.35	266.82
691.49	304.27
691.62	257.46
691.76	276.18
691.89	227.03
692.03	203.63
692.16	292.57
692.30	262.14
692.43	210.65
692.57	271.50
692.70	315.97
692.84	315.97
692.97	421.30
693.11	447.04
693.24	470.45
693.38	674.07
693.51	697.48
693.65	786.42
693.78	826.21
693.92	716.20
694.05	704.50
694.19	596.84
694.32	589.82
694.45	517.26
694.59	437.68
694.72	351.08
694.86	315.97
694.99	294.91
695.13	220.01
695.26	227.03
695.39	220.01
695.53	198.95
695.66	299.59
695.80	271.50
695.93	241.08
696.07	238.73
696.20	299.59
696.33	290.23
696.47	325.33
696.60	327.68
696.73	273.84
696.87	255.12
697.00	215.33
697.14	177.88
697.27	168.52
697.40	313.63
697.54	147.45
697.67	131.07
697.80	201.29
697.94	170.86
698.07	224.69
698.21	248.10
698.34	177.88
698.47	248.10
698.61	210.65
698.74	154.48
698.87	231.71
699.01	147.45
699.14	217.67
699.27	198.95
699.40	308.95
699.54	212.99
699.67	191.92
699.80	100.64
699.94	163.84
700.07	170.86
700.20	177.88
700.34	238.73
700.47	175.54
700.60	198.95
700.73	191.92
700.87	147.45
701.00	194.26
701.13	208.31
701.26	187.24
701.40	168.52
701.53	208.31
701.66	198.95
701.79	220.01
701.93	297.25
702.06	257.46
702.19	208.31
702.32	229.37
702.46	259.80
702.59	177.88
702.72	182.56
702.85	248.10
702.99	304.27
703.12	234.05
703.25	285.55
703.38	234.05
703.51	280.86
703.65	238.73
703.78	173.20
703.91	348.74
704.04	358.10
704.17	290.23
704.31	351.08
704.44	362.78
704.57	379.17
704.70	374.49
704.83	348.74
704.96	372.15
705.10	463.43
705.23	477.47
>>>>>End Processed Spectral Data<<<<<
