SpectraSuite Data File
++++++++++++++++++++++++++++++++++++
Date: Fri Oct 04 11:41:42 GMT-05:00 2013
User: price-jones
Dark Spectrum Present: No
Reference Spectrum Present: No
Number of Sampled Component Spectra: 1
Spectrometers: USB2+H05261
Integration Time (usec): 100000 (USB2+H05261)
Spectra Averaged: 1 (USB2+H05261)
Boxcar Smoothing: 0 (USB2+H05261)
Correct for Electrical Dark: No (USB2+H05261)
Strobe/Lamp Enabled: No (USB2+H05261)
Correct for Detector Non-linearity: No (USB2+H05261)
Correct for Stray Light: No (USB2+H05261)
Number of Pixels in Processed Spectrum: 2048
>>>>>Begin Processed Spectral Data<<<<<
365.73	42.13
365.92	42.13
366.12	42.13
366.32	0.00
366.52	0.00
366.72	0.00
366.91	0.00
367.11	35.11
367.31	0.00
367.51	0.00
367.70	0.00
367.90	0.00
368.10	14.04
368.30	0.00
368.49	0.00
368.69	0.00
368.89	0.00
369.09	0.00
369.28	0.00
369.48	0.00
369.68	0.00
369.87	0.00
370.07	14.04
370.27	35.11
370.47	7.02
370.66	21.06
370.86	44.47
371.06	128.73
371.25	112.35
371.45	65.54
371.65	84.26
371.84	60.85
372.04	114.69
372.24	60.85
372.44	65.54
372.63	86.60
372.83	149.79
373.03	145.11
373.22	131.07
373.42	65.54
373.62	119.37
373.81	166.18
374.01	131.07
374.21	88.94
374.40	126.39
374.60	135.75
374.79	163.84
374.99	140.43
375.19	154.48
375.38	154.48
375.58	119.37
375.78	191.92
375.97	131.07
376.17	208.31
376.37	60.85
376.56	133.41
376.76	105.32
376.95	126.39
377.15	180.22
377.35	145.11
377.54	159.16
377.74	175.54
377.93	98.30
378.13	187.24
378.33	140.43
378.52	119.37
378.72	175.54
378.91	110.01
379.11	79.58
379.31	168.52
379.50	98.30
379.70	126.39
379.89	117.03
380.09	58.51
380.28	70.22
380.48	124.05
380.68	70.22
380.87	110.01
381.07	170.86
381.26	175.54
381.46	168.52
381.65	152.13
381.85	112.35
382.04	100.64
382.24	152.13
382.43	177.88
382.63	98.30
382.83	110.01
383.02	133.41
383.22	166.18
383.41	51.49
383.61	147.45
383.80	189.58
384.00	138.09
384.19	138.09
384.39	81.92
384.58	112.35
384.78	133.41
384.97	166.18
385.17	30.43
385.36	86.60
385.56	100.64
385.75	107.66
385.95	142.77
386.14	100.64
386.34	180.22
386.53	135.75
386.72	117.03
386.92	173.20
387.11	154.48
387.31	58.51
387.50	114.69
387.70	156.82
387.89	91.28
388.09	77.24
388.28	133.41
388.48	114.69
388.67	175.54
388.86	159.16
389.06	117.03
389.25	187.24
389.45	131.07
389.64	117.03
389.84	182.56
390.03	124.05
390.22	67.88
390.42	102.98
390.61	147.45
390.81	133.41
391.00	98.30
391.19	124.05
391.39	119.37
391.58	156.82
391.78	100.64
391.97	154.48
392.16	119.37
392.36	114.69
392.55	166.18
392.75	138.09
392.94	135.75
393.13	98.30
393.33	205.97
393.52	81.92
393.71	175.54
393.91	81.92
394.10	105.32
394.29	112.35
394.49	49.15
394.68	145.11
394.88	154.48
395.07	166.18
395.26	159.16
395.46	201.29
395.65	168.52
395.84	187.24
396.04	170.86
396.23	170.86
396.42	117.03
396.62	100.64
396.81	168.52
397.00	168.52
397.19	114.69
397.39	175.54
397.58	154.48
397.77	138.09
397.97	166.18
398.16	93.62
398.35	175.54
398.55	51.49
398.74	184.90
398.93	173.20
399.12	107.66
399.32	173.20
399.51	170.86
399.70	154.48
399.90	170.86
400.09	149.79
400.28	180.22
400.47	187.24
400.67	154.48
400.86	140.43
401.05	121.71
401.24	205.97
401.44	198.95
401.63	264.48
401.82	269.16
402.01	198.95
402.21	215.33
402.40	208.31
402.59	159.16
402.78	259.80
402.97	269.16
403.17	283.20
403.36	337.04
403.55	369.80
403.74	655.35
403.93	2242.23
404.13	5701.54
404.32	9254.48
404.51	9612.58
404.70	5804.53
404.89	2080.74
405.09	699.82
405.28	313.63
405.47	220.01
405.66	187.24
405.85	250.44
406.05	234.05
406.24	280.86
406.43	231.71
406.62	264.48
406.81	250.44
407.00	411.93
407.20	716.20
407.39	1207.72
407.58	1329.42
407.77	1062.60
407.96	702.16
408.15	322.99
408.34	203.63
408.54	255.12
408.73	135.75
408.92	248.10
409.11	168.52
409.30	269.16
409.49	205.97
409.68	236.39
409.87	198.95
410.07	166.18
410.26	173.20
410.45	177.88
410.64	217.67
410.83	283.20
411.02	170.86
411.21	285.55
411.40	212.99
411.59	285.55
411.78	222.35
411.98	287.89
412.17	252.78
412.36	208.31
412.55	212.99
412.74	285.55
412.93	292.57
413.12	220.01
413.31	299.59
413.50	250.44
413.69	337.04
413.88	259.80
414.07	250.44
414.26	304.27
414.45	222.35
414.64	252.78
414.83	278.52
415.02	304.27
415.22	245.76
415.41	301.93
415.60	217.67
415.79	252.78
415.98	341.72
416.17	365.12
416.36	294.91
416.55	304.27
416.74	278.52
416.93	379.17
417.12	344.06
417.31	344.06
417.50	266.82
417.69	334.70
417.88	308.95
418.07	290.23
418.26	210.65
418.45	222.35
418.64	341.72
418.83	351.08
419.02	325.33
419.21	271.50
419.39	280.86
419.58	308.95
419.77	280.86
419.96	280.86
420.15	220.01
420.34	299.59
420.53	315.97
420.72	365.12
420.91	330.02
421.10	304.27
421.29	390.87
421.48	255.12
421.67	411.93
421.86	308.95
422.05	308.95
422.24	266.82
422.43	348.74
422.61	252.78
422.80	425.98
422.99	346.40
423.18	327.68
423.37	344.06
423.56	400.23
423.75	334.70
423.94	353.42
424.13	379.17
424.32	334.70
424.50	351.08
424.69	369.80
424.88	400.23
425.07	404.91
425.26	404.91
425.45	327.68
425.64	383.85
425.83	369.80
426.01	437.68
426.20	500.87
426.39	411.93
426.58	355.76
426.77	411.93
426.96	418.96
427.15	374.49
427.33	428.32
427.52	390.87
427.71	416.62
427.90	517.26
428.09	362.78
428.28	430.66
428.46	355.76
428.65	435.34
428.84	411.93
429.03	454.06
429.22	421.30
429.40	353.42
429.59	430.66
429.78	435.34
429.97	433.00
430.16	449.38
430.34	482.15
430.53	493.85
430.72	454.06
430.91	465.77
431.10	440.02
431.28	489.17
431.47	486.83
431.66	472.79
431.85	489.17
432.03	526.62
432.22	589.82
432.41	512.58
432.60	587.47
432.79	550.03
432.97	535.98
433.16	543.00
433.35	683.44
433.54	847.27
433.72	861.32
433.91	800.46
434.10	784.08
434.28	1076.65
434.47	1247.51
434.66	1455.81
434.85	1591.56
435.03	3922.74
435.22	13685.11
435.41	35358.47
435.59	47374.78
435.78	33862.87
435.97	15665.21
436.16	5858.36
436.34	2024.56
436.53	1100.05
436.72	905.79
436.90	791.10
437.09	760.67
437.28	734.93
437.46	660.03
437.65	636.63
437.84	660.03
438.02	688.12
438.21	573.43
438.40	596.84
438.58	500.87
438.77	575.77
438.96	638.97
439.14	592.16
439.33	571.09
439.52	557.05
439.70	587.47
439.89	622.58
440.08	615.56
440.26	568.75
440.45	601.52
440.63	575.77
440.82	559.39
441.01	585.13
441.19	505.56
441.38	566.41
441.57	578.11
441.75	554.71
441.94	650.67
442.12	554.71
442.31	545.34
442.50	617.90
442.68	561.73
442.87	526.62
443.05	552.37
443.24	505.56
443.43	578.11
443.61	634.29
443.80	531.30
443.98	559.39
444.17	596.84
444.35	606.20
444.54	653.01
444.73	547.69
444.91	594.50
445.10	587.47
445.28	613.22
445.47	592.16
445.65	566.41
445.84	524.28
446.02	592.16
446.21	557.05
446.39	547.69
446.58	526.62
446.77	547.69
446.95	540.66
447.14	540.66
447.32	608.54
447.51	594.50
447.69	517.26
447.88	617.90
448.06	538.32
448.25	535.98
448.43	535.98
448.62	484.49
448.80	594.50
448.99	550.03
449.17	524.28
449.36	538.32
449.54	550.03
449.73	573.43
449.91	575.77
450.10	528.96
450.28	587.47
450.46	704.50
450.65	554.71
450.83	538.32
451.02	585.13
451.20	526.62
451.39	554.71
451.57	592.16
451.76	608.54
451.94	638.97
452.13	505.56
452.31	669.39
452.49	608.54
452.68	561.73
452.86	519.60
453.05	592.16
453.23	608.54
453.42	540.66
453.60	507.90
453.78	578.11
453.97	500.87
454.15	538.32
454.34	512.58
454.52	528.96
454.70	475.13
454.89	578.11
455.07	559.39
455.26	528.96
455.44	564.07
455.62	547.69
455.81	599.18
455.99	566.41
456.17	587.47
456.36	561.73
456.54	519.60
456.73	505.56
456.91	550.03
457.09	531.30
457.28	528.96
457.46	486.83
457.64	533.64
457.83	568.75
458.01	587.47
458.19	545.34
458.38	554.71
458.56	617.90
458.74	496.19
458.93	540.66
459.11	552.37
459.29	533.64
459.48	554.71
459.66	568.75
459.84	486.83
460.03	641.31
460.21	596.84
460.39	580.45
460.57	575.77
460.76	463.43
460.94	475.13
461.12	528.96
461.31	524.28
461.49	540.66
461.67	561.73
461.85	507.90
462.04	603.86
462.22	624.92
462.40	454.06
462.59	550.03
462.77	416.62
462.95	531.30
463.13	458.74
463.32	514.92
463.50	519.60
463.68	554.71
463.86	507.90
464.05	533.64
464.23	629.60
464.41	601.52
464.59	486.83
464.78	543.00
464.96	564.07
465.14	571.09
465.32	451.72
465.50	491.51
465.69	465.77
465.87	547.69
466.05	493.85
466.23	444.70
466.41	561.73
466.60	608.54
466.78	627.26
466.96	587.47
467.14	596.84
467.32	580.45
467.51	582.79
467.69	554.71
467.87	596.84
468.05	491.51
468.23	503.22
468.41	531.30
468.60	442.36
468.78	528.96
468.96	568.75
469.14	435.34
469.32	468.11
469.50	507.90
469.69	535.98
469.87	468.11
470.05	552.37
470.23	500.87
470.41	573.43
470.59	409.59
470.77	498.53
470.95	482.15
471.14	543.00
471.32	603.86
471.50	540.66
471.68	444.70
471.86	461.09
472.04	479.81
472.22	461.09
472.40	524.28
472.58	582.79
472.77	514.92
472.95	510.24
473.13	631.94
473.31	545.34
473.49	557.05
473.67	395.55
473.85	477.47
474.03	519.60
474.21	603.86
474.39	463.43
474.57	575.77
474.75	580.45
474.93	489.17
475.12	484.49
475.30	500.87
475.48	524.28
475.66	538.32
475.84	528.96
476.02	533.64
476.20	566.41
476.38	531.30
476.56	599.18
476.74	550.03
476.92	538.32
477.10	535.98
477.28	524.28
477.46	627.26
477.64	528.96
477.82	641.31
478.00	535.98
478.18	526.62
478.36	662.37
478.54	505.56
478.72	608.54
478.90	683.44
479.08	634.29
479.26	674.07
479.44	557.05
479.62	648.33
479.80	739.61
479.98	695.14
480.16	751.31
480.34	828.55
480.52	786.42
480.70	765.36
480.88	856.64
481.06	945.58
481.24	992.39
481.41	1006.43
481.59	1081.33
481.77	1153.88
481.95	1200.69
482.13	1273.25
482.31	1308.36
482.49	1383.26
482.67	1479.22
482.85	1638.38
483.03	1790.51
483.21	1842.00
483.39	1914.56
483.57	2057.33
483.74	2186.06
483.92	2415.43
484.10	2429.48
484.28	2551.18
484.46	2605.02
484.64	2803.96
484.82	3049.72
485.00	3105.89
485.18	3279.09
485.35	3644.21
485.53	3721.45
485.71	3798.69
485.89	4203.60
486.07	4154.45
486.25	4234.03
486.43	4259.78
486.61	4219.99
486.78	4432.97
486.96	4184.88
487.14	4149.77
487.32	4238.71
487.50	4234.03
487.68	4154.45
487.85	4079.55
488.03	4121.68
488.21	3990.61
488.39	3791.67
488.57	3695.71
488.75	3737.84
488.92	3829.12
489.10	3428.88
489.28	3513.14
489.46	3478.04
489.64	3267.39
489.81	3433.57
489.99	3274.41
490.17	3262.71
490.35	3218.24
490.53	3192.49
490.70	3197.17
490.88	3143.34
491.06	3328.24
491.24	3700.39
491.41	3667.62
491.59	3428.88
491.77	3101.21
491.95	3005.25
492.13	2972.48
492.30	2834.39
492.48	2832.05
492.66	2862.48
492.84	2822.69
493.01	2850.77
493.19	2679.91
493.37	2729.06
493.54	2530.12
493.72	2682.25
493.90	2644.81
494.08	2509.05
494.25	2490.33
494.43	2403.73
494.61	2382.67
494.79	2349.90
494.96	2272.66
495.14	2258.62
495.32	2251.60
495.49	2211.81
495.67	2172.02
495.85	2204.78
496.02	2090.10
496.20	2076.06
496.38	2064.35
496.55	2136.91
496.73	1944.99
496.91	1975.41
497.09	1966.05
497.26	2003.50
497.44	1912.22
497.62	1888.81
497.79	1762.42
497.97	1755.40
498.14	1746.04
498.32	1666.46
498.50	1633.69
498.67	1626.67
498.85	1584.54
499.03	1479.22
499.20	1516.67
499.38	1511.99
499.56	1338.79
499.73	1399.64
499.91	1432.41
500.08	1373.89
500.26	1296.66
500.44	1139.84
500.61	1165.59
500.79	1097.71
500.97	1196.01
501.14	1188.99
501.32	1109.41
501.49	999.41
501.67	903.45
501.84	997.07
502.02	1013.45
502.20	884.72
502.37	940.90
502.55	919.83
502.72	936.21
502.90	915.15
503.07	870.68
503.25	835.57
503.43	837.91
503.60	814.51
503.78	772.38
503.95	758.33
504.13	732.59
504.30	699.82
504.48	720.88
504.65	788.76
504.83	765.36
505.01	615.56
505.18	648.33
505.36	741.95
505.53	627.26
505.71	608.54
505.88	688.12
506.06	606.20
506.23	645.99
506.41	631.94
506.58	631.94
506.76	564.07
506.93	533.64
507.11	578.11
507.28	564.07
507.46	566.41
507.63	552.37
507.81	578.11
507.98	582.79
508.16	510.24
508.33	510.24
508.50	620.24
508.68	638.97
508.85	671.73
509.03	561.73
509.20	561.73
509.38	578.11
509.55	592.16
509.73	622.58
509.90	564.07
510.08	496.19
510.25	482.15
510.42	535.98
510.60	510.24
510.77	547.69
510.95	531.30
511.12	505.56
511.30	505.56
511.47	535.98
511.64	528.96
511.82	468.11
511.99	444.70
512.17	486.83
512.34	557.05
512.51	512.58
512.69	489.17
512.86	428.32
513.04	538.32
513.21	545.34
513.38	503.22
513.56	491.51
513.73	416.62
513.90	458.74
514.08	463.43
514.25	507.90
514.43	468.11
514.60	447.04
514.77	407.25
514.95	451.72
515.12	510.24
515.29	451.72
515.47	442.36
515.64	472.79
515.81	395.55
515.99	547.69
516.16	365.12
516.33	524.28
516.51	484.49
516.68	526.62
516.85	470.45
517.03	395.55
517.20	472.79
517.37	449.38
517.54	479.81
517.72	409.59
517.89	390.87
518.06	360.44
518.24	440.02
518.41	505.56
518.58	505.56
518.75	442.36
518.93	402.57
519.10	362.78
519.27	411.93
519.45	381.51
519.62	397.89
519.79	416.62
519.96	447.04
520.14	433.00
520.31	360.44
520.48	374.49
520.65	409.59
520.83	433.00
521.00	433.00
521.17	404.91
521.34	365.12
521.52	376.83
521.69	376.83
521.86	369.80
522.03	435.34
522.20	440.02
522.38	421.30
522.55	390.87
522.72	351.08
522.89	414.27
523.07	367.46
523.24	442.36
523.41	386.19
523.58	393.21
523.75	397.89
523.92	552.37
524.10	486.83
524.27	407.25
524.44	388.53
524.61	465.77
524.78	444.70
524.96	435.34
525.13	435.34
525.30	479.81
525.47	484.49
525.64	451.72
525.81	421.30
525.98	514.92
526.16	482.15
526.33	433.00
526.50	468.11
526.67	425.98
526.84	512.58
527.01	486.83
527.18	566.41
527.36	540.66
527.53	561.73
527.70	540.66
527.87	521.94
528.04	503.22
528.21	568.75
528.38	514.92
528.55	606.20
528.72	496.19
528.89	517.26
529.07	526.62
529.24	463.43
529.41	620.24
529.58	545.34
529.75	589.82
529.92	575.77
530.09	617.90
530.26	669.39
530.43	650.67
530.60	664.71
530.77	634.29
530.94	669.39
531.11	746.63
531.28	678.76
531.46	695.14
531.63	823.87
531.80	837.91
531.97	847.27
532.14	997.07
532.31	1111.75
532.48	1404.32
532.65	1540.07
532.82	1771.79
532.99	2062.01
533.16	2392.03
533.33	2642.46
533.50	2408.41
533.67	2069.03
533.84	1654.76
534.01	1453.47
534.18	1448.79
534.35	1420.71
534.52	1404.32
534.69	1530.71
534.86	1504.96
535.03	1600.93
535.20	1671.14
535.37	1774.13
535.54	1809.23
535.71	1952.01
535.88	2087.76
536.05	2246.91
536.22	2326.49
536.38	2567.57
536.55	2750.13
536.72	3005.25
536.89	3370.37
537.06	3784.65
537.23	4182.54
537.40	4755.97
537.57	4987.68
537.74	5228.76
537.91	5600.90
538.08	5696.86
538.25	5727.29
538.42	5802.19
538.59	5937.94
538.75	6104.12
538.92	6384.98
539.09	6911.60
539.26	7641.85
539.43	8947.87
539.60	9825.57
539.77	11248.61
539.94	12830.82
540.11	14188.33
540.28	15442.85
540.44	16638.87
540.61	18576.83
540.78	21076.52
540.95	25394.81
541.12	30866.98
541.29	35388.90
541.46	37167.71
541.62	36938.33
541.79	35814.88
541.96	33198.16
542.13	30881.03
542.30	28603.69
542.47	26644.66
542.63	25362.04
542.80	24463.28
542.97	24161.35
543.14	24002.19
543.31	23861.76
543.48	24093.47
543.64	24694.99
543.81	24926.71
543.98	25020.33
544.15	24746.48
544.32	25127.99
544.48	25130.33
544.65	24379.02
544.82	24325.19
544.99	24411.79
545.16	25460.35
545.32	26022.08
545.49	38082.86
545.66	59138.32
545.83	65535.00
546.00	65535.00
546.16	57333.76
546.33	43248.42
546.50	32821.33
546.67	25951.86
546.83	22937.25
547.00	21879.33
547.17	20746.51
547.34	19580.92
547.50	19131.54
547.67	18214.05
547.84	17556.36
548.00	16568.65
548.17	15969.48
548.34	15501.37
548.51	15056.67
548.67	14083.00
548.84	13605.53
549.01	12947.84
549.18	12212.92
549.34	11698.00
549.51	11190.10
549.68	11222.87
549.84	10186.01
550.01	9879.40
550.18	9628.96
550.34	9252.14
550.51	8840.20
550.68	8262.09
550.84	7789.30
551.01	7335.24
551.18	7005.22
551.34	6565.20
551.51	6230.51
551.68	6090.07
551.84	5991.77
552.01	5699.20
552.18	5537.71
552.34	5193.65
552.51	5135.14
552.68	4777.03
552.84	4561.70
553.01	4386.16
553.18	4175.52
553.34	4290.20
553.51	4007.00
553.67	3882.95
553.84	3831.46
554.01	3545.91
554.17	3328.24
554.34	2935.03
554.51	2899.92
554.67	2715.02
554.84	2672.89
555.00	2415.43
555.17	2265.64
555.33	2181.38
555.50	2143.93
555.67	2115.84
555.83	2017.54
556.00	1926.26
556.16	2038.61
556.33	1720.29
556.50	1680.50
556.66	1645.40
556.83	1530.71
556.99	1481.56
557.16	1530.71
557.32	1376.24
557.49	1373.89
557.65	1430.07
557.82	1387.94
557.98	1261.55
558.15	1224.10
558.32	1135.16
558.48	1254.53
558.65	1167.93
558.81	1137.50
558.98	1121.12
559.14	1062.60
559.31	1064.94
559.47	1071.97
559.64	1057.92
559.80	1118.78
559.97	947.92
560.13	978.34
560.30	1039.20
560.46	999.41
560.63	968.98
560.79	1095.37
560.96	1036.86
561.12	959.62
561.29	952.60
561.45	1062.60
561.61	1008.77
561.78	1107.07
561.94	922.17
562.11	973.66
562.27	985.37
562.44	936.21
562.60	1032.18
562.77	950.26
562.93	971.32
563.10	894.08
563.26	884.72
563.42	889.40
563.59	924.51
563.75	873.02
563.92	882.38
564.08	788.76
564.24	828.55
564.41	894.08
564.57	720.88
564.74	784.08
564.90	805.14
565.07	851.96
565.23	807.48
565.39	774.72
565.56	774.72
565.72	739.61
565.88	739.61
566.05	716.20
566.21	772.38
566.38	812.17
566.54	704.50
566.70	746.63
566.87	880.04
567.03	763.01
567.19	830.89
567.36	826.21
567.52	772.38
567.68	826.21
567.85	767.70
568.01	840.25
568.17	720.88
568.34	709.18
568.50	844.93
568.66	788.76
568.83	837.91
568.99	713.86
569.15	739.61
569.32	753.65
569.48	711.52
569.64	674.07
569.81	545.34
569.97	655.35
570.13	737.27
570.30	592.16
570.46	547.69
570.62	566.41
570.78	510.24
570.95	484.49
571.11	624.92
571.27	545.34
571.43	519.60
571.60	594.50
571.76	514.92
571.92	470.45
572.09	596.84
572.25	566.41
572.41	615.56
572.57	601.52
572.74	603.86
572.90	585.13
573.06	624.92
573.22	514.92
573.38	561.73
573.55	620.24
573.71	575.77
573.87	622.58
574.03	629.60
574.20	683.44
574.36	727.91
574.52	688.12
574.68	760.67
574.84	755.99
575.01	798.12
575.17	819.19
575.33	875.36
575.49	896.43
575.65	1011.11
575.82	1086.01
575.98	1149.20
576.14	1256.87
576.30	2321.81
576.46	7136.29
576.62	14618.99
576.79	19616.03
576.95	14073.64
577.11	8713.81
577.27	5984.75
577.43	3864.22
577.59	2410.75
577.75	1947.33
577.92	1834.98
578.08	1696.89
578.24	1715.61
578.40	2586.29
578.56	6759.47
578.72	13303.60
578.88	18106.38
579.04	13018.06
579.21	8252.73
579.37	6153.27
579.53	4655.33
579.69	4091.26
579.85	5160.88
580.01	6499.67
580.17	6576.91
580.33	5472.17
580.49	4542.98
580.65	3995.29
580.82	3632.51
580.98	3557.61
581.14	3545.91
581.30	3925.08
581.46	4053.81
581.62	4475.10
581.78	4741.93
581.94	5060.24
582.10	5294.29
582.26	5720.27
582.42	5813.89
582.58	5930.92
582.74	6078.37
582.90	6204.76
583.06	6305.40
583.22	6164.97
583.38	6223.48
583.54	6148.59
583.70	6202.42
583.86	6005.81
584.02	5970.71
584.18	5792.83
584.34	5685.16
584.50	5804.53
584.66	5486.22
584.82	5537.71
584.98	5631.33
585.14	5544.73
585.30	5364.51
585.46	5200.67
585.62	5203.01
585.78	5107.05
585.94	5275.57
586.10	5252.16
586.26	5593.88
586.42	6160.29
586.58	7246.30
586.74	8945.53
586.90	11143.29
587.06	11957.80
587.22	12332.28
587.38	11112.86
587.54	9893.44
587.70	7962.50
587.86	6829.68
588.02	5881.77
588.18	5142.16
588.34	4561.70
588.49	4152.11
588.65	3808.05
588.81	3693.37
588.97	3669.96
589.13	3487.40
589.29	3400.80
589.45	3527.19
589.61	3293.13
589.77	3417.18
589.93	3555.27
590.08	3447.61
590.24	3705.07
590.40	3714.43
590.56	3824.44
590.72	3974.23
590.88	4142.75
591.04	4105.30
591.20	4248.07
591.35	4674.05
591.51	4755.97
591.67	4842.57
591.83	5153.86
591.99	5558.77
592.15	6150.93
592.31	6600.31
592.46	7279.07
592.62	7985.91
592.78	8416.57
592.94	8919.78
593.10	8791.05
593.26	8320.60
593.41	7534.18
593.57	6850.75
593.73	6122.84
593.89	5408.98
594.05	4683.41
594.20	4292.54
594.36	3925.08
594.52	3719.11
594.68	3520.17
594.84	3379.73
594.99	3363.35
595.15	3262.71
595.31	3122.27
595.47	2991.20
595.62	3070.78
595.78	3047.38
595.94	3000.57
596.10	3143.34
596.25	3126.96
596.41	2998.23
596.57	3040.36
596.73	3035.67
596.88	2951.42
597.04	2942.05
597.20	2888.22
597.36	3110.57
597.51	3197.17
597.67	3246.32
597.83	3389.10
597.99	3552.93
598.14	3932.10
598.30	4191.90
598.46	4395.53
598.61	4519.57
598.77	4709.16
598.93	5097.69
599.09	5123.43
599.24	5268.55
599.40	5186.63
599.56	5200.67
599.71	4851.93
599.87	4601.49
600.03	4264.46
600.18	4028.06
600.34	3824.44
600.50	3522.51
600.65	3330.58
600.81	3136.32
600.97	2874.18
601.12	2799.28
601.28	2689.28
601.44	2572.25
601.59	2452.88
601.75	2256.28
601.91	2279.68
602.06	2202.44
602.22	2160.31
602.37	1984.77
602.53	2012.86
602.69	1970.73
602.84	1942.64
603.00	2022.22
603.16	2169.68
603.31	2003.50
603.47	2043.29
603.62	2099.46
603.78	2216.49
603.94	2214.15
604.09	2223.51
604.25	2300.75
604.40	2317.13
604.56	2424.80
604.71	2352.24
604.87	2328.83
605.03	2490.33
605.18	2499.69
605.34	2630.76
605.49	2616.72
605.65	2637.78
605.80	2782.90
605.96	2902.26
606.12	2939.71
606.27	2995.89
606.43	3215.90
606.58	3382.07
606.74	3536.55
606.89	3618.47
607.05	3754.22
607.20	3990.61
607.36	4388.50
607.51	4596.81
607.67	4865.97
607.82	5078.96
607.98	5502.60
608.13	5774.10
608.29	6342.85
608.44	6937.35
608.60	7513.12
608.75	8180.17
608.91	8884.67
609.06	9769.40
609.22	11077.76
609.37	12032.69
609.53	13666.39
609.68	15147.95
609.84	17666.36
609.99	20589.69
610.15	24224.54
610.30	30132.06
610.46	37818.38
610.61	47250.74
610.76	56222.01
610.92	62010.15
611.07	64839.86
611.23	65502.23
611.38	64999.02
611.54	62206.76
611.69	57769.10
611.84	52804.83
612.00	46110.89
612.15	39016.73
612.31	33464.98
612.46	29724.80
612.62	27864.08
612.77	25846.54
612.92	24589.67
613.08	23180.67
613.23	21935.50
613.39	21476.76
613.54	20517.14
613.69	20109.88
613.85	19407.72
614.00	19475.60
614.15	19367.93
614.31	19290.70
614.46	19063.66
614.62	18188.30
614.77	17195.92
614.92	16159.06
615.08	15105.82
615.23	13900.44
615.38	12685.70
615.54	11838.43
615.69	10733.70
615.84	9507.26
616.00	9137.45
616.15	8428.27
616.30	7847.82
616.46	7253.32
616.61	6715.00
616.76	6532.44
616.92	6370.94
617.07	5830.27
617.22	5650.05
617.37	5343.44
617.53	5060.24
617.68	4823.84
617.83	4678.73
617.99	4376.80
618.14	4374.46
618.29	4322.97
618.45	4084.23
618.60	4028.06
618.75	3868.91
618.90	3946.14
619.06	4030.40
619.21	3932.10
619.36	3934.44
619.51	3868.91
619.67	3824.44
619.82	3960.19
619.97	4060.83
620.12	4194.24
620.28	4224.67
620.43	4182.54
620.58	4301.90
620.73	4128.70
620.89	4332.33
621.04	4353.40
621.19	4257.43
621.34	4222.33
621.49	4203.60
621.65	4142.75
621.80	4180.20
621.95	4187.22
622.10	3971.89
622.25	4142.75
622.41	4210.62
622.56	4315.95
622.71	4348.72
622.86	4521.92
623.01	4517.23
623.16	4816.82
623.32	4844.91
623.47	4496.17
623.62	4477.44
623.77	4620.22
623.92	4531.28
624.07	4613.20
624.23	4533.62
624.38	4627.24
624.53	4603.83
624.68	4734.90
624.83	4830.87
624.98	4730.22
625.13	4734.90
625.29	4816.82
625.44	4603.83
625.59	4652.98
625.74	4802.78
625.89	4713.84
626.04	4772.35
626.19	4770.01
626.34	4774.69
626.49	4849.59
626.65	4734.90
626.80	4690.43
626.95	4559.36
627.10	4512.55
627.25	4482.13
627.40	4512.55
627.55	4423.61
627.70	4259.78
627.85	4227.01
628.00	4278.50
628.15	4152.11
628.30	4299.56
628.45	4257.43
628.60	4273.82
628.76	4128.70
628.91	4198.92
629.06	4248.07
629.21	4283.18
629.36	4266.80
629.51	4519.57
629.66	4795.76
629.81	5107.05
629.96	5376.21
630.11	6047.94
630.26	6927.99
630.41	7604.40
630.56	8369.76
630.71	9167.88
630.86	9521.30
631.01	9219.37
631.16	8720.84
631.31	7845.48
631.46	6626.06
631.61	5472.17
631.76	4692.77
631.91	3915.72
632.06	3330.58
632.21	2881.20
632.36	2597.99
632.51	2282.02
632.66	2073.71
632.81	1930.94
632.96	1949.67
633.10	1769.44
633.25	1671.14
633.40	1565.82
633.55	1451.13
633.70	1444.11
633.85	1315.38
634.00	1378.58
634.15	1329.42
634.30	1284.95
634.45	1160.91
634.60	1196.01
634.75	1083.67
634.90	1097.71
635.05	1128.14
635.19	1270.91
635.34	1226.44
635.49	1184.31
635.64	1078.99
635.79	1027.50
635.94	1036.86
636.09	1123.46
636.24	1100.05
636.39	997.07
636.53	1020.47
636.68	1018.13
636.83	973.66
636.98	1046.22
637.13	905.79
637.28	940.90
637.43	1015.79
637.57	978.34
637.72	997.07
637.87	917.49
638.02	868.34
638.17	863.66
638.32	901.11
638.46	763.01
638.61	844.93
638.76	779.40
638.91	835.57
639.06	786.42
639.20	819.19
639.35	812.17
639.50	716.20
639.65	826.21
639.80	819.19
639.94	889.40
640.09	861.32
640.24	847.27
640.39	823.87
640.54	725.57
640.68	760.67
640.83	760.67
640.98	678.76
641.13	772.38
641.27	739.61
641.42	739.61
641.57	760.67
641.72	809.83
641.86	779.40
642.01	727.91
642.16	784.08
642.31	718.54
642.45	847.27
642.60	866.00
642.75	744.29
642.90	786.42
643.04	795.78
643.19	823.87
643.34	800.46
643.48	678.76
643.63	861.32
643.78	730.25
643.93	894.08
644.07	758.33
644.22	734.93
644.37	767.70
644.51	774.72
644.66	816.85
644.81	755.99
644.95	753.65
645.10	739.61
645.25	734.93
645.39	781.74
645.54	699.82
645.69	718.54
645.83	734.93
645.98	748.97
646.13	763.01
646.27	716.20
646.42	737.27
646.57	695.14
646.71	662.37
646.86	709.18
647.00	744.29
647.15	688.12
647.30	770.04
647.44	720.88
647.59	744.29
647.74	760.67
647.88	690.46
648.03	692.80
648.17	770.04
648.32	739.61
648.47	823.87
648.61	798.12
648.76	816.85
648.90	887.06
649.05	884.72
649.20	940.90
649.34	1025.15
649.49	1053.24
649.63	1233.46
649.78	1416.02
649.92	1664.12
650.07	2054.99
650.21	2399.05
650.36	2635.44
650.51	2506.71
650.65	2331.17
650.80	2113.50
650.94	1968.39
651.09	1760.08
651.23	1561.14
651.38	1397.30
651.52	1291.98
651.67	1207.72
651.81	1086.01
651.96	1048.56
652.10	1043.88
652.25	1043.88
652.39	1048.56
652.54	1043.88
652.68	1151.54
652.83	1254.53
652.97	1273.25
653.12	1291.98
653.26	1259.21
653.41	1259.21
653.55	1029.84
653.70	1015.79
653.84	931.53
653.99	786.42
654.13	793.44
654.27	805.14
654.42	681.10
654.56	772.38
654.71	777.06
654.85	765.36
655.00	664.71
655.14	720.88
655.29	758.33
655.43	732.59
655.57	725.57
655.72	655.35
655.86	678.76
656.01	763.01
656.15	709.18
656.30	699.82
656.44	720.88
656.58	685.78
656.73	688.12
656.87	690.46
657.01	699.82
657.16	784.08
657.30	807.48
657.45	823.87
657.59	823.87
657.73	877.70
657.88	926.85
658.02	997.07
658.16	851.96
658.31	741.95
658.45	746.63
658.60	617.90
658.74	657.69
658.88	608.54
659.03	648.33
659.17	571.09
659.31	496.19
659.46	547.69
659.60	568.75
659.74	554.71
659.89	547.69
660.03	505.56
660.17	566.41
660.32	489.17
660.46	538.32
660.60	554.71
660.74	559.39
660.89	538.32
661.03	535.98
661.17	638.97
661.32	683.44
661.46	690.46
661.60	791.10
661.74	990.05
661.89	1193.67
662.03	1378.58
662.17	1430.07
662.31	1481.56
662.46	1584.54
662.60	1399.64
662.74	1247.51
662.88	1242.82
663.03	1111.75
663.17	866.00
663.31	826.21
663.45	844.93
663.60	725.57
663.74	739.61
663.88	608.54
664.02	730.25
664.17	622.58
664.31	596.84
664.45	601.52
664.59	571.09
664.73	463.43
664.88	552.37
665.02	437.68
665.16	582.79
665.30	447.04
665.44	465.77
665.59	507.90
665.73	430.66
665.87	514.92
666.01	484.49
666.15	613.22
666.29	566.41
666.44	568.75
666.58	594.50
666.72	554.71
666.86	531.30
667.00	599.18
667.14	547.69
667.28	610.88
667.43	599.18
667.57	524.28
667.71	524.28
667.85	463.43
667.99	566.41
668.13	535.98
668.27	489.17
668.41	535.98
668.56	440.02
668.70	454.06
668.84	526.62
668.98	514.92
669.12	456.40
669.26	475.13
669.40	507.90
669.54	451.72
669.68	519.60
669.82	437.68
669.96	470.45
670.10	451.72
670.25	496.19
670.39	465.77
670.53	451.72
670.67	493.85
670.81	428.32
670.95	582.79
671.09	447.04
671.23	510.24
671.37	479.81
671.51	440.02
671.65	498.53
671.79	440.02
671.93	458.74
672.07	543.00
672.21	498.53
672.35	376.83
672.49	430.66
672.63	440.02
672.77	421.30
672.91	414.27
673.05	411.93
673.19	435.34
673.33	411.93
673.47	404.91
673.61	423.64
673.75	308.95
673.89	330.02
674.03	404.91
674.17	393.21
674.31	322.99
674.45	414.27
674.59	472.79
674.73	411.93
674.87	414.27
675.01	454.06
675.15	411.93
675.29	416.62
675.43	482.15
675.56	404.91
675.70	379.17
675.84	294.91
675.98	344.06
676.12	372.15
676.26	388.53
676.40	397.89
676.54	311.29
676.68	400.23
676.82	444.70
676.96	327.68
677.10	346.40
677.23	362.78
677.37	318.31
677.51	348.74
677.65	414.27
677.79	421.30
677.93	337.04
678.07	374.49
678.21	381.51
678.34	367.46
678.48	374.49
678.62	318.31
678.76	330.02
678.90	397.89
679.04	351.08
679.18	397.89
679.31	383.85
679.45	416.62
679.59	369.80
679.73	376.83
679.87	447.04
680.00	444.70
680.14	454.06
680.28	423.64
680.42	402.57
680.56	428.32
680.70	372.15
680.83	479.81
680.97	425.98
681.11	472.79
681.25	454.06
681.39	397.89
681.52	416.62
681.66	353.42
681.80	437.68
681.94	388.53
682.07	386.19
682.21	404.91
682.35	294.91
682.49	372.15
682.62	325.33
682.76	379.17
682.90	332.36
683.04	372.15
683.17	379.17
683.31	255.12
683.45	346.40
683.59	402.57
683.72	327.68
683.86	337.04
684.00	409.59
684.13	318.31
684.27	407.25
684.41	337.04
684.55	259.80
684.68	262.14
684.82	330.02
684.96	325.33
685.09	311.29
685.23	358.10
685.37	259.80
685.50	486.83
685.64	470.45
685.78	397.89
685.91	355.76
686.05	489.17
686.19	461.09
686.32	557.05
686.46	507.90
686.60	493.85
686.73	688.12
686.87	643.65
687.01	582.79
687.14	636.63
687.28	711.52
687.42	861.32
687.55	887.06
687.69	912.81
687.82	816.85
687.96	851.96
688.10	905.79
688.23	800.46
688.37	777.06
688.50	795.78
688.64	695.14
688.78	557.05
688.91	564.07
689.05	503.22
689.18	442.36
689.32	461.09
689.46	491.51
689.59	393.21
689.73	381.51
689.86	287.89
690.00	344.06
690.13	266.82
690.27	346.40
690.41	330.02
690.54	423.64
690.68	507.90
690.81	395.55
690.95	341.72
691.08	252.78
691.22	234.05
691.35	252.78
691.49	255.12
691.62	238.73
691.76	250.44
691.89	203.63
692.03	236.39
692.16	285.55
692.30	187.24
692.43	325.33
692.57	297.25
692.70	330.02
692.84	351.08
692.97	290.23
693.11	348.74
693.24	498.53
693.38	552.37
693.51	608.54
693.65	636.63
693.78	709.18
693.92	702.16
694.05	690.46
694.19	512.58
694.32	503.22
694.45	407.25
694.59	322.99
694.72	304.27
694.86	285.55
694.99	292.57
695.13	217.67
695.26	215.33
695.39	203.63
695.53	280.86
695.66	175.54
695.80	266.82
695.93	196.60
696.07	191.92
696.20	252.78
696.33	271.50
696.47	327.68
696.60	327.68
696.73	311.29
696.87	222.35
697.00	210.65
697.14	210.65
697.27	114.69
697.40	241.08
697.54	224.69
697.67	107.66
697.80	215.33
697.94	177.88
698.07	163.84
698.21	159.16
698.34	255.12
698.47	210.65
698.61	191.92
698.74	187.24
698.87	215.33
699.01	114.69
699.14	140.43
699.27	215.33
699.40	313.63
699.54	210.65
699.67	187.24
699.80	210.65
699.94	159.16
700.07	283.20
700.20	114.69
700.34	168.52
700.47	189.58
700.60	145.11
700.73	196.60
700.87	217.67
701.00	222.35
701.13	140.43
701.26	255.12
701.40	196.60
701.53	255.12
701.66	220.01
701.79	184.90
701.93	234.05
702.06	147.45
702.19	259.80
702.32	220.01
702.46	234.05
702.59	177.88
702.72	126.39
702.85	280.86
702.99	140.43
703.12	301.93
703.25	269.16
703.38	271.50
703.51	313.63
703.65	255.12
703.78	344.06
703.91	322.99
704.04	283.20
704.17	210.65
704.31	255.12
704.44	344.06
704.57	330.02
704.70	407.25
704.83	404.91
704.96	425.98
705.10	379.17
705.23	390.87
>>>>>End Processed Spectral Data<<<<<
