SpectraSuite Data File
++++++++++++++++++++++++++++++++++++
Date: Fri Oct 04 11:41:56 GMT-05:00 2013
User: price-jones
Dark Spectrum Present: No
Reference Spectrum Present: No
Number of Sampled Component Spectra: 1
Spectrometers: USB2+H05261
Integration Time (usec): 100000 (USB2+H05261)
Spectra Averaged: 1 (USB2+H05261)
Boxcar Smoothing: 0 (USB2+H05261)
Correct for Electrical Dark: No (USB2+H05261)
Strobe/Lamp Enabled: No (USB2+H05261)
Correct for Detector Non-linearity: No (USB2+H05261)
Correct for Stray Light: No (USB2+H05261)
Number of Pixels in Processed Spectrum: 2048
>>>>>Begin Processed Spectral Data<<<<<
365.73	84.26
365.92	84.26
366.12	84.26
366.32	0.00
366.52	0.00
366.72	0.00
366.91	0.00
367.11	0.00
367.31	0.00
367.51	0.00
367.70	0.00
367.90	0.00
368.10	0.00
368.30	0.00
368.49	0.00
368.69	0.00
368.89	0.00
369.09	0.00
369.28	4.68
369.48	39.79
369.68	0.00
369.87	18.72
370.07	0.00
370.27	14.04
370.47	0.00
370.66	21.06
370.86	46.81
371.06	53.83
371.25	81.92
371.45	74.90
371.65	128.73
371.84	95.96
372.04	51.49
372.24	84.26
372.44	110.01
372.63	128.73
372.83	145.11
373.03	91.28
373.22	147.45
373.42	168.52
373.62	138.09
373.81	177.88
374.01	196.60
374.21	140.43
374.40	67.88
374.60	156.82
374.79	166.18
374.99	140.43
375.19	145.11
375.38	63.19
375.58	79.58
375.78	140.43
375.97	159.16
376.17	262.14
376.37	119.37
376.56	70.22
376.76	93.62
376.95	44.47
377.15	79.58
377.35	147.45
377.54	191.92
377.74	138.09
377.93	95.96
378.13	60.85
378.33	147.45
378.52	46.81
378.72	149.79
378.91	145.11
379.11	189.58
379.31	170.86
379.50	107.66
379.70	135.75
379.89	156.82
380.09	44.47
380.28	163.84
380.48	105.32
380.68	159.16
380.87	149.79
381.07	205.97
381.26	255.12
381.46	102.98
381.65	63.19
381.85	39.79
382.04	119.37
382.24	147.45
382.43	131.07
382.63	117.03
382.83	173.20
383.02	168.52
383.22	133.41
383.41	102.98
383.61	175.54
383.80	95.96
384.00	184.90
384.19	149.79
384.39	166.18
384.58	170.86
384.78	133.41
384.97	182.56
385.17	105.32
385.36	152.13
385.56	84.26
385.75	88.94
385.95	145.11
386.14	84.26
386.34	124.05
386.53	161.50
386.72	81.92
386.92	161.50
387.11	98.30
387.31	95.96
387.50	93.62
387.70	119.37
387.89	154.48
388.09	79.58
388.28	156.82
388.48	107.66
388.67	177.88
388.86	119.37
389.06	131.07
389.25	175.54
389.45	184.90
389.64	128.73
389.84	156.82
390.03	81.92
390.22	203.63
390.42	114.69
390.61	121.71
390.81	147.45
391.00	184.90
391.19	189.58
391.39	187.24
391.58	74.90
391.78	135.75
391.97	100.64
392.16	138.09
392.36	184.90
392.55	154.48
392.75	124.05
392.94	98.30
393.13	177.88
393.33	168.52
393.52	149.79
393.71	126.39
393.91	107.66
394.10	79.58
394.29	77.24
394.49	154.48
394.68	131.07
394.88	166.18
395.07	147.45
395.26	133.41
395.46	114.69
395.65	135.75
395.84	145.11
396.04	271.50
396.23	84.26
396.42	84.26
396.62	79.58
396.81	124.05
397.00	126.39
397.19	138.09
397.39	124.05
397.58	182.56
397.77	74.90
397.97	126.39
398.16	198.95
398.35	142.77
398.55	119.37
398.74	128.73
398.93	145.11
399.12	98.30
399.32	184.90
399.51	128.73
399.70	257.46
399.90	182.56
400.09	180.22
400.28	210.65
400.47	102.98
400.67	138.09
400.86	159.16
401.05	147.45
401.24	208.31
401.44	117.03
401.63	166.18
401.82	231.71
402.01	203.63
402.21	163.84
402.40	224.69
402.59	227.03
402.78	245.76
402.97	222.35
403.17	287.89
403.36	278.52
403.55	337.04
403.74	772.38
403.93	2298.41
404.13	5823.25
404.32	9820.89
404.51	10670.50
404.70	7019.27
404.89	2492.67
405.09	711.52
405.28	362.78
405.47	227.03
405.66	252.78
405.85	269.16
406.05	224.69
406.24	250.44
406.43	184.90
406.62	229.37
406.81	318.31
407.00	339.38
407.20	690.46
407.39	1207.72
407.58	1490.92
407.77	1299.00
407.96	674.07
408.15	287.89
408.34	217.67
408.54	187.24
408.73	208.31
408.92	175.54
409.11	241.08
409.30	135.75
409.49	222.35
409.68	220.01
409.87	175.54
410.07	306.61
410.26	259.80
410.45	177.88
410.64	224.69
410.83	252.78
411.02	198.95
411.21	245.76
411.40	236.39
411.59	252.78
411.78	170.86
411.98	250.44
412.17	191.92
412.36	257.46
412.55	266.82
412.74	269.16
412.93	306.61
413.12	285.55
413.31	255.12
413.50	269.16
413.69	292.57
413.88	308.95
414.07	241.08
414.26	252.78
414.45	273.84
414.64	262.14
414.83	278.52
415.02	290.23
415.22	280.86
415.41	315.97
415.60	212.99
415.79	304.27
415.98	294.91
416.17	301.93
416.36	383.85
416.55	315.97
416.74	358.10
416.93	308.95
417.12	280.86
417.31	308.95
417.50	290.23
417.69	404.91
417.88	320.65
418.07	311.29
418.26	276.18
418.45	308.95
418.64	374.49
418.83	332.36
419.02	341.72
419.21	330.02
419.39	388.53
419.58	311.29
419.77	327.68
419.96	383.85
420.15	297.25
420.34	353.42
420.53	315.97
420.72	369.80
420.91	404.91
421.10	301.93
421.29	379.17
421.48	322.99
421.67	278.52
421.86	362.78
422.05	287.89
422.24	374.49
422.43	334.70
422.61	355.76
422.80	386.19
422.99	386.19
423.18	355.76
423.37	433.00
423.56	367.46
423.75	362.78
423.94	369.80
424.13	390.87
424.32	372.15
424.50	339.38
424.69	397.89
424.88	369.80
425.07	433.00
425.26	451.72
425.45	346.40
425.64	362.78
425.83	444.70
426.01	430.66
426.20	421.30
426.39	440.02
426.58	376.83
426.77	543.00
426.96	503.22
427.15	388.53
427.33	369.80
427.52	484.49
427.71	456.40
427.90	376.83
428.09	437.68
428.28	383.85
428.46	482.15
428.65	472.79
428.84	435.34
429.03	519.60
429.22	486.83
429.40	411.93
429.59	409.59
429.78	428.32
429.97	456.40
430.16	404.91
430.34	447.04
430.53	479.81
430.72	498.53
430.91	524.28
431.10	449.38
431.28	498.53
431.47	552.37
431.66	477.47
431.85	528.96
432.03	458.74
432.22	524.28
432.41	559.39
432.60	615.56
432.79	566.41
432.97	543.00
433.16	631.94
433.35	697.48
433.54	828.55
433.72	947.92
433.91	912.81
434.10	896.43
434.28	1111.75
434.47	1401.98
434.66	1577.52
434.85	1664.12
435.03	3740.18
435.22	13963.64
435.41	36112.13
435.59	50862.18
435.78	41361.95
435.97	17930.84
436.16	6612.01
436.34	2169.68
436.53	1284.95
436.72	1015.79
436.90	861.32
437.09	678.76
437.28	716.20
437.46	636.63
437.65	734.93
437.84	746.63
438.02	662.37
438.21	690.46
438.40	603.86
438.58	671.73
438.77	662.37
438.96	709.18
439.14	528.96
439.33	559.39
439.52	608.54
439.70	545.34
439.89	674.07
440.08	638.97
440.26	608.54
440.45	645.99
440.63	617.90
440.82	596.84
441.01	650.67
441.19	580.45
441.38	599.18
441.57	620.24
441.75	629.60
441.94	571.09
442.12	636.63
442.31	636.63
442.50	599.18
442.68	664.71
442.87	643.65
443.05	608.54
443.24	566.41
443.43	657.69
443.61	608.54
443.80	603.86
443.98	615.56
444.17	535.98
444.35	615.56
444.54	580.45
444.73	580.45
444.91	615.56
445.10	629.60
445.28	603.86
445.47	538.32
445.65	648.33
445.84	627.26
446.02	603.86
446.21	667.05
446.39	545.34
446.58	599.18
446.77	636.63
446.95	606.20
447.14	603.86
447.32	657.69
447.51	580.45
447.69	566.41
447.88	613.22
448.06	664.71
448.25	580.45
448.43	484.49
448.62	578.11
448.80	561.73
448.99	568.75
449.17	580.45
449.36	599.18
449.54	575.77
449.73	557.05
449.91	706.84
450.10	594.50
450.28	650.67
450.46	664.71
450.65	627.26
450.83	603.86
451.02	648.33
451.20	573.43
451.39	575.77
451.57	475.13
451.76	592.16
451.94	559.39
452.13	580.45
452.31	683.44
452.49	631.94
452.68	664.71
452.86	645.99
453.05	603.86
453.23	622.58
453.42	627.26
453.60	608.54
453.78	571.09
453.97	479.81
454.15	552.37
454.34	550.03
454.52	580.45
454.70	648.33
454.89	589.82
455.07	573.43
455.26	603.86
455.44	599.18
455.62	608.54
455.81	580.45
455.99	517.26
456.17	657.69
456.36	617.90
456.54	601.52
456.73	620.24
456.91	606.20
457.09	524.28
457.28	526.62
457.46	580.45
457.64	578.11
457.83	512.58
458.01	517.26
458.19	557.05
458.38	585.13
458.56	568.75
458.74	596.84
458.93	622.58
459.11	667.05
459.29	550.03
459.48	571.09
459.66	547.69
459.84	634.29
460.03	741.95
460.21	720.88
460.39	561.73
460.57	566.41
460.76	587.47
460.94	620.24
461.12	610.88
461.31	636.63
461.49	571.09
461.67	589.82
461.85	507.90
462.04	540.66
462.22	1018.13
462.40	535.98
462.59	568.75
462.77	587.47
462.95	514.92
463.13	578.11
463.32	603.86
463.50	627.26
463.68	510.24
463.86	538.32
464.05	484.49
464.23	657.69
464.41	655.35
464.59	582.79
464.78	620.24
464.96	533.64
465.14	599.18
465.32	554.71
465.50	500.87
465.69	582.79
465.87	547.69
466.05	517.26
466.23	510.24
466.41	521.94
466.60	528.96
466.78	587.47
466.96	603.86
467.14	664.71
467.32	603.86
467.51	653.01
467.69	559.39
467.87	557.05
468.05	528.96
468.23	517.26
468.41	589.82
468.60	557.05
468.78	526.62
468.96	510.24
469.14	531.30
469.32	552.37
469.50	418.96
469.69	585.13
469.87	486.83
470.05	449.38
470.23	500.87
470.41	472.79
470.59	535.98
470.77	512.58
470.95	517.26
471.14	571.09
471.32	550.03
471.50	615.56
471.68	500.87
471.86	533.64
472.04	540.66
472.22	524.28
472.40	484.49
472.58	526.62
472.77	568.75
472.95	550.03
473.13	547.69
473.31	547.69
473.49	505.56
473.67	503.22
473.85	503.22
474.03	594.50
474.21	601.52
474.39	580.45
474.57	603.86
474.75	533.64
474.93	573.43
475.12	472.79
475.30	571.09
475.48	533.64
475.66	589.82
475.84	503.22
476.02	550.03
476.20	550.03
476.38	498.53
476.56	650.67
476.74	521.94
476.92	538.32
477.10	582.79
477.28	643.65
477.46	550.03
477.64	624.92
477.82	589.82
478.00	638.97
478.18	660.03
478.36	641.31
478.54	603.86
478.72	643.65
478.90	718.54
479.08	650.67
479.26	734.93
479.44	734.93
479.62	664.71
479.80	723.23
479.98	802.80
480.16	898.77
480.34	844.93
480.52	877.70
480.70	924.51
480.88	877.70
481.06	976.00
481.24	898.77
481.41	1111.75
481.59	1055.58
481.77	1212.40
481.95	1306.02
482.13	1350.49
482.31	1355.17
482.49	1474.54
482.67	1732.00
482.85	1743.70
483.03	1858.39
483.21	1923.92
483.39	2099.46
483.57	2216.49
483.74	2478.63
483.92	2466.92
484.10	2520.76
484.28	2909.29
484.46	2986.52
484.64	3159.72
484.82	3225.26
485.00	3358.67
485.18	3730.81
485.35	3686.34
485.53	4077.21
485.71	4372.12
485.89	4414.25
486.07	4521.92
486.25	4643.62
486.43	4596.81
486.61	4521.92
486.78	4603.83
486.96	4559.36
487.14	4704.48
487.32	4437.66
487.50	4601.49
487.68	4535.96
487.85	4470.42
488.03	4486.81
488.21	4353.40
488.39	4306.59
488.57	4109.98
488.75	4023.38
488.92	4184.88
489.10	3847.84
489.28	3691.02
489.46	3648.90
489.64	3590.38
489.81	3609.11
489.99	3499.10
490.17	3508.46
490.35	3609.11
490.53	3449.95
490.70	3330.58
490.88	3506.12
491.06	3606.77
491.24	3810.39
491.41	3936.78
491.59	3772.94
491.77	3478.04
491.95	3379.73
492.13	3272.07
492.30	3045.04
492.48	2974.82
492.66	2822.69
492.84	2918.65
493.01	2972.48
493.19	2925.67
493.37	2951.42
493.54	2860.13
493.72	2785.24
493.90	2827.37
494.08	2841.41
494.25	2555.86
494.43	2724.38
494.61	2829.71
494.79	2586.29
494.96	2572.25
495.14	2530.12
495.32	2373.30
495.49	2363.94
495.67	2370.96
495.85	2307.77
496.02	2293.72
496.20	2263.30
496.38	2225.85
496.55	2120.53
496.73	2195.42
496.91	2136.91
497.09	2174.36
497.26	1921.58
497.44	2040.95
497.62	1994.14
497.79	2040.95
497.97	1790.51
498.14	1849.02
498.32	1788.17
498.50	1769.44
498.67	1739.02
498.85	1734.34
499.03	1607.95
499.20	1624.33
499.38	1556.46
499.56	1561.14
499.73	1570.50
499.91	1533.05
500.08	1497.94
500.26	1430.07
500.44	1387.94
500.61	1299.00
500.79	1196.01
500.97	1331.76
501.14	1228.78
501.32	1207.72
501.49	1100.05
501.67	1172.61
501.84	1048.56
502.02	1076.65
502.20	1067.28
502.37	1102.39
502.55	915.15
502.72	887.06
502.90	849.61
503.07	851.96
503.25	854.30
503.43	849.61
503.60	800.46
503.78	788.76
503.95	833.23
504.13	840.25
504.30	826.21
504.48	767.70
504.65	802.80
504.83	784.08
505.01	734.93
505.18	692.80
505.36	732.59
505.53	741.95
505.71	695.14
505.88	741.95
506.06	660.03
506.23	660.03
506.41	601.52
506.58	641.31
506.76	648.33
506.93	671.73
507.11	634.29
507.28	636.63
507.46	596.84
507.63	554.71
507.81	533.64
507.98	613.22
508.16	608.54
508.33	606.20
508.50	615.56
508.68	645.99
508.85	645.99
509.03	622.58
509.20	662.37
509.38	592.16
509.55	641.31
509.73	552.37
509.90	676.41
510.08	603.86
510.25	543.00
510.42	470.45
510.60	547.69
510.77	554.71
510.95	557.05
511.12	571.09
511.30	559.39
511.47	489.17
511.64	629.60
511.82	573.43
511.99	592.16
512.17	505.56
512.34	505.56
512.51	538.32
512.69	538.32
512.86	582.79
513.04	477.47
513.21	580.45
513.38	517.26
513.56	566.41
513.73	543.00
513.90	390.87
514.08	489.17
514.25	430.66
514.43	468.11
514.60	388.53
514.77	421.30
514.95	437.68
515.12	470.45
515.29	407.25
515.47	435.34
515.64	447.04
515.81	472.79
515.99	486.83
516.16	491.51
516.33	514.92
516.51	543.00
516.68	407.25
516.85	404.91
517.03	451.72
517.20	418.96
517.37	477.47
517.54	381.51
517.72	489.17
517.89	374.49
518.06	397.89
518.24	505.56
518.41	479.81
518.58	475.13
518.75	437.68
518.93	388.53
519.10	437.68
519.27	486.83
519.45	463.43
519.62	409.59
519.79	400.23
519.96	435.34
520.14	397.89
520.31	416.62
520.48	447.04
520.65	447.04
520.83	433.00
521.00	430.66
521.17	475.13
521.34	386.19
521.52	365.12
521.69	379.17
521.86	461.09
522.03	425.98
522.20	461.09
522.38	379.17
522.55	383.85
522.72	397.89
522.89	440.02
523.07	449.38
523.24	409.59
523.41	355.76
523.58	376.83
523.75	451.72
523.92	470.45
524.10	437.68
524.27	390.87
524.44	458.74
524.61	454.06
524.78	369.80
524.96	451.72
525.13	514.92
525.30	547.69
525.47	500.87
525.64	447.04
525.81	479.81
525.98	545.34
526.16	526.62
526.33	489.17
526.50	386.19
526.67	500.87
526.84	547.69
527.01	496.19
527.18	564.07
527.36	613.22
527.53	624.92
527.70	645.99
527.87	561.73
528.04	592.16
528.21	543.00
528.38	575.77
528.55	678.76
528.72	531.30
528.89	674.07
529.07	622.58
529.24	631.94
529.41	589.82
529.58	585.13
529.75	629.60
529.92	571.09
530.09	655.35
530.26	746.63
530.43	699.82
530.60	704.50
530.77	645.99
530.94	685.78
531.11	718.54
531.28	690.46
531.46	884.72
531.63	826.21
531.80	805.14
531.97	961.96
532.14	997.07
532.31	1172.61
532.48	1418.36
532.65	1664.12
532.82	1837.32
532.99	2230.53
533.16	2616.72
533.33	2857.79
533.50	2642.46
533.67	2186.06
533.84	1905.20
534.01	1708.59
534.18	1535.39
534.35	1549.43
534.52	1509.65
534.69	1589.22
534.86	1647.74
535.03	1753.06
535.20	1769.44
535.37	1844.34
535.54	1947.33
535.71	2033.93
535.88	2195.42
536.05	2223.51
536.22	2504.37
536.38	2822.69
536.55	2913.97
536.72	3363.35
536.89	3592.72
537.06	3976.57
537.23	4592.13
537.40	5022.79
537.57	5420.68
537.74	5591.54
537.91	5949.64
538.08	6054.97
538.25	6279.66
538.42	6338.17
538.59	6450.52
538.75	6382.64
538.92	6839.05
539.09	7602.06
539.26	8376.78
539.43	9528.32
539.60	10813.28
539.77	12219.94
539.94	13935.55
540.11	15279.02
540.28	16912.71
540.44	18492.57
540.61	20437.56
540.78	23274.29
540.95	27615.98
541.12	33055.39
541.29	38550.96
541.46	41291.73
541.62	40662.13
541.79	39182.91
541.96	36165.96
542.13	33390.08
542.30	31075.29
542.47	29202.86
542.63	27470.87
542.80	26761.69
542.97	26251.45
543.14	26029.10
543.31	25984.63
543.48	26089.95
543.64	26876.37
543.81	26801.47
543.98	26855.31
544.15	27300.01
544.32	27611.30
544.48	27625.34
544.65	27260.22
544.82	26764.03
544.99	26462.10
545.16	27442.78
545.32	28264.31
545.49	40006.78
545.66	60470.08
545.83	65535.00
546.00	65535.00
546.16	62663.16
546.33	46394.10
546.50	36348.52
546.67	27953.02
546.83	24577.97
547.00	23726.01
547.17	22419.99
547.34	21603.14
547.50	20767.57
547.67	20025.62
547.84	19281.33
548.00	18677.48
548.17	17804.46
548.34	17153.79
548.51	16215.23
548.67	15744.78
548.84	14710.27
549.01	14415.36
549.18	13453.40
549.34	13114.02
549.51	12161.42
549.68	12212.92
549.84	11646.51
550.01	10911.58
550.18	10391.98
550.34	9996.43
550.51	9303.63
550.68	9039.15
550.84	8524.23
551.01	8142.72
551.18	7660.57
551.34	7330.56
551.51	7028.63
551.68	6810.96
551.84	6490.31
552.01	6146.25
552.18	5961.34
552.34	5858.36
552.51	5479.19
552.68	5123.43
552.84	4947.89
553.01	5001.72
553.18	4697.46
553.34	4491.49
553.51	4440.00
553.67	4304.25
553.84	4259.78
554.01	3920.40
554.17	3590.38
554.34	3318.88
554.51	3180.79
554.67	3108.23
554.84	2904.60
555.00	2619.06
555.17	2530.12
555.33	2368.62
555.50	2319.47
555.67	2202.44
555.83	2015.20
556.00	2003.50
556.16	2033.93
556.33	1926.26
556.50	1851.36
556.66	1809.23
556.83	1753.06
556.99	1659.44
557.16	1626.67
557.32	1556.46
557.49	1479.22
557.65	1427.73
557.82	1336.45
557.98	1378.58
558.15	1357.51
558.32	1303.68
558.48	1313.04
558.65	1245.16
558.81	1249.85
558.98	1165.59
559.14	1207.72
559.31	1210.06
559.47	1156.22
559.64	1076.65
559.80	1097.71
559.97	1039.20
560.13	1123.46
560.30	1102.39
560.46	1048.56
560.63	1039.20
560.79	1104.73
560.96	1074.31
561.12	1008.77
561.29	922.17
561.45	1020.47
561.61	1067.28
561.78	1116.44
561.94	1104.73
562.11	1043.88
562.27	1071.97
562.44	1053.24
562.60	945.58
562.77	957.28
562.93	933.87
563.10	1086.01
563.26	990.05
563.42	973.66
563.59	840.25
563.75	887.06
563.92	1001.75
564.08	856.64
564.24	873.02
564.41	863.66
564.57	809.83
564.74	851.96
564.90	830.89
565.07	814.51
565.23	863.66
565.39	765.36
565.56	847.27
565.72	840.25
565.88	795.78
566.05	809.83
566.21	805.14
566.38	814.51
566.54	823.87
566.70	765.36
566.87	812.17
567.03	744.29
567.19	842.59
567.36	842.59
567.52	828.55
567.68	835.57
567.85	767.70
568.01	856.64
568.17	842.59
568.34	849.61
568.50	847.27
568.66	856.64
568.83	880.04
568.99	739.61
569.15	938.55
569.32	786.42
569.48	709.18
569.64	732.59
569.81	730.25
569.97	678.76
570.13	706.84
570.30	613.22
570.46	617.90
570.62	550.03
570.78	535.98
570.95	482.15
571.11	596.84
571.27	648.33
571.43	545.34
571.60	582.79
571.76	575.77
571.92	559.39
572.09	500.87
572.25	620.24
572.41	566.41
572.57	545.34
572.74	634.29
572.90	653.01
573.06	606.20
573.22	650.67
573.38	690.46
573.55	617.90
573.71	739.61
573.87	613.22
574.03	624.92
574.20	716.20
574.36	678.76
574.52	758.33
574.68	823.87
574.84	856.64
575.01	772.38
575.17	908.13
575.33	896.43
575.49	903.45
575.65	1081.33
575.82	1069.62
575.98	1144.52
576.14	1392.62
576.30	2354.58
576.46	7169.06
576.62	15791.59
576.79	23452.17
576.95	15604.35
577.11	8931.48
577.27	6179.01
577.43	3957.85
577.59	2640.12
577.75	2104.14
577.92	1893.49
578.08	1696.89
578.24	1884.13
578.40	2855.45
578.56	6768.83
578.72	14476.21
578.88	22073.59
579.04	15489.67
579.21	8809.78
579.37	6415.41
579.53	4924.49
579.69	4489.15
579.85	5556.43
580.01	6949.05
580.17	7234.60
580.33	5994.11
580.49	5064.92
580.65	4510.21
580.82	3995.29
580.98	3845.50
581.14	3805.71
581.30	4044.45
581.46	4411.91
581.62	4758.31
581.78	5097.69
581.94	5781.12
582.10	5991.77
582.26	6345.19
582.42	6333.49
582.58	6640.10
582.74	6743.08
582.90	6644.78
583.06	6857.77
583.22	6825.00
583.38	6773.51
583.54	6724.36
583.70	6916.28
583.86	6607.33
584.02	6506.69
584.18	6317.11
584.34	6331.15
584.50	6235.19
584.66	6113.48
584.82	6139.23
584.98	6029.22
585.14	5860.70
585.30	5802.19
585.46	5813.89
585.62	5636.01
585.78	5533.03
585.94	5598.56
586.10	5753.04
586.26	5973.05
586.42	6789.89
586.58	7866.54
586.74	9554.07
586.90	11733.11
587.06	13975.34
587.22	13579.79
587.38	12248.02
587.54	10471.56
587.70	8919.78
587.86	7473.33
588.02	6359.24
588.18	5509.62
588.34	4973.64
588.49	4550.00
588.65	4376.80
588.81	4056.15
588.97	3786.99
589.13	3742.52
589.29	3819.75
589.45	3651.24
589.61	3602.08
589.77	3641.87
589.93	3899.33
590.08	3854.86
590.24	4009.34
590.40	4147.43
590.56	4341.69
590.72	4407.23
590.88	4437.66
591.04	4573.41
591.20	4739.58
591.35	4844.91
591.51	5057.90
591.67	5350.46
591.83	5643.03
591.99	6005.81
592.15	6588.61
592.31	7384.39
592.46	8074.85
592.62	8798.07
592.78	9205.33
592.94	9692.16
593.10	9628.96
593.26	9446.40
593.41	8578.06
593.57	7676.96
593.73	6750.10
593.89	6188.38
594.05	5266.21
594.20	4643.62
594.36	4201.26
594.52	4028.06
594.68	3779.97
594.84	3674.64
594.99	3517.83
595.15	3375.05
595.31	3368.03
595.47	3400.80
595.62	3248.66
595.78	3431.23
595.94	3405.48
596.10	3321.22
596.25	3290.79
596.41	3311.86
596.57	3335.26
596.73	3243.98
596.88	3283.77
597.04	3187.81
597.20	3201.85
597.36	3449.95
597.51	3566.98
597.67	3487.40
597.83	3822.09
597.99	4077.21
598.14	4290.20
598.30	4582.77
598.46	4650.64
598.61	5088.32
598.77	5298.97
598.93	5481.53
599.09	5544.73
599.24	5621.97
599.40	5996.45
599.56	5680.48
599.71	5331.74
599.87	4870.65
600.03	4891.72
600.18	4411.91
600.34	4215.30
600.50	3904.01
600.65	3578.68
600.81	3576.34
600.97	3229.94
601.12	3066.10
601.28	2881.20
601.44	2773.53
601.59	2656.51
601.75	2530.12
601.91	2511.39
602.06	2284.36
602.22	2413.09
602.37	2181.38
602.53	2209.47
602.69	2111.16
602.84	2090.10
603.00	2118.18
603.16	2150.95
603.31	2207.13
603.47	2307.77
603.62	2279.68
603.78	2312.45
603.94	2450.54
604.09	2452.88
604.25	2438.84
604.40	2499.69
604.56	2576.93
604.71	2672.89
604.87	2689.28
605.03	2684.59
605.18	2752.47
605.34	2726.72
605.49	2834.39
605.65	2906.95
605.80	2974.82
605.96	3117.59
606.12	3318.88
606.27	3368.03
606.43	3566.98
606.58	3585.70
606.74	3831.46
606.89	3999.98
607.05	4152.11
607.20	4425.95
607.36	4676.39
607.51	4901.08
607.67	5366.85
607.82	5511.96
607.98	6052.63
608.13	6382.64
608.29	7080.12
608.44	7639.51
608.60	8262.09
608.75	9029.79
608.91	10033.88
609.06	10934.98
609.22	11878.22
609.37	13209.98
609.53	15061.35
609.68	16992.29
609.84	19419.42
609.99	22572.13
610.15	26913.82
610.30	32582.60
610.46	40898.52
610.61	50719.41
610.76	58403.39
610.92	63681.30
611.07	65535.00
611.23	65535.00
611.38	65535.00
611.54	64540.27
611.69	60360.08
611.84	55309.20
612.00	49460.20
612.15	42171.77
612.31	36844.71
612.46	32914.95
612.62	30333.34
612.77	28996.90
612.92	27494.27
613.08	25727.17
613.23	24226.89
613.39	23616.01
613.54	22515.95
613.69	21823.16
613.85	21668.68
614.00	21921.46
614.15	21846.56
614.31	21301.22
614.46	21247.38
614.62	19843.06
614.77	19119.84
614.92	17998.72
615.08	16741.85
615.23	15393.70
615.38	14087.68
615.54	12599.10
615.69	12020.99
615.84	10904.56
616.00	10143.88
616.15	9100.00
616.30	8697.43
616.46	8250.39
616.61	7510.78
616.76	7311.83
616.92	6780.53
617.07	6537.12
617.22	6097.10
617.37	5767.08
617.53	5504.94
617.68	5280.25
617.83	4985.34
617.99	4917.47
618.14	4851.93
618.29	4727.88
618.45	4587.45
618.60	4514.89
618.75	4432.97
618.90	4421.27
619.06	4346.37
619.21	4234.03
619.36	4318.29
619.51	4159.13
619.67	4386.16
619.82	4381.48
619.97	4294.88
620.12	4470.42
620.28	4648.30
620.43	4657.67
620.58	4678.73
620.73	4669.37
620.89	4844.91
621.04	4809.80
621.19	4676.39
621.34	4739.58
621.49	4603.83
621.65	4454.04
621.80	4493.83
621.95	4545.32
622.10	4468.08
622.25	4578.09
622.41	4580.43
622.56	4641.28
622.71	4849.59
622.86	5004.07
623.01	4835.55
623.16	5093.01
623.32	4938.53
623.47	5025.13
623.62	5085.98
623.77	5081.30
623.92	5032.15
624.07	4978.32
624.23	5198.33
624.38	5069.60
624.53	5205.35
624.68	5273.23
624.83	5249.82
624.98	5174.92
625.13	5275.57
625.29	5277.91
625.44	5345.78
625.59	5165.56
625.74	5266.21
625.89	5284.93
626.04	5228.76
626.19	5420.68
626.34	5205.35
626.49	5380.89
626.65	5214.71
626.80	5081.30
626.95	5298.97
627.10	5062.58
627.25	5027.47
627.40	4959.60
627.55	4851.93
627.70	4795.76
627.85	4547.66
628.00	4812.14
628.15	4524.26
628.30	4631.92
628.45	4669.37
628.60	4704.48
628.76	4753.63
628.91	4671.71
629.06	4620.22
629.21	4821.50
629.36	4990.02
629.51	5083.64
629.66	5385.57
629.81	5682.82
629.96	6143.91
630.11	6717.34
630.26	7442.90
630.41	8454.02
630.56	9315.33
630.71	10232.82
630.86	10616.67
631.01	10349.85
631.16	9614.92
631.31	8379.12
631.46	7169.06
631.61	6083.05
631.76	5181.95
631.91	4524.26
632.06	3468.67
632.21	3115.25
632.36	2724.38
632.51	2429.48
632.66	2197.76
632.81	1954.35
632.96	1935.62
633.10	1757.74
633.25	1713.27
633.40	1710.93
633.55	1626.67
633.70	1596.25
633.85	1462.83
634.00	1420.71
634.15	1519.01
634.30	1434.75
634.45	1399.64
634.60	1409.00
634.75	1359.85
634.90	1308.36
635.05	1315.38
635.19	1303.68
635.34	1167.93
635.49	1240.48
635.64	1235.80
635.79	1128.14
635.94	1174.95
636.09	1160.91
636.24	1144.52
636.39	1104.73
636.53	1125.80
636.68	1109.41
636.83	1022.81
636.98	1095.37
637.13	945.58
637.28	1025.15
637.43	1060.26
637.57	1074.31
637.72	971.32
637.87	1050.90
638.02	917.49
638.17	922.17
638.32	952.60
638.46	919.83
638.61	980.68
638.76	835.57
638.91	861.32
639.06	863.66
639.20	952.60
639.35	851.96
639.50	947.92
639.65	861.32
639.80	786.42
639.94	940.90
640.09	945.58
640.24	912.81
640.39	873.02
640.54	765.36
640.68	823.87
640.83	800.46
640.98	753.65
641.13	854.30
641.27	868.34
641.42	912.81
641.57	936.21
641.72	793.44
641.86	849.61
642.01	840.25
642.16	889.40
642.31	863.66
642.45	866.00
642.60	849.61
642.75	802.80
642.90	915.15
643.04	823.87
643.19	788.76
643.34	842.59
643.48	880.04
643.63	868.34
643.78	952.60
643.93	901.11
644.07	870.68
644.22	910.47
644.37	793.44
644.51	851.96
644.66	896.43
644.81	826.21
644.95	763.01
645.10	814.51
645.25	847.27
645.39	873.02
645.54	793.44
645.69	807.48
645.83	758.33
645.98	849.61
646.13	833.23
646.27	858.98
646.42	758.33
646.57	866.00
646.71	770.04
646.86	737.27
647.00	746.63
647.15	851.96
647.30	741.95
647.44	788.76
647.59	840.25
647.74	777.06
647.88	765.36
648.03	784.08
648.17	823.87
648.32	875.36
648.47	877.70
648.61	842.59
648.76	805.14
648.90	1008.77
649.05	1001.75
649.20	994.73
649.34	1043.88
649.49	1149.20
649.63	1336.45
649.78	1589.22
649.92	1853.70
650.07	2317.13
650.21	2581.61
650.36	2761.83
650.51	2792.26
650.65	2686.94
650.80	2401.39
650.94	2244.57
651.09	1872.43
651.23	1767.10
651.38	1526.03
651.52	1399.64
651.67	1259.21
651.81	1287.29
651.96	1139.84
652.10	1102.39
652.25	1083.67
652.39	1156.22
652.54	1170.27
652.68	1256.87
652.83	1277.93
652.97	1392.62
653.12	1455.81
653.26	1299.00
653.41	1425.39
653.55	1219.42
653.70	1022.81
653.84	1046.22
653.99	1006.43
654.13	954.94
654.27	947.92
654.42	873.02
654.56	950.26
654.71	809.83
654.85	823.87
655.00	772.38
655.14	791.10
655.29	770.04
655.43	716.20
655.57	751.31
655.72	723.23
655.86	725.57
656.01	793.44
656.15	739.61
656.30	800.46
656.44	734.93
656.58	798.12
656.73	753.65
656.87	765.36
657.01	744.29
657.16	875.36
657.30	868.34
657.45	966.64
657.59	933.87
657.73	1025.15
657.88	985.37
658.02	983.02
658.16	842.59
658.31	847.27
658.45	795.78
658.60	713.86
658.74	653.01
658.88	585.13
659.03	650.67
659.17	655.35
659.31	578.11
659.46	564.07
659.60	596.84
659.74	566.41
659.89	554.71
660.03	568.75
660.17	582.79
660.32	566.41
660.46	599.18
660.60	557.05
660.74	517.26
660.89	657.69
661.03	697.48
661.17	631.94
661.32	725.57
661.46	819.19
661.60	894.08
661.74	1118.78
661.89	1336.45
662.03	1533.05
662.17	1626.67
662.31	1736.68
662.46	1638.38
662.60	1577.52
662.74	1444.11
662.88	1345.81
663.03	1097.71
663.17	1001.75
663.31	1029.84
663.45	922.17
663.60	802.80
663.74	882.38
663.88	744.29
664.02	723.23
664.17	695.14
664.31	695.14
664.45	528.96
664.59	599.18
664.73	517.26
664.88	571.09
665.02	521.94
665.16	571.09
665.30	582.79
665.44	641.31
665.59	554.71
665.73	552.37
665.87	540.66
666.01	587.47
666.15	538.32
666.29	603.86
666.44	585.13
666.58	585.13
666.72	498.53
666.86	601.52
667.00	545.34
667.14	547.69
667.28	582.79
667.43	528.96
667.57	526.62
667.71	561.73
667.85	594.50
667.99	587.47
668.13	449.38
668.27	575.77
668.41	543.00
668.56	561.73
668.70	517.26
668.84	531.30
668.98	545.34
669.12	538.32
669.26	465.77
669.40	568.75
669.54	477.47
669.68	486.83
669.82	423.64
669.96	418.96
670.10	433.00
670.25	458.74
670.39	507.90
670.53	442.36
670.67	449.38
670.81	531.30
670.95	568.75
671.09	538.32
671.23	589.82
671.37	491.51
671.51	510.24
671.65	528.96
671.79	456.40
671.93	557.05
672.07	559.39
672.21	531.30
672.35	444.70
672.49	444.70
672.63	524.28
672.77	524.28
672.91	447.04
673.05	456.40
673.19	442.36
673.33	456.40
673.47	535.98
673.61	390.87
673.75	411.93
673.89	362.78
674.03	428.32
674.17	421.30
674.31	411.93
674.45	437.68
674.59	386.19
674.73	440.02
674.87	372.15
675.01	374.49
675.15	390.87
675.29	400.23
675.43	547.69
675.56	458.74
675.70	339.38
675.84	372.15
675.98	421.30
676.12	337.04
676.26	397.89
676.40	339.38
676.54	344.06
676.68	409.59
676.82	379.17
676.96	397.89
677.10	400.23
677.23	372.15
677.37	271.50
677.51	374.49
677.65	440.02
677.79	376.83
677.93	358.10
678.07	376.83
678.21	397.89
678.34	376.83
678.48	372.15
678.62	400.23
678.76	423.64
678.90	484.49
679.04	393.21
679.18	435.34
679.31	430.66
679.45	395.55
679.59	454.06
679.73	374.49
679.87	428.32
680.00	376.83
680.14	388.53
680.28	421.30
680.42	493.85
680.56	454.06
680.70	430.66
680.83	451.72
680.97	517.26
681.11	484.49
681.25	397.89
681.39	491.51
681.52	470.45
681.66	477.47
681.80	486.83
681.94	475.13
682.07	409.59
682.21	402.57
682.35	313.63
682.49	348.74
682.62	397.89
682.76	285.55
682.90	379.17
683.04	325.33
683.17	369.80
683.31	283.20
683.45	353.42
683.59	348.74
683.72	458.74
683.86	358.10
684.00	299.59
684.13	416.62
684.27	395.55
684.41	379.17
684.55	388.53
684.68	365.12
684.82	367.46
684.96	346.40
685.09	372.15
685.23	315.97
685.37	383.85
685.50	444.70
685.64	400.23
685.78	470.45
685.91	505.56
686.05	461.09
686.19	400.23
686.32	514.92
686.46	512.58
686.60	592.16
686.73	692.80
686.87	648.33
687.01	695.14
687.14	760.67
687.28	905.79
687.42	957.28
687.55	976.00
687.69	1043.88
687.82	938.55
687.96	877.70
688.10	994.73
688.23	912.81
688.37	873.02
688.50	772.38
688.64	730.25
688.78	685.78
688.91	613.22
689.05	545.34
689.18	543.00
689.32	454.06
689.46	409.59
689.59	454.06
689.73	365.12
689.86	374.49
690.00	276.18
690.13	290.23
690.27	358.10
690.41	351.08
690.54	479.81
690.68	545.34
690.81	409.59
690.95	444.70
691.08	344.06
691.22	306.61
691.35	201.29
691.49	283.20
691.62	259.80
691.76	311.29
691.89	374.49
692.03	252.78
692.16	269.16
692.30	234.05
692.43	269.16
692.57	283.20
692.70	280.86
692.84	355.76
692.97	372.15
693.11	383.85
693.24	442.36
693.38	643.65
693.51	709.18
693.65	851.96
693.78	798.12
693.92	819.19
694.05	676.41
694.19	566.41
694.32	592.16
694.45	484.49
694.59	493.85
694.72	292.57
694.86	339.38
694.99	325.33
695.13	297.25
695.26	241.08
695.39	177.88
695.53	299.59
695.66	262.14
695.80	285.55
695.93	180.22
696.07	198.95
696.20	278.52
696.33	245.76
696.47	287.89
696.60	264.48
696.73	255.12
696.87	269.16
697.00	299.59
697.14	262.14
697.27	201.29
697.40	203.63
697.54	283.20
697.67	194.26
697.80	191.92
697.94	138.09
698.07	194.26
698.21	168.52
698.34	271.50
698.47	166.18
698.61	212.99
698.74	187.24
698.87	257.46
699.01	217.67
699.14	252.78
699.27	280.86
699.40	325.33
699.54	203.63
699.67	117.03
699.80	138.09
699.94	182.56
700.07	229.37
700.20	201.29
700.34	154.48
700.47	140.43
700.60	224.69
700.73	198.95
700.87	259.80
701.00	290.23
701.13	241.08
701.26	271.50
701.40	220.01
701.53	224.69
701.66	308.95
701.79	212.99
701.93	252.78
702.06	278.52
702.19	180.22
702.32	259.80
702.46	243.42
702.59	210.65
702.72	222.35
702.85	231.71
702.99	243.42
703.12	234.05
703.25	308.95
703.38	299.59
703.51	299.59
703.65	271.50
703.78	301.93
703.91	318.31
704.04	337.04
704.17	374.49
704.31	397.89
704.44	325.33
704.57	351.08
704.70	365.12
704.83	332.36
704.96	409.59
705.10	475.13
705.23	411.93
>>>>>End Processed Spectral Data<<<<<
