SpectraSuite Data File
++++++++++++++++++++++++++++++++++++
Date: Fri Oct 04 11:41:50 GMT-05:00 2013
User: price-jones
Dark Spectrum Present: No
Reference Spectrum Present: No
Number of Sampled Component Spectra: 1
Spectrometers: USB2+H05261
Integration Time (usec): 100000 (USB2+H05261)
Spectra Averaged: 1 (USB2+H05261)
Boxcar Smoothing: 0 (USB2+H05261)
Correct for Electrical Dark: No (USB2+H05261)
Strobe/Lamp Enabled: No (USB2+H05261)
Correct for Detector Non-linearity: No (USB2+H05261)
Correct for Stray Light: No (USB2+H05261)
Number of Pixels in Processed Spectrum: 2048
>>>>>Begin Processed Spectral Data<<<<<
365.73	53.83
365.92	53.83
366.12	53.83
366.32	0.00
366.52	0.00
366.72	0.00
366.91	0.00
367.11	0.00
367.31	16.38
367.51	0.00
367.70	0.00
367.90	0.00
368.10	0.00
368.30	0.00
368.49	0.00
368.69	0.00
368.89	0.00
369.09	0.00
369.28	0.00
369.48	11.70
369.68	0.00
369.87	4.68
370.07	32.77
370.27	35.11
370.47	0.00
370.66	7.02
370.86	65.54
371.06	100.64
371.25	107.66
371.45	98.30
371.65	126.39
371.84	25.75
372.04	124.05
372.24	117.03
372.44	100.64
372.63	70.22
372.83	124.05
373.03	145.11
373.22	81.92
373.42	46.81
373.62	84.26
373.81	156.82
374.01	100.64
374.21	98.30
374.40	156.82
374.60	100.64
374.79	86.60
374.99	156.82
375.19	149.79
375.38	119.37
375.58	138.09
375.78	180.22
375.97	121.71
376.17	152.13
376.37	133.41
376.56	112.35
376.76	102.98
376.95	128.73
377.15	91.28
377.35	63.19
377.54	156.82
377.74	149.79
377.93	56.17
378.13	175.54
378.33	100.64
378.52	98.30
378.72	140.43
378.91	163.84
379.11	60.85
379.31	124.05
379.50	140.43
379.70	131.07
379.89	105.32
380.09	133.41
380.28	70.22
380.48	72.56
380.68	117.03
380.87	133.41
381.07	98.30
381.26	147.45
381.46	119.37
381.65	140.43
381.85	126.39
382.04	79.58
382.24	91.28
382.43	110.01
382.63	121.71
382.83	149.79
383.02	163.84
383.22	135.75
383.41	131.07
383.61	84.26
383.80	154.48
384.00	126.39
384.19	140.43
384.39	81.92
384.58	159.16
384.78	95.96
384.97	128.73
385.17	86.60
385.36	28.09
385.56	128.73
385.75	177.88
385.95	93.62
386.14	117.03
386.34	35.11
386.53	224.69
386.72	91.28
386.92	117.03
387.11	72.56
387.31	128.73
387.50	107.66
387.70	67.88
387.89	84.26
388.09	95.96
388.28	142.77
388.48	138.09
388.67	133.41
388.86	142.77
389.06	86.60
389.25	135.75
389.45	63.19
389.64	117.03
389.84	177.88
390.03	124.05
390.22	98.30
390.42	98.30
390.61	149.79
390.81	86.60
391.00	84.26
391.19	18.72
391.39	102.98
391.58	100.64
391.78	138.09
391.97	95.96
392.16	51.49
392.36	168.52
392.55	124.05
392.75	147.45
392.94	133.41
393.13	140.43
393.33	121.71
393.52	147.45
393.71	145.11
393.91	140.43
394.10	154.48
394.29	175.54
394.49	156.82
394.68	112.35
394.88	189.58
395.07	145.11
395.26	140.43
395.46	65.54
395.65	140.43
395.84	81.92
396.04	173.20
396.23	112.35
396.42	159.16
396.62	161.50
396.81	180.22
397.00	84.26
397.19	159.16
397.39	110.01
397.58	105.32
397.77	100.64
397.97	142.77
398.16	196.60
398.35	154.48
398.55	142.77
398.74	177.88
398.93	173.20
399.12	121.71
399.32	184.90
399.51	161.50
399.70	140.43
399.90	140.43
400.09	224.69
400.28	156.82
400.47	152.13
400.67	229.37
400.86	161.50
401.05	217.67
401.24	140.43
401.44	79.58
401.63	245.76
401.82	142.77
402.01	152.13
402.21	145.11
402.40	168.52
402.59	180.22
402.78	163.84
402.97	189.58
403.17	175.54
403.36	304.27
403.55	290.23
403.74	692.80
403.93	2062.01
404.13	4905.76
404.32	6595.63
404.51	5455.79
404.70	3393.78
404.89	1355.17
405.09	531.30
405.28	315.97
405.47	229.37
405.66	166.18
405.85	212.99
406.05	184.90
406.24	119.37
406.43	156.82
406.62	175.54
406.81	248.10
407.00	409.59
407.20	566.41
407.39	950.26
407.58	954.94
407.77	655.35
407.96	433.00
408.15	236.39
408.34	147.45
408.54	224.69
408.73	229.37
408.92	182.56
409.11	196.60
409.30	203.63
409.49	135.75
409.68	124.05
409.87	201.29
410.07	124.05
410.26	292.57
410.45	264.48
410.64	81.92
410.83	205.97
411.02	156.82
411.21	208.31
411.40	147.45
411.59	147.45
411.78	222.35
411.98	283.20
412.17	133.41
412.36	222.35
412.55	220.01
412.74	210.65
412.93	250.44
413.12	166.18
413.31	287.89
413.50	224.69
413.69	224.69
413.88	208.31
414.07	145.11
414.26	273.84
414.45	198.95
414.64	276.18
414.83	313.63
415.02	234.05
415.22	308.95
415.41	234.05
415.60	234.05
415.79	198.95
415.98	264.48
416.17	264.48
416.36	241.08
416.55	224.69
416.74	194.26
416.93	283.20
417.12	210.65
417.31	266.82
417.50	212.99
417.69	250.44
417.88	262.14
418.07	210.65
418.26	315.97
418.45	224.69
418.64	269.16
418.83	292.57
419.02	217.67
419.21	224.69
419.39	292.57
419.58	250.44
419.77	248.10
419.96	224.69
420.15	330.02
420.34	250.44
420.53	173.20
420.72	229.37
420.91	220.01
421.10	217.67
421.29	273.84
421.48	283.20
421.67	315.97
421.86	220.01
422.05	248.10
422.24	203.63
422.43	283.20
422.61	273.84
422.80	320.65
422.99	287.89
423.18	250.44
423.37	325.33
423.56	227.03
423.75	339.38
423.94	201.29
424.13	297.25
424.32	255.12
424.50	285.55
424.69	308.95
424.88	315.97
425.07	315.97
425.26	355.76
425.45	283.20
425.64	280.86
425.83	259.80
426.01	238.73
426.20	327.68
426.39	290.23
426.58	311.29
426.77	285.55
426.96	374.49
427.15	299.59
427.33	269.16
427.52	304.27
427.71	320.65
427.90	353.42
428.09	374.49
428.28	304.27
428.46	285.55
428.65	334.70
428.84	365.12
429.03	374.49
429.22	257.46
429.40	301.93
429.59	313.63
429.78	367.46
429.97	337.04
430.16	346.40
430.34	400.23
430.53	299.59
430.72	393.21
430.91	430.66
431.10	304.27
431.28	315.97
431.47	330.02
431.66	367.46
431.85	390.87
432.03	376.83
432.22	423.64
432.41	337.04
432.60	435.34
432.79	489.17
432.97	421.30
433.16	503.22
433.35	552.37
433.54	545.34
433.72	552.37
433.91	580.45
434.10	660.03
434.28	823.87
434.47	884.72
434.66	1018.13
434.85	1191.33
435.03	3428.88
435.22	12470.37
435.41	28861.15
435.59	29757.57
435.78	19199.41
435.97	9731.95
436.16	3730.81
436.34	1430.07
436.53	765.36
436.72	610.88
436.90	568.75
437.09	533.64
437.28	557.05
437.46	442.36
437.65	535.98
437.84	454.06
438.02	491.51
438.21	507.90
438.40	547.69
438.58	407.25
438.77	535.98
438.96	451.72
439.14	430.66
439.33	454.06
439.52	425.98
439.70	514.92
439.89	409.59
440.08	383.85
440.26	440.02
440.45	425.98
440.63	463.43
440.82	430.66
441.01	461.09
441.19	402.57
441.38	341.72
441.57	449.38
441.75	484.49
441.94	491.51
442.12	519.60
442.31	447.04
442.50	388.53
442.68	538.32
442.87	519.60
443.05	409.59
443.24	437.68
443.43	519.60
443.61	435.34
443.80	421.30
443.98	489.17
444.17	440.02
444.35	416.62
444.54	409.59
444.73	425.98
444.91	477.47
445.10	463.43
445.28	489.17
445.47	461.09
445.65	477.47
445.84	386.19
446.02	416.62
446.21	468.11
446.39	470.45
446.58	444.70
446.77	409.59
446.95	442.36
447.14	440.02
447.32	430.66
447.51	404.91
447.69	379.17
447.88	514.92
448.06	557.05
448.25	442.36
448.43	421.30
448.62	402.57
448.80	409.59
448.99	397.89
449.17	395.55
449.36	402.57
449.54	461.09
449.73	435.34
449.91	468.11
450.10	449.38
450.28	627.26
450.46	526.62
450.65	388.53
450.83	475.13
451.02	449.38
451.20	341.72
451.39	468.11
451.57	390.87
451.76	475.13
451.94	416.62
452.13	447.04
452.31	355.76
452.49	479.81
452.68	416.62
452.86	411.93
453.05	498.53
453.23	414.27
453.42	344.06
453.60	416.62
453.78	472.79
453.97	379.17
454.15	395.55
454.34	379.17
454.52	381.51
454.70	463.43
454.89	407.25
455.07	437.68
455.26	402.57
455.44	327.68
455.62	376.83
455.81	376.83
455.99	465.77
456.17	383.85
456.36	465.77
456.54	376.83
456.73	411.93
456.91	428.32
457.09	449.38
457.28	465.77
457.46	430.66
457.64	442.36
457.83	468.11
458.01	318.31
458.19	463.43
458.38	400.23
458.56	404.91
458.74	341.72
458.93	463.43
459.11	386.19
459.29	362.78
459.48	521.94
459.66	538.32
459.84	472.79
460.03	463.43
460.21	461.09
460.39	362.78
460.57	451.72
460.76	451.72
460.94	360.44
461.12	428.32
461.31	372.15
461.49	456.40
461.67	411.93
461.85	496.19
462.04	456.40
462.22	983.02
462.40	461.09
462.59	407.25
462.77	397.89
462.95	379.17
463.13	411.93
463.32	341.72
463.50	404.91
463.68	414.27
463.86	369.80
464.05	493.85
464.23	475.13
464.41	402.57
464.59	433.00
464.78	440.02
464.96	428.32
465.14	418.96
465.32	418.96
465.50	376.83
465.69	397.89
465.87	418.96
466.05	386.19
466.23	355.76
466.41	409.59
466.60	435.34
466.78	458.74
466.96	482.15
467.14	430.66
467.32	451.72
467.51	449.38
467.69	489.17
467.87	395.55
468.05	395.55
468.23	383.85
468.41	416.62
468.60	411.93
468.78	407.25
468.96	376.83
469.14	388.53
469.32	381.51
469.50	404.91
469.69	365.12
469.87	330.02
470.05	454.06
470.23	407.25
470.41	358.10
470.59	386.19
470.77	383.85
470.95	414.27
471.14	433.00
471.32	440.02
471.50	400.23
471.68	358.10
471.86	388.53
472.04	376.83
472.22	367.46
472.40	318.31
472.58	325.33
472.77	388.53
472.95	393.21
473.13	414.27
473.31	407.25
473.49	397.89
473.67	379.17
473.85	435.34
474.03	411.93
474.21	458.74
474.39	491.51
474.57	463.43
474.75	437.68
474.93	369.80
475.12	369.80
475.30	320.65
475.48	337.04
475.66	418.96
475.84	418.96
476.02	390.87
476.20	423.64
476.38	423.64
476.56	533.64
476.74	388.53
476.92	440.02
477.10	395.55
477.28	475.13
477.46	442.36
477.64	430.66
477.82	362.78
478.00	465.77
478.18	402.57
478.36	517.26
478.54	411.93
478.72	528.96
478.90	521.94
479.08	559.39
479.26	550.03
479.44	521.94
479.62	433.00
479.80	521.94
479.98	557.05
480.16	514.92
480.34	615.56
480.52	561.73
480.70	699.82
480.88	711.52
481.06	671.73
481.24	587.47
481.41	765.36
481.59	758.33
481.77	849.61
481.95	938.55
482.13	882.38
482.31	997.07
482.49	966.64
482.67	1123.46
482.85	1214.74
483.03	1177.29
483.21	1277.93
483.39	1458.15
483.57	1483.90
483.74	1598.59
483.92	1640.72
484.10	1715.61
484.28	1774.13
484.46	1973.07
484.64	1984.77
484.82	2260.96
485.00	2209.47
485.18	2420.11
485.35	2520.76
485.53	2649.49
485.71	2740.77
485.89	2825.03
486.07	2864.82
486.25	2946.73
486.43	3028.65
486.61	2911.63
486.78	2878.86
486.96	2857.79
487.14	2939.71
487.32	2834.39
487.50	2768.85
487.68	2787.58
487.85	2796.94
488.03	2792.26
488.21	2782.90
488.39	2628.42
488.57	2555.86
488.75	2534.80
488.92	2668.21
489.10	2506.71
489.28	2450.54
489.46	2387.35
489.64	2312.45
489.81	2345.22
489.99	2296.07
490.17	2256.28
490.35	2235.21
490.53	2244.57
490.70	2237.55
490.88	2207.13
491.06	2239.89
491.24	2499.69
491.41	2513.74
491.59	2392.03
491.77	2139.25
491.95	2092.44
492.13	2083.08
492.30	2101.80
492.48	1935.62
492.66	1970.73
492.84	1886.47
493.01	1853.70
493.19	1884.13
493.37	1961.37
493.54	1851.36
493.72	1886.47
493.90	1792.85
494.08	1699.23
494.25	1729.66
494.43	1664.12
494.61	1689.87
494.79	1582.20
494.96	1530.71
495.14	1586.88
495.32	1542.41
495.49	1687.53
495.67	1661.78
495.85	1507.30
496.02	1537.73
496.20	1519.01
496.38	1444.11
496.55	1399.64
496.73	1488.58
496.91	1401.98
497.09	1357.51
497.26	1345.81
497.44	1336.45
497.62	1294.32
497.79	1252.19
497.97	1231.12
498.14	1235.80
498.32	1240.48
498.50	1153.88
498.67	1104.73
498.85	1139.84
499.03	1086.01
499.20	1125.80
499.38	1123.46
499.56	1011.11
499.73	1062.60
499.91	1184.31
500.08	997.07
500.26	938.55
500.44	908.13
500.61	854.30
500.79	873.02
500.97	791.10
501.14	880.04
501.32	835.57
501.49	805.14
501.67	732.59
501.84	788.76
502.02	709.18
502.20	788.76
502.37	631.94
502.55	704.50
502.72	655.35
502.90	629.60
503.07	681.10
503.25	627.26
503.43	629.60
503.60	554.71
503.78	606.20
503.95	510.24
504.13	596.84
504.30	620.24
504.48	610.88
504.65	573.43
504.83	550.03
505.01	552.37
505.18	559.39
505.36	524.28
505.53	477.47
505.71	496.19
505.88	500.87
506.06	409.59
506.23	500.87
506.41	428.32
506.58	479.81
506.76	496.19
506.93	479.81
507.11	458.74
507.28	437.68
507.46	465.77
507.63	472.79
507.81	479.81
507.98	402.57
508.16	456.40
508.33	430.66
508.50	468.11
508.68	512.58
508.85	477.47
509.03	442.36
509.20	470.45
509.38	510.24
509.55	500.87
509.73	407.25
509.90	451.72
510.08	369.80
510.25	395.55
510.42	456.40
510.60	407.25
510.77	463.43
510.95	409.59
511.12	395.55
511.30	390.87
511.47	451.72
511.64	351.08
511.82	337.04
511.99	430.66
512.17	397.89
512.34	435.34
512.51	393.21
512.69	381.51
512.86	517.26
513.04	369.80
513.21	395.55
513.38	416.62
513.56	322.99
513.73	388.53
513.90	388.53
514.08	339.38
514.25	386.19
514.43	395.55
514.60	308.95
514.77	353.42
514.95	376.83
515.12	411.93
515.29	374.49
515.47	425.98
515.64	313.63
515.81	423.64
515.99	451.72
516.16	367.46
516.33	358.10
516.51	358.10
516.68	332.36
516.85	322.99
517.03	358.10
517.20	390.87
517.37	355.76
517.54	257.46
517.72	322.99
517.89	341.72
518.06	367.46
518.24	386.19
518.41	379.17
518.58	315.97
518.75	386.19
518.93	297.25
519.10	362.78
519.27	400.23
519.45	337.04
519.62	379.17
519.79	395.55
519.96	301.93
520.14	411.93
520.31	433.00
520.48	337.04
520.65	308.95
520.83	379.17
521.00	374.49
521.17	301.93
521.34	248.10
521.52	299.59
521.69	299.59
521.86	318.31
522.03	393.21
522.20	395.55
522.38	388.53
522.55	292.57
522.72	285.55
522.89	337.04
523.07	353.42
523.24	414.27
523.41	367.46
523.58	341.72
523.75	287.89
523.92	442.36
524.10	283.20
524.27	325.33
524.44	327.68
524.61	402.57
524.78	362.78
524.96	379.17
525.13	456.40
525.30	400.23
525.47	428.32
525.64	395.55
525.81	390.87
525.98	372.15
526.16	379.17
526.33	414.27
526.50	400.23
526.67	362.78
526.84	447.04
527.01	388.53
527.18	372.15
527.36	503.22
527.53	547.69
527.70	437.68
527.87	414.27
528.04	421.30
528.21	479.81
528.38	458.74
528.55	416.62
528.72	517.26
528.89	550.03
529.07	461.09
529.24	440.02
529.41	407.25
529.58	423.64
529.75	512.58
529.92	547.69
530.09	535.98
530.26	505.56
530.43	496.19
530.60	582.79
530.77	510.24
530.94	617.90
531.11	613.22
531.28	531.30
531.46	498.53
531.63	669.39
531.80	648.33
531.97	695.14
532.14	730.25
532.31	856.64
532.48	973.66
532.65	1181.97
532.82	1324.74
532.99	1483.90
533.16	1732.00
533.33	1722.63
533.50	1629.01
533.67	1554.12
533.84	1313.04
534.01	1118.78
534.18	1032.18
534.35	1083.67
534.52	1001.75
534.69	1125.80
534.86	1107.07
535.03	1109.41
535.20	1114.10
535.37	1284.95
535.54	1352.83
535.71	1296.66
535.88	1533.05
536.05	1488.58
536.22	1678.16
536.38	1844.34
536.55	1961.37
536.72	2193.08
536.89	2282.02
537.06	2621.40
537.23	2963.12
537.40	3412.50
537.57	3611.45
537.74	3786.99
537.91	3812.73
538.08	3808.05
538.25	4004.66
538.42	3777.62
538.59	4159.13
538.75	4084.23
538.92	4470.42
539.09	4903.42
539.26	5305.99
539.43	6146.25
539.60	6766.49
539.77	7688.66
539.94	8519.55
540.11	9509.60
540.28	10384.96
540.44	11585.65
540.61	12428.24
540.78	14731.33
540.95	17493.16
541.12	20739.49
541.29	23311.74
541.46	24327.53
541.62	24395.40
541.79	23056.62
541.96	21439.31
542.13	20039.67
542.30	18607.26
542.47	17769.35
542.63	16603.76
542.80	16093.52
542.97	15988.20
543.14	16084.16
543.31	15740.10
543.48	15510.73
543.64	16407.16
543.81	16271.40
543.98	16231.62
544.15	16386.09
544.32	16257.36
544.48	16463.33
544.65	16079.48
544.82	16229.27
544.99	16484.39
545.16	16430.56
545.32	17518.91
545.49	28741.78
545.66	52924.19
545.83	58946.39
546.00	54258.30
546.16	39056.52
546.33	29448.62
546.50	21818.47
546.67	17008.67
546.83	14658.78
547.00	13991.72
547.17	13586.81
547.34	12769.96
547.50	12540.59
547.67	12131.00
547.84	11592.67
548.00	10998.18
548.17	10780.51
548.34	10200.05
548.51	9837.27
548.67	9195.96
548.84	8912.76
549.01	8552.32
549.18	8145.06
549.34	7845.48
549.51	7515.46
549.68	7349.28
549.84	7101.19
550.01	6551.16
550.18	6361.58
550.34	6090.07
550.51	5696.86
550.68	5526.00
550.84	5114.07
551.01	4781.71
551.18	4709.16
551.34	4470.42
551.51	4449.36
551.68	4135.73
551.84	4025.72
552.01	3932.10
552.18	3733.15
552.34	3447.61
552.51	3372.71
552.68	3201.85
552.84	3227.60
553.01	3178.45
553.18	2981.84
553.34	2789.92
553.51	2850.77
553.67	2757.15
553.84	2544.16
554.01	2335.85
554.17	2291.38
554.34	2083.08
554.51	2106.48
554.67	1898.17
554.84	1797.53
555.00	1692.21
555.17	1568.16
555.33	1507.30
555.50	1458.15
555.67	1416.02
555.83	1373.89
556.00	1324.74
556.16	1432.41
556.33	1261.55
556.50	1212.40
556.66	1123.46
556.83	1179.63
556.99	1160.91
557.16	1135.16
557.32	1050.90
557.49	1036.86
557.65	1001.75
557.82	1006.43
557.98	877.70
558.15	856.64
558.32	954.94
558.48	819.19
558.65	833.23
558.81	896.43
558.98	840.25
559.14	851.96
559.31	821.53
559.47	781.74
559.64	809.83
559.80	826.21
559.97	753.65
560.13	788.76
560.30	692.80
560.46	690.46
560.63	739.61
560.79	706.84
560.96	655.35
561.12	746.63
561.29	753.65
561.45	765.36
561.61	711.52
561.78	833.23
561.94	699.82
562.11	690.46
562.27	739.61
562.44	674.07
562.60	627.26
562.77	690.46
562.93	781.74
563.10	690.46
563.26	669.39
563.42	664.71
563.59	613.22
563.75	648.33
563.92	643.65
564.08	594.50
564.24	629.60
564.41	648.33
564.57	594.50
564.74	589.82
564.90	674.07
565.07	641.31
565.23	571.09
565.39	571.09
565.56	545.34
565.72	517.26
565.88	594.50
566.05	557.05
566.21	571.09
566.38	547.69
566.54	674.07
566.70	559.39
566.87	545.34
567.03	587.47
567.19	608.54
567.36	641.31
567.52	589.82
567.68	671.73
567.85	634.29
568.01	498.53
568.17	585.13
568.34	601.52
568.50	653.01
568.66	585.13
568.83	685.78
568.99	622.58
569.15	489.17
569.32	543.00
569.48	557.05
569.64	498.53
569.81	468.11
569.97	477.47
570.13	526.62
570.30	519.60
570.46	435.34
570.62	360.44
570.78	479.81
570.95	475.13
571.11	547.69
571.27	543.00
571.43	433.00
571.60	376.83
571.76	491.51
571.92	374.49
572.09	414.27
572.25	526.62
572.41	400.23
572.57	493.85
572.74	435.34
572.90	491.51
573.06	512.58
573.22	451.72
573.38	428.32
573.55	465.77
573.71	582.79
573.87	507.90
574.03	444.70
574.20	477.47
574.36	505.56
574.52	512.58
574.68	535.98
574.84	538.32
575.01	641.31
575.17	655.35
575.33	587.47
575.49	683.44
575.65	669.39
575.82	779.40
575.98	926.85
576.14	957.28
576.30	1900.52
576.46	5841.98
576.62	10525.39
576.79	11644.17
576.95	8451.67
577.11	5497.92
577.27	3885.29
577.43	2597.99
577.59	1724.97
577.75	1310.70
577.92	1238.14
578.08	1294.32
578.24	1196.01
578.40	2057.33
578.56	5935.60
578.72	10078.35
578.88	10918.60
579.04	7892.29
579.21	5252.16
579.37	4044.45
579.53	3150.36
579.69	3145.68
579.85	3854.86
580.01	4355.74
580.17	4145.09
580.33	3576.34
580.49	3005.25
580.65	2733.75
580.82	2497.35
580.98	2389.69
581.14	2485.65
581.30	2593.31
581.46	2698.64
581.62	3009.93
581.78	3243.98
581.94	3433.57
582.10	3611.45
582.26	3866.56
582.42	3999.98
582.58	3983.59
582.74	4166.15
582.90	4119.34
583.06	4173.18
583.22	4081.89
583.38	4238.71
583.54	4191.90
583.70	4018.70
583.86	4114.66
584.02	4002.32
584.18	3899.33
584.34	3922.74
584.50	3969.55
584.66	3700.39
584.82	3646.55
584.98	3730.81
585.14	3492.08
585.30	3571.66
585.46	3590.38
585.62	3536.55
585.78	3499.10
585.94	3471.01
586.10	3536.55
586.26	3868.91
586.42	4278.50
586.58	5095.35
586.74	6256.25
586.90	7368.01
587.06	8229.32
587.22	8063.15
587.38	7066.08
587.54	6228.17
587.70	5334.08
587.86	4407.23
588.02	3873.59
588.18	3407.82
588.34	3035.67
588.49	2806.30
588.65	2724.38
588.81	2684.59
588.97	2434.16
589.13	2303.09
589.29	2324.15
589.45	2307.77
589.61	2242.23
589.77	2342.88
589.93	2382.67
590.08	2359.26
590.24	2572.25
590.40	2672.89
590.56	2661.19
590.72	2743.11
590.88	2710.34
591.04	2932.69
591.20	2825.03
591.35	3105.89
591.51	3150.36
591.67	3234.62
591.83	3534.21
591.99	3808.05
592.15	4014.02
592.31	4381.48
592.46	4980.66
592.62	5591.54
592.78	5678.14
592.94	5783.46
593.10	5837.30
593.26	5383.23
593.41	4922.15
593.57	4451.70
593.73	4011.68
593.89	3506.12
594.05	3117.59
594.20	2806.30
594.36	2567.57
594.52	2422.45
594.68	2366.28
594.84	2286.70
594.99	2230.53
595.15	2209.47
595.31	2111.16
595.47	2113.50
595.62	2167.34
595.78	2052.65
595.94	2132.23
596.10	2036.27
596.25	2160.31
596.41	2146.27
596.57	2188.40
596.73	2038.61
596.88	1930.94
597.04	2092.44
597.20	2136.91
597.36	2253.94
597.51	2225.85
597.67	2289.04
597.83	2370.96
597.99	2478.63
598.14	2537.14
598.30	2883.54
598.46	2956.10
598.61	3246.32
598.77	3124.62
598.93	3330.58
599.09	3426.54
599.24	3524.85
599.40	3524.85
599.56	3449.95
599.71	3122.27
599.87	2991.20
600.03	2836.73
600.18	2834.39
600.34	2513.74
600.50	2478.63
600.65	2188.40
600.81	2076.06
600.97	1930.94
601.12	1900.52
601.28	1919.24
601.44	1734.34
601.59	1568.16
601.75	1551.78
601.91	1570.50
602.06	1497.94
602.22	1469.86
602.37	1357.51
602.53	1345.81
602.69	1430.07
602.84	1277.93
603.00	1322.40
603.16	1462.83
603.31	1401.98
603.47	1404.32
603.62	1507.30
603.78	1575.18
603.94	1502.62
604.09	1598.59
604.25	1516.67
604.40	1558.80
604.56	1689.87
604.71	1706.25
604.87	1633.69
605.03	1682.85
605.18	1652.42
605.34	1806.89
605.49	1881.79
605.65	1891.15
605.80	1900.52
605.96	1987.11
606.12	2134.57
606.27	2118.18
606.43	2218.83
606.58	2193.08
606.74	2359.26
606.89	2452.88
607.05	2499.69
607.20	2649.49
607.36	2895.24
607.51	3066.10
607.67	3220.58
607.82	3454.63
607.98	3796.35
608.13	3950.82
608.29	4327.65
608.44	4713.84
608.60	5027.47
608.75	5617.29
608.91	6085.39
609.06	6682.23
609.22	7215.87
609.37	7878.24
609.53	8898.72
609.68	10298.36
609.84	11847.79
609.99	13743.63
610.15	16482.05
610.30	19999.88
610.46	25411.20
610.61	33331.57
610.76	42337.95
610.92	49759.79
611.07	54157.66
611.23	55044.72
611.38	53113.78
611.54	48563.78
611.69	41799.63
611.84	34836.53
612.00	29235.63
612.15	24542.86
612.31	21378.45
612.46	18939.62
612.62	17483.80
612.77	16503.12
612.92	15946.07
613.08	14899.85
613.23	14204.71
613.39	13432.33
613.54	13071.89
613.69	12877.63
613.85	12910.40
614.00	12730.17
614.15	12561.66
614.31	12294.83
614.46	12336.96
614.62	11676.93
614.77	11089.46
614.92	10593.26
615.08	9687.48
615.23	8938.51
615.38	8416.57
615.54	7517.80
615.69	6932.67
615.84	6356.90
616.00	6099.44
616.15	5385.57
616.30	5172.58
616.46	4896.40
616.61	4442.34
616.76	4402.55
616.92	3964.87
617.07	3847.84
617.22	3639.53
617.37	3541.23
617.53	3288.45
617.68	3225.26
617.83	2972.48
617.99	3129.30
618.14	3070.78
618.29	2904.60
618.45	2874.18
618.60	2679.91
618.75	2764.17
618.90	2698.64
619.06	2665.87
619.21	2708.00
619.36	2661.19
619.51	2532.46
619.67	2593.31
619.82	2719.70
619.97	2619.06
620.12	2745.45
620.28	2827.37
620.43	2808.64
620.58	2895.24
620.73	2871.84
620.89	2874.18
621.04	2860.13
621.19	2827.37
621.34	2871.84
621.49	2785.24
621.65	2682.25
621.80	2609.70
621.95	2736.09
622.10	2773.53
622.25	2700.98
622.41	2808.64
622.56	2935.03
622.71	2986.52
622.86	3023.97
623.01	2895.24
623.16	2963.12
623.32	3045.04
623.47	3180.79
623.62	3040.36
623.77	3176.11
623.92	3105.89
624.07	3007.59
624.23	3094.19
624.38	3119.93
624.53	3091.85
624.68	3124.62
624.83	3194.83
624.98	3248.66
625.13	3155.04
625.29	3124.62
625.44	3052.06
625.59	3061.42
625.74	3136.32
625.89	3129.30
626.04	3124.62
626.19	3131.64
626.34	3091.85
626.49	3187.81
626.65	3141.00
626.80	3117.59
626.95	3197.17
627.10	3000.57
627.25	2937.37
627.40	2850.77
627.55	2832.05
627.70	2970.14
627.85	2897.58
628.00	2862.48
628.15	2846.09
628.30	2853.11
628.45	2841.41
628.60	2750.13
628.76	2703.32
628.91	2822.69
629.06	2883.54
629.21	2822.69
629.36	2974.82
629.51	3005.25
629.66	3309.52
629.81	3318.88
629.96	3705.07
630.11	4077.21
630.26	4521.92
630.41	5093.01
630.56	5703.89
630.71	6139.23
630.86	6012.84
631.01	6115.82
631.16	5462.81
631.31	4938.53
631.46	4376.80
631.61	3602.08
631.76	3136.32
631.91	2473.95
632.06	2200.10
632.21	2003.50
632.36	1753.06
632.51	1565.82
632.66	1341.13
632.81	1310.70
632.96	1142.18
633.10	1165.59
633.25	1196.01
633.40	1032.18
633.55	1020.47
633.70	966.64
633.85	1057.92
634.00	910.47
634.15	875.36
634.30	849.61
634.45	940.90
634.60	821.53
634.75	802.80
634.90	823.87
635.05	875.36
635.19	835.57
635.34	830.89
635.49	758.33
635.64	767.70
635.79	777.06
635.94	720.88
636.09	793.44
636.24	755.99
636.39	681.10
636.53	746.63
636.68	718.54
636.83	662.37
636.98	767.70
637.13	671.73
637.28	671.73
637.43	622.58
637.57	594.50
637.72	704.50
637.87	603.86
638.02	629.60
638.17	655.35
638.32	716.20
638.46	631.94
638.61	655.35
638.76	568.75
638.91	564.07
639.06	550.03
639.20	533.64
639.35	587.47
639.50	575.77
639.65	538.32
639.80	468.11
639.94	641.31
640.09	627.26
640.24	610.88
640.39	608.54
640.54	533.64
640.68	545.34
640.83	479.81
640.98	550.03
641.13	599.18
641.27	610.88
641.42	554.71
641.57	613.22
641.72	507.90
641.86	547.69
642.01	552.37
642.16	594.50
642.31	571.09
642.45	575.77
642.60	571.09
642.75	582.79
642.90	543.00
643.04	622.58
643.19	552.37
643.34	545.34
643.48	606.20
643.63	575.77
643.78	582.79
643.93	561.73
644.07	594.50
644.22	575.77
644.37	500.87
644.51	552.37
644.66	657.69
644.81	636.63
644.95	599.18
645.10	585.13
645.25	587.47
645.39	653.01
645.54	587.47
645.69	627.26
645.83	564.07
645.98	596.84
646.13	543.00
646.27	585.13
646.42	454.06
646.57	547.69
646.71	521.94
646.86	531.30
647.00	533.64
647.15	559.39
647.30	554.71
647.44	451.72
647.59	503.22
647.74	545.34
647.88	493.85
648.03	489.17
648.17	559.39
648.32	545.34
648.47	559.39
648.61	517.26
648.76	594.50
648.90	568.75
649.05	538.32
649.20	653.01
649.34	807.48
649.49	685.78
649.63	915.15
649.78	1064.94
649.92	1193.67
650.07	1516.67
650.21	1607.95
650.36	1638.38
650.51	1657.10
650.65	1603.27
650.80	1423.05
650.94	1317.72
651.09	1177.29
651.23	1013.45
651.38	856.64
651.52	889.40
651.67	779.40
651.81	753.65
651.96	657.69
652.10	671.73
652.25	744.29
652.39	725.57
652.54	758.33
652.68	795.78
652.83	903.45
652.97	816.85
653.12	807.48
653.26	858.98
653.41	866.00
653.55	763.01
653.70	746.63
653.84	688.12
653.99	510.24
654.13	543.00
654.27	561.73
654.42	578.11
654.56	507.90
654.71	503.22
654.85	484.49
655.00	533.64
655.14	531.30
655.29	440.02
655.43	526.62
655.57	503.22
655.72	468.11
655.86	629.60
656.01	482.15
656.15	479.81
656.30	554.71
656.44	482.15
656.58	472.79
656.73	524.28
656.87	547.69
657.01	503.22
657.16	601.52
657.30	552.37
657.45	662.37
657.59	674.07
657.73	545.34
657.88	580.45
658.02	674.07
658.16	610.88
658.31	482.15
658.45	461.09
658.60	425.98
658.74	463.43
658.88	428.32
659.03	397.89
659.17	475.13
659.31	458.74
659.46	465.77
659.60	362.78
659.74	397.89
659.89	351.08
660.03	395.55
660.17	409.59
660.32	505.56
660.46	409.59
660.60	372.15
660.74	428.32
660.89	379.17
661.03	379.17
661.17	484.49
661.32	458.74
661.46	475.13
661.60	613.22
661.74	713.86
661.89	999.41
662.03	1053.24
662.17	1057.92
662.31	1109.41
662.46	1048.56
662.60	987.71
662.74	933.87
662.88	835.57
663.03	725.57
663.17	610.88
663.31	580.45
663.45	636.63
663.60	503.22
663.74	484.49
663.88	477.47
664.02	578.11
664.17	486.83
664.31	416.62
664.45	297.25
664.59	430.66
664.73	379.17
664.88	379.17
665.02	360.44
665.16	404.91
665.30	458.74
665.44	397.89
665.59	447.04
665.73	348.74
665.87	440.02
666.01	386.19
666.15	367.46
666.29	301.93
666.44	400.23
666.58	500.87
666.72	379.17
666.86	301.93
667.00	393.21
667.14	348.74
667.28	388.53
667.43	388.53
667.57	411.93
667.71	447.04
667.85	395.55
667.99	437.68
668.13	442.36
668.27	407.25
668.41	374.49
668.56	416.62
668.70	447.04
668.84	327.68
668.98	390.87
669.12	423.64
669.26	351.08
669.40	428.32
669.54	353.42
669.68	397.89
669.82	376.83
669.96	315.97
670.10	344.06
670.25	484.49
670.39	416.62
670.53	327.68
670.67	374.49
670.81	320.65
670.95	411.93
671.09	351.08
671.23	440.02
671.37	428.32
671.51	402.57
671.65	327.68
671.79	383.85
671.93	320.65
672.07	365.12
672.21	280.86
672.35	306.61
672.49	379.17
672.63	390.87
672.77	315.97
672.91	299.59
673.05	280.86
673.19	325.33
673.33	287.89
673.47	409.59
673.61	262.14
673.75	252.78
673.89	273.84
674.03	280.86
674.17	264.48
674.31	315.97
674.45	304.27
674.59	372.15
674.73	238.73
674.87	341.72
675.01	285.55
675.15	306.61
675.29	287.89
675.43	360.44
675.56	372.15
675.70	386.19
675.84	241.08
675.98	292.57
676.12	344.06
676.26	236.39
676.40	285.55
676.54	236.39
676.68	241.08
676.82	287.89
676.96	248.10
677.10	381.51
677.23	266.82
677.37	358.10
677.51	283.20
677.65	332.36
677.79	285.55
677.93	266.82
678.07	332.36
678.21	304.27
678.34	269.16
678.48	236.39
678.62	294.91
678.76	231.71
678.90	292.57
679.04	264.48
679.18	325.33
679.31	287.89
679.45	264.48
679.59	278.52
679.73	271.50
679.87	327.68
680.00	330.02
680.14	325.33
680.28	290.23
680.42	283.20
680.56	297.25
680.70	299.59
680.83	273.84
680.97	301.93
681.11	280.86
681.25	344.06
681.39	320.65
681.52	379.17
681.66	306.61
681.80	236.39
681.94	362.78
682.07	285.55
682.21	327.68
682.35	262.14
682.49	337.04
682.62	332.36
682.76	248.10
682.90	292.57
683.04	327.68
683.17	294.91
683.31	276.18
683.45	311.29
683.59	318.31
683.72	276.18
683.86	330.02
684.00	311.29
684.13	320.65
684.27	339.38
684.41	278.52
684.55	257.46
684.68	353.42
684.82	325.33
684.96	353.42
685.09	332.36
685.23	252.78
685.37	301.93
685.50	308.95
685.64	395.55
685.78	337.04
685.91	308.95
686.05	369.80
686.19	367.46
686.32	334.70
686.46	379.17
686.60	379.17
686.73	500.87
686.87	421.30
687.01	463.43
687.14	458.74
687.28	550.03
687.42	594.50
687.55	510.24
687.69	716.20
687.82	564.07
687.96	575.77
688.10	608.54
688.23	566.41
688.37	566.41
688.50	402.57
688.64	489.17
688.78	397.89
688.91	337.04
689.05	358.10
689.18	369.80
689.32	297.25
689.46	276.18
689.59	262.14
689.73	334.70
689.86	243.42
690.00	292.57
690.13	180.22
690.27	201.29
690.41	271.50
690.54	353.42
690.68	339.38
690.81	294.91
690.95	276.18
691.08	257.46
691.22	203.63
691.35	163.84
691.49	133.41
691.62	163.84
691.76	191.92
691.89	278.52
692.03	187.24
692.16	194.26
692.30	212.99
692.43	203.63
692.57	196.60
692.70	231.71
692.84	238.73
692.97	278.52
693.11	227.03
693.24	367.46
693.38	367.46
693.51	461.09
693.65	528.96
693.78	463.43
693.92	493.85
694.05	411.93
694.19	383.85
694.32	346.40
694.45	358.10
694.59	227.03
694.72	346.40
694.86	180.22
694.99	245.76
695.13	271.50
695.26	191.92
695.39	201.29
695.53	299.59
695.66	210.65
695.80	119.37
695.93	229.37
696.07	152.13
696.20	250.44
696.33	205.97
696.47	222.35
696.60	163.84
696.73	278.52
696.87	142.77
697.00	135.75
697.14	166.18
697.27	126.39
697.40	222.35
697.54	126.39
697.67	135.75
697.80	114.69
697.94	145.11
698.07	154.48
698.21	119.37
698.34	154.48
698.47	168.52
698.61	98.30
698.74	170.86
698.87	196.60
699.01	161.50
699.14	114.69
699.27	196.60
699.40	234.05
699.54	156.82
699.67	168.52
699.80	131.07
699.94	140.43
700.07	124.05
700.20	184.90
700.34	114.69
700.47	105.32
700.60	215.33
700.73	187.24
700.87	177.88
701.00	201.29
701.13	159.16
701.26	175.54
701.40	189.58
701.53	163.84
701.66	189.58
701.79	177.88
701.93	138.09
702.06	203.63
702.19	229.37
702.32	168.52
702.46	175.54
702.59	180.22
702.72	236.39
702.85	212.99
702.99	77.24
703.12	152.13
703.25	112.35
703.38	248.10
703.51	271.50
703.65	201.29
703.78	278.52
703.91	222.35
704.04	287.89
704.17	238.73
704.31	182.56
704.44	194.26
704.57	217.67
704.70	271.50
704.83	234.05
704.96	191.92
705.10	215.33
705.23	243.42
>>>>>End Processed Spectral Data<<<<<
