SpectraSuite Data File
++++++++++++++++++++++++++++++++++++
Date: Fri Oct 04 11:41:51 GMT-05:00 2013
User: price-jones
Dark Spectrum Present: No
Reference Spectrum Present: No
Number of Sampled Component Spectra: 1
Spectrometers: USB2+H05261
Integration Time (usec): 100000 (USB2+H05261)
Spectra Averaged: 1 (USB2+H05261)
Boxcar Smoothing: 0 (USB2+H05261)
Correct for Electrical Dark: No (USB2+H05261)
Strobe/Lamp Enabled: No (USB2+H05261)
Correct for Detector Non-linearity: No (USB2+H05261)
Correct for Stray Light: No (USB2+H05261)
Number of Pixels in Processed Spectrum: 2048
>>>>>Begin Processed Spectral Data<<<<<
365.73	79.58
365.92	79.58
366.12	79.58
366.32	0.00
366.52	0.00
366.72	0.00
366.91	0.00
367.11	0.00
367.31	0.00
367.51	0.00
367.70	0.00
367.90	0.00
368.10	0.00
368.30	0.00
368.49	0.00
368.69	0.00
368.89	0.00
369.09	0.00
369.28	0.00
369.48	18.72
369.68	0.00
369.87	0.00
370.07	32.77
370.27	0.00
370.47	0.00
370.66	51.49
370.86	44.47
371.06	114.69
371.25	91.28
371.45	79.58
371.65	102.98
371.84	67.88
372.04	53.83
372.24	100.64
372.44	107.66
372.63	145.11
372.83	205.97
373.03	81.92
373.22	112.35
373.42	110.01
373.62	110.01
373.81	166.18
374.01	191.92
374.21	147.45
374.40	114.69
374.60	184.90
374.79	145.11
374.99	126.39
375.19	142.77
375.38	184.90
375.58	156.82
375.78	210.65
375.97	187.24
376.17	187.24
376.37	126.39
376.56	98.30
376.76	102.98
376.95	131.07
377.15	112.35
377.35	175.54
377.54	121.71
377.74	53.83
377.93	147.45
378.13	107.66
378.33	205.97
378.52	156.82
378.72	126.39
378.91	156.82
379.11	91.28
379.31	121.71
379.50	163.84
379.70	135.75
379.89	198.95
380.09	170.86
380.28	131.07
380.48	98.30
380.68	119.37
380.87	117.03
381.07	112.35
381.26	168.52
381.46	201.29
381.65	131.07
381.85	102.98
382.04	145.11
382.24	135.75
382.43	142.77
382.63	154.48
382.83	156.82
383.02	154.48
383.22	177.88
383.41	142.77
383.61	147.45
383.80	95.96
384.00	189.58
384.19	156.82
384.39	98.30
384.58	119.37
384.78	98.30
384.97	133.41
385.17	63.19
385.36	121.71
385.56	124.05
385.75	114.69
385.95	147.45
386.14	0.00
386.34	156.82
386.53	135.75
386.72	70.22
386.92	74.90
387.11	161.50
387.31	119.37
387.50	131.07
387.70	128.73
387.89	91.28
388.09	128.73
388.28	128.73
388.48	63.19
388.67	121.71
388.86	177.88
389.06	51.49
389.25	175.54
389.45	156.82
389.64	46.81
389.84	217.67
390.03	145.11
390.22	212.99
390.42	147.45
390.61	187.24
390.81	110.01
391.00	191.92
391.19	159.16
391.39	163.84
391.58	184.90
391.78	142.77
391.97	86.60
392.16	128.73
392.36	70.22
392.55	117.03
392.75	124.05
392.94	126.39
393.13	114.69
393.33	121.71
393.52	161.50
393.71	166.18
393.91	177.88
394.10	119.37
394.29	100.64
394.49	145.11
394.68	149.79
394.88	98.30
395.07	67.88
395.26	145.11
395.46	227.03
395.65	238.73
395.84	166.18
396.04	212.99
396.23	187.24
396.42	110.01
396.62	114.69
396.81	175.54
397.00	133.41
397.19	142.77
397.39	170.86
397.58	182.56
397.77	194.26
397.97	152.13
398.16	201.29
398.35	161.50
398.55	140.43
398.74	189.58
398.93	182.56
399.12	175.54
399.32	147.45
399.51	205.97
399.70	217.67
399.90	154.48
400.09	191.92
400.28	124.05
400.47	191.92
400.67	184.90
400.86	163.84
401.05	215.33
401.24	152.13
401.44	135.75
401.63	166.18
401.82	255.12
402.01	107.66
402.21	173.20
402.40	215.33
402.59	189.58
402.78	177.88
402.97	133.41
403.17	224.69
403.36	299.59
403.55	358.10
403.74	730.25
403.93	2326.49
404.13	5722.61
404.32	8812.12
404.51	8528.91
404.70	5624.31
404.89	2069.03
405.09	671.73
405.28	313.63
405.47	297.25
405.66	224.69
405.85	299.59
406.05	248.10
406.24	248.10
406.43	175.54
406.62	212.99
406.81	318.31
407.00	344.06
407.20	720.88
407.39	1256.87
407.58	1359.85
407.77	1053.24
407.96	566.41
408.15	266.82
408.34	191.92
408.54	198.95
408.73	238.73
408.92	217.67
409.11	245.76
409.30	215.33
409.49	208.31
409.68	175.54
409.87	187.24
410.07	163.84
410.26	180.22
410.45	170.86
410.64	205.97
410.83	252.78
411.02	180.22
411.21	175.54
411.40	198.95
411.59	126.39
411.78	201.29
411.98	231.71
412.17	259.80
412.36	234.05
412.55	278.52
412.74	234.05
412.93	280.86
413.12	215.33
413.31	245.76
413.50	250.44
413.69	224.69
413.88	241.08
414.07	259.80
414.26	264.48
414.45	203.63
414.64	287.89
414.83	255.12
415.02	217.67
415.22	283.20
415.41	346.40
415.60	294.91
415.79	290.23
415.98	245.76
416.17	196.60
416.36	238.73
416.55	222.35
416.74	362.78
416.93	351.08
417.12	304.27
417.31	304.27
417.50	346.40
417.69	341.72
417.88	334.70
418.07	292.57
418.26	276.18
418.45	320.65
418.64	294.91
418.83	278.52
419.02	318.31
419.21	308.95
419.39	339.38
419.58	290.23
419.77	271.50
419.96	358.10
420.15	351.08
420.34	304.27
420.53	299.59
420.72	283.20
420.91	252.78
421.10	241.08
421.29	297.25
421.48	299.59
421.67	315.97
421.86	245.76
422.05	365.12
422.24	409.59
422.43	313.63
422.61	355.76
422.80	287.89
422.99	348.74
423.18	351.08
423.37	280.86
423.56	346.40
423.75	379.17
423.94	322.99
424.13	334.70
424.32	280.86
424.50	372.15
424.69	355.76
424.88	400.23
425.07	304.27
425.26	367.46
425.45	383.85
425.64	344.06
425.83	402.57
426.01	409.59
426.20	365.12
426.39	332.36
426.58	376.83
426.77	360.44
426.96	423.64
427.15	411.93
427.33	402.57
427.52	430.66
427.71	423.64
427.90	418.96
428.09	381.51
428.28	327.68
428.46	430.66
428.65	362.78
428.84	381.51
429.03	414.27
429.22	365.12
429.40	449.38
429.59	397.89
429.78	458.74
429.97	397.89
430.16	388.53
430.34	430.66
430.53	517.26
430.72	416.62
430.91	482.15
431.10	437.68
431.28	430.66
431.47	479.81
431.66	521.94
431.85	454.06
432.03	433.00
432.22	519.60
432.41	479.81
432.60	510.24
432.79	561.73
432.97	566.41
433.16	589.82
433.35	674.07
433.54	725.57
433.72	767.70
433.91	807.48
434.10	795.78
434.28	1116.44
434.47	1238.14
434.66	1263.89
434.85	1645.40
435.03	3756.56
435.22	13633.62
435.41	35093.99
435.59	45961.10
435.78	30473.78
435.97	14422.38
436.16	5383.23
436.34	1746.04
436.53	1048.56
436.72	833.23
436.90	755.99
437.09	599.18
437.28	690.46
437.46	585.13
437.65	643.65
437.84	671.73
438.02	650.67
438.21	514.92
438.40	547.69
438.58	512.58
438.77	477.47
438.96	552.37
439.14	578.11
439.33	575.77
439.52	533.64
439.70	550.03
439.89	524.28
440.08	437.68
440.26	493.85
440.45	582.79
440.63	517.26
440.82	582.79
441.01	512.58
441.19	465.77
441.38	433.00
441.57	587.47
441.75	599.18
441.94	608.54
442.12	528.96
442.31	561.73
442.50	519.60
442.68	615.56
442.87	582.79
443.05	589.82
443.24	559.39
443.43	594.50
443.61	545.34
443.80	557.05
443.98	561.73
444.17	531.30
444.35	547.69
444.54	615.56
444.73	512.58
444.91	510.24
445.10	557.05
445.28	620.24
445.47	589.82
445.65	540.66
445.84	521.94
446.02	496.19
446.21	433.00
446.39	580.45
446.58	564.07
446.77	552.37
446.95	575.77
447.14	585.13
447.32	589.82
447.51	477.47
447.69	559.39
447.88	636.63
448.06	514.92
448.25	624.92
448.43	561.73
448.62	491.51
448.80	603.86
448.99	510.24
449.17	482.15
449.36	573.43
449.54	540.66
449.73	594.50
449.91	578.11
450.10	486.83
450.28	585.13
450.46	545.34
450.65	552.37
450.83	512.58
451.02	493.85
451.20	538.32
451.39	493.85
451.57	531.30
451.76	449.38
451.94	468.11
452.13	552.37
452.31	496.19
452.49	533.64
452.68	503.22
452.86	521.94
453.05	552.37
453.23	566.41
453.42	554.71
453.60	571.09
453.78	543.00
453.97	414.27
454.15	507.90
454.34	468.11
454.52	566.41
454.70	589.82
454.89	552.37
455.07	470.45
455.26	547.69
455.44	575.77
455.62	524.28
455.81	566.41
455.99	585.13
456.17	543.00
456.36	545.34
456.54	559.39
456.73	564.07
456.91	493.85
457.09	540.66
457.28	521.94
457.46	465.77
457.64	517.26
457.83	538.32
458.01	477.47
458.19	500.87
458.38	491.51
458.56	578.11
458.74	510.24
458.93	599.18
459.11	561.73
459.29	596.84
459.48	521.94
459.66	540.66
459.84	498.53
460.03	594.50
460.21	531.30
460.39	493.85
460.57	505.56
460.76	484.49
460.94	461.09
461.12	538.32
461.31	535.98
461.49	442.36
461.67	477.47
461.85	489.17
462.04	493.85
462.22	999.41
462.40	472.79
462.59	510.24
462.77	472.79
462.95	564.07
463.13	538.32
463.32	484.49
463.50	484.49
463.68	484.49
463.86	550.03
464.05	433.00
464.23	573.43
464.41	475.13
464.59	596.84
464.78	564.07
464.96	552.37
465.14	554.71
465.32	545.34
465.50	491.51
465.69	578.11
465.87	458.74
466.05	587.47
466.23	479.81
466.41	433.00
466.60	580.45
466.78	585.13
466.96	589.82
467.14	503.22
467.32	601.52
467.51	575.77
467.69	526.62
467.87	521.94
468.05	444.70
468.23	585.13
468.41	454.06
468.60	449.38
468.78	454.06
468.96	498.53
469.14	512.58
469.32	454.06
469.50	411.93
469.69	440.02
469.87	470.45
470.05	559.39
470.23	477.47
470.41	458.74
470.59	498.53
470.77	479.81
470.95	521.94
471.14	500.87
471.32	458.74
471.50	571.09
471.68	521.94
471.86	479.81
472.04	465.77
472.22	461.09
472.40	512.58
472.58	589.82
472.77	444.70
472.95	475.13
473.13	521.94
473.31	484.49
473.49	475.13
473.67	493.85
473.85	463.43
474.03	582.79
474.21	538.32
474.39	552.37
474.57	477.47
474.75	533.64
474.93	575.77
475.12	430.66
475.30	510.24
475.48	449.38
475.66	514.92
475.84	428.32
476.02	407.25
476.20	465.77
476.38	510.24
476.56	596.84
476.74	465.77
476.92	470.45
477.10	538.32
477.28	514.92
477.46	507.90
477.64	503.22
477.82	540.66
478.00	596.84
478.18	566.41
478.36	554.71
478.54	561.73
478.72	589.82
478.90	641.31
479.08	601.52
479.26	674.07
479.44	690.46
479.62	622.58
479.80	697.48
479.98	718.54
480.16	760.67
480.34	833.23
480.52	755.99
480.70	823.87
480.88	851.96
481.06	802.80
481.24	863.66
481.41	978.34
481.59	980.68
481.77	1139.84
481.95	1118.78
482.13	1231.12
482.31	1284.95
482.49	1371.55
482.67	1490.92
482.85	1568.16
483.03	1607.95
483.21	1781.15
483.39	1856.04
483.57	2001.16
483.74	2256.28
483.92	2214.15
484.10	2410.75
484.28	2532.46
484.46	2546.50
484.64	2836.73
484.82	2930.35
485.00	2944.39
485.18	3187.81
485.35	3276.75
485.53	3377.39
485.71	3686.34
485.89	3894.65
486.07	3934.44
486.25	3887.63
486.43	4049.13
486.61	3906.35
486.78	4056.15
486.96	4021.04
487.14	4009.34
487.32	3864.22
487.50	4004.66
487.68	3936.78
487.85	3765.92
488.03	3866.56
488.21	3777.62
488.39	3786.99
488.57	3606.77
488.75	3555.27
488.92	3730.81
489.10	3400.80
489.28	3283.77
489.46	3208.87
489.64	3236.96
489.81	3152.70
489.99	3155.04
490.17	3162.06
490.35	3157.38
490.53	2935.03
490.70	3077.80
490.88	3021.63
491.06	3129.30
491.24	3297.81
491.41	3456.97
491.59	3164.40
491.77	2904.60
491.95	2981.84
492.13	2918.65
492.30	2848.43
492.48	2726.72
492.66	2726.72
492.84	2679.91
493.01	2595.65
493.19	2532.46
493.37	2647.15
493.54	2490.33
493.72	2546.50
493.90	2321.81
494.08	2499.69
494.25	2284.36
494.43	2406.07
494.61	2270.32
494.79	2333.51
494.96	2211.81
495.14	2216.49
495.32	2202.44
495.49	2202.44
495.67	2003.50
495.85	2003.50
496.02	2064.35
496.20	2050.31
496.38	2008.18
496.55	1865.41
496.73	1884.13
496.91	1849.02
497.09	1923.92
497.26	1944.99
497.44	1764.76
497.62	1624.33
497.79	1739.02
497.97	1680.50
498.14	1544.75
498.32	1596.25
498.50	1523.69
498.67	1413.68
498.85	1423.05
499.03	1549.43
499.20	1502.62
499.38	1378.58
499.56	1343.47
499.73	1317.72
499.91	1252.19
500.08	1296.66
500.26	1277.93
500.44	1193.67
500.61	1191.33
500.79	1137.50
500.97	1139.84
501.14	1132.82
501.32	1093.03
501.49	1046.22
501.67	1053.24
501.84	945.58
502.02	898.77
502.20	870.68
502.37	976.00
502.55	873.02
502.72	856.64
502.90	929.19
503.07	844.93
503.25	767.70
503.43	760.67
503.60	734.93
503.78	739.61
503.95	727.91
504.13	650.67
504.30	718.54
504.48	758.33
504.65	767.70
504.83	746.63
505.01	718.54
505.18	662.37
505.36	699.82
505.53	620.24
505.71	608.54
505.88	650.67
506.06	613.22
506.23	620.24
506.41	535.98
506.58	631.94
506.76	559.39
506.93	585.13
507.11	486.83
507.28	477.47
507.46	512.58
507.63	585.13
507.81	517.26
507.98	550.03
508.16	533.64
508.33	575.77
508.50	603.86
508.68	638.97
508.85	615.56
509.03	610.88
509.20	655.35
509.38	601.52
509.55	606.20
509.73	603.86
509.90	613.22
510.08	528.96
510.25	547.69
510.42	521.94
510.60	491.51
510.77	526.62
510.95	514.92
511.12	416.62
511.30	500.87
511.47	472.79
511.64	442.36
511.82	489.17
511.99	482.15
512.17	477.47
512.34	547.69
512.51	498.53
512.69	538.32
512.86	454.06
513.04	524.28
513.21	463.43
513.38	440.02
513.56	477.47
513.73	498.53
513.90	463.43
514.08	503.22
514.25	435.34
514.43	458.74
514.60	430.66
514.77	454.06
514.95	435.34
515.12	428.32
515.29	402.57
515.47	433.00
515.64	348.74
515.81	395.55
515.99	486.83
516.16	437.68
516.33	526.62
516.51	451.72
516.68	423.64
516.85	421.30
517.03	365.12
517.20	402.57
517.37	447.04
517.54	425.98
517.72	416.62
517.89	311.29
518.06	339.38
518.24	416.62
518.41	454.06
518.58	411.93
518.75	395.55
518.93	393.21
519.10	383.85
519.27	397.89
519.45	369.80
519.62	421.30
519.79	388.53
519.96	332.36
520.14	531.30
520.31	479.81
520.48	379.17
520.65	444.70
520.83	358.10
521.00	479.81
521.17	425.98
521.34	369.80
521.52	418.96
521.69	367.46
521.86	395.55
522.03	404.91
522.20	330.02
522.38	379.17
522.55	381.51
522.72	358.10
522.89	437.68
523.07	461.09
523.24	395.55
523.41	362.78
523.58	355.76
523.75	407.25
523.92	409.59
524.10	351.08
524.27	369.80
524.44	306.61
524.61	421.30
524.78	372.15
524.96	400.23
525.13	400.23
525.30	477.47
525.47	475.13
525.64	430.66
525.81	454.06
525.98	393.21
526.16	461.09
526.33	479.81
526.50	461.09
526.67	388.53
526.84	475.13
527.01	519.60
527.18	507.90
527.36	636.63
527.53	526.62
527.70	596.84
527.87	575.77
528.04	575.77
528.21	554.71
528.38	517.26
528.55	535.98
528.72	613.22
528.89	585.13
529.07	575.77
529.24	512.58
529.41	589.82
529.58	575.77
529.75	571.09
529.92	486.83
530.09	620.24
530.26	641.31
530.43	624.92
530.60	568.75
530.77	643.65
530.94	589.82
531.11	690.46
531.28	706.84
531.46	732.59
531.63	636.63
531.80	770.04
531.97	833.23
532.14	931.53
532.31	1123.46
532.48	1327.08
532.65	1458.15
532.82	1743.70
532.99	1884.13
533.16	2218.83
533.33	2483.31
533.50	2300.75
533.67	1942.64
533.84	1645.40
534.01	1411.34
534.18	1355.17
534.35	1308.36
534.52	1306.02
534.69	1444.11
534.86	1458.15
535.03	1547.09
535.20	1605.61
535.37	1724.97
535.54	1696.89
535.71	1799.87
535.88	1987.11
536.05	2094.78
536.22	2223.51
536.38	2307.77
536.55	2658.85
536.72	2958.44
536.89	3000.57
537.06	3555.27
537.23	3932.10
537.40	4482.13
537.57	4819.16
537.74	5006.41
537.91	5252.16
538.08	5324.72
538.25	5397.28
538.42	5418.34
538.59	5518.98
538.75	5708.57
538.92	6279.66
539.09	6562.86
539.26	7330.56
539.43	8418.91
539.60	9383.21
539.77	10464.54
539.94	12002.27
540.11	13462.76
540.28	14635.37
540.44	15901.60
540.61	17479.12
540.78	20320.53
540.95	24091.13
541.12	28833.06
541.29	33476.68
541.46	35211.02
541.62	34696.10
541.79	33645.20
541.96	31754.05
542.13	29064.77
542.30	26742.96
542.47	25294.17
542.63	23288.33
542.80	23353.87
542.97	22419.99
543.14	22588.51
543.31	22450.42
543.48	22628.30
543.64	22773.41
543.81	23300.03
543.98	23508.34
544.15	23461.53
544.32	23552.81
544.48	23351.52
544.65	23220.45
544.82	22953.63
544.99	23192.37
545.16	23585.58
545.32	24538.18
545.49	36521.72
545.66	58607.01
545.83	65535.00
546.00	65366.48
546.16	53860.41
546.33	41270.67
546.50	30934.86
546.67	24479.66
546.83	21734.21
547.00	20498.41
547.17	19501.34
547.34	18651.73
547.50	17593.81
547.67	17205.28
547.84	16533.54
548.00	15403.07
548.17	15410.09
548.34	14237.48
548.51	13877.04
548.67	13554.04
548.84	12896.35
549.01	12217.60
549.18	11534.16
549.34	11241.59
549.51	10829.66
549.68	10415.38
549.84	9731.95
550.01	9411.29
550.18	9296.61
550.34	8517.21
550.51	8236.35
550.68	7878.24
550.84	7382.05
551.01	6902.24
551.18	6441.15
551.34	6265.61
551.51	5919.21
551.68	5738.99
551.84	5413.66
552.01	5413.66
552.18	5121.09
552.34	4833.21
552.51	4940.87
552.68	4538.30
552.84	4271.48
553.01	4196.58
553.18	4102.96
553.34	3997.64
553.51	3768.26
553.67	3728.47
553.84	3557.61
554.01	3353.99
554.17	3150.36
554.34	2988.86
554.51	2846.09
554.67	2647.15
554.84	2469.27
555.00	2293.72
555.17	2242.23
555.33	2125.21
555.50	2078.40
555.67	1973.07
555.83	1774.13
556.00	1790.51
556.16	1853.70
556.33	1631.35
556.50	1633.69
556.66	1528.37
556.83	1577.52
556.99	1446.45
557.16	1439.43
557.32	1380.92
557.49	1308.36
557.65	1355.17
557.82	1270.91
557.98	1270.91
558.15	1249.85
558.32	1130.48
558.48	1086.01
558.65	1111.75
558.81	1053.24
558.98	1158.57
559.14	1053.24
559.31	1011.11
559.47	968.98
559.64	973.66
559.80	1057.92
559.97	905.79
560.13	1043.88
560.30	1062.60
560.46	990.05
560.63	922.17
560.79	931.53
560.96	896.43
561.12	957.28
561.29	868.34
561.45	908.13
561.61	1046.22
561.78	985.37
561.94	924.51
562.11	947.92
562.27	908.13
562.44	1032.18
562.60	837.91
562.77	987.71
562.93	964.30
563.10	866.00
563.26	933.87
563.42	940.90
563.59	898.77
563.75	774.72
563.92	833.23
564.08	748.97
564.24	816.85
564.41	739.61
564.57	713.86
564.74	851.96
564.90	770.04
565.07	772.38
565.23	814.51
565.39	765.36
565.56	767.70
565.72	699.82
565.88	631.94
566.05	732.59
566.21	744.29
566.38	770.04
566.54	807.48
566.70	767.70
566.87	688.12
567.03	741.95
567.19	777.06
567.36	765.36
567.52	681.10
567.68	671.73
567.85	802.80
568.01	587.47
568.17	711.52
568.34	760.67
568.50	819.19
568.66	765.36
568.83	812.17
568.99	823.87
569.15	812.17
569.32	727.91
569.48	655.35
569.64	596.84
569.81	610.88
569.97	552.37
570.13	601.52
570.30	517.26
570.46	571.09
570.62	606.20
570.78	519.60
570.95	423.64
571.11	608.54
571.27	622.58
571.43	461.09
571.60	561.73
571.76	521.94
571.92	617.90
572.09	603.86
572.25	634.29
572.41	641.31
572.57	550.03
572.74	575.77
572.90	545.34
573.06	564.07
573.22	566.41
573.38	538.32
573.55	608.54
573.71	566.41
573.87	589.82
574.03	526.62
574.20	657.69
574.36	620.24
574.52	613.22
574.68	699.82
574.84	746.63
575.01	753.65
575.17	779.40
575.33	812.17
575.49	933.87
575.65	980.68
575.82	997.07
575.98	1076.65
576.14	1240.48
576.30	2333.51
576.46	7082.46
576.62	14534.73
576.79	18466.83
576.95	12849.54
577.11	8180.17
577.27	5809.21
577.43	3789.33
577.59	2438.84
577.75	1816.26
577.92	1757.74
578.08	1558.80
578.24	1650.08
578.40	2520.76
578.56	6478.60
578.72	13174.88
578.88	16826.11
579.04	11705.02
579.21	7681.64
579.37	5753.04
579.53	4320.63
579.69	4117.00
579.85	4760.65
580.01	6160.29
580.17	6071.35
580.33	5097.69
580.49	4301.90
580.65	3723.79
580.82	3550.59
580.98	3342.28
581.14	3442.93
581.30	3646.55
581.46	3772.94
581.62	4131.05
581.78	4442.34
581.94	4779.37
582.10	4938.53
582.26	5221.74
582.42	5420.68
582.58	5427.70
582.74	5659.42
582.90	5699.20
583.06	5626.65
583.22	5778.78
583.38	5916.87
583.54	6008.16
583.70	5703.89
583.86	5795.17
584.02	5502.60
584.18	5490.90
584.34	5509.62
584.50	5467.49
584.66	5317.70
584.82	5212.37
584.98	5198.33
585.14	5174.92
585.30	5048.54
585.46	4798.10
585.62	4667.03
585.78	4833.21
585.94	4854.27
586.10	4917.47
586.26	5125.77
586.42	5820.91
586.58	6913.94
586.74	8365.07
586.90	10317.08
587.06	11468.62
587.22	11492.03
587.38	10286.65
587.54	8851.91
587.70	7681.64
587.86	6380.30
588.02	5334.08
588.18	4741.93
588.34	4252.75
588.49	3974.23
588.65	3613.79
588.81	3428.88
588.97	3482.72
589.13	3379.73
589.29	3260.37
589.45	3236.96
589.61	3129.30
589.77	3311.86
589.93	3265.05
590.08	3466.33
590.24	3466.33
590.40	3520.17
590.56	3712.09
590.72	3648.90
590.88	3754.22
591.04	3943.80
591.20	4046.79
591.35	4203.60
591.51	4500.85
591.67	4554.68
591.83	5018.11
591.99	5329.40
592.15	5853.68
592.31	6289.02
592.46	6682.23
592.62	7442.90
592.78	8018.68
592.94	8367.42
593.10	8152.09
593.26	8058.46
593.41	7346.94
593.57	6429.45
593.73	5853.68
593.89	5125.77
594.05	4552.34
594.20	3957.85
594.36	3770.60
594.52	3522.51
594.68	3318.88
594.84	3171.43
594.99	3150.36
595.15	3000.57
595.31	2869.50
595.47	2935.03
595.62	2839.07
595.78	2780.56
595.94	3009.93
596.10	2878.86
596.25	3016.95
596.41	2822.69
596.57	2853.11
596.73	2977.16
596.88	2836.73
597.04	2841.41
597.20	2946.73
597.36	2951.42
597.51	3084.83
597.67	3269.73
597.83	3269.73
597.99	3363.35
598.14	3644.21
598.30	3831.46
598.46	4152.11
598.61	4381.48
598.77	4542.98
598.93	4737.24
599.09	4847.25
599.24	5139.82
599.40	4924.49
599.56	4774.69
599.71	4528.94
599.87	4287.86
600.03	3974.23
600.18	3859.54
600.34	3487.40
600.50	3344.63
600.65	3105.89
600.81	3045.04
600.97	2782.90
601.12	2607.36
601.28	2539.48
601.44	2291.38
601.59	2375.64
601.75	2150.95
601.91	2160.31
602.06	2062.01
602.22	2064.35
602.37	1996.48
602.53	1856.04
602.69	1942.64
602.84	1797.53
603.00	1942.64
603.16	2010.52
603.31	1849.02
603.47	2083.08
603.62	2153.29
603.78	2113.50
603.94	2115.84
604.09	2174.36
604.25	2160.31
604.40	2193.08
604.56	2230.53
604.71	2237.55
604.87	2214.15
605.03	2270.32
605.18	2459.90
605.34	2457.56
605.49	2300.75
605.65	2569.91
605.80	2530.12
605.96	2590.97
606.12	2768.85
606.27	2864.82
606.43	3063.76
606.58	3164.40
606.74	3288.45
606.89	3515.48
607.05	3639.53
607.20	3845.50
607.36	3960.19
607.51	4112.32
607.67	4418.93
607.82	4690.43
607.98	5057.90
608.13	5696.86
608.29	6122.84
608.44	6413.07
608.60	7052.03
608.75	7637.17
608.91	8278.47
609.06	9224.05
609.22	10363.89
609.37	11389.05
609.53	12917.42
609.68	14611.96
609.84	16709.08
609.99	19187.71
610.15	22686.81
610.30	27969.40
610.46	35548.06
610.61	45137.23
610.76	54176.38
610.92	60030.06
611.07	63089.14
611.23	64261.75
611.38	63627.46
611.54	60568.38
611.69	56392.87
611.84	50820.05
612.00	42962.87
612.15	36233.83
612.31	31648.72
612.46	27615.98
612.62	25846.54
612.77	24147.31
612.92	23110.45
613.08	21907.41
613.23	21132.70
613.39	19857.10
613.54	18979.40
613.69	19260.27
613.85	18691.52
614.00	18572.15
614.15	18136.81
614.31	17928.50
614.46	17769.35
614.62	17050.80
614.77	16240.98
614.92	15169.01
615.08	14193.01
615.23	13116.36
615.38	12065.46
615.54	11073.07
615.69	10059.62
615.84	9261.50
616.00	8746.58
616.15	7915.69
616.30	7522.48
616.46	7040.33
616.61	6548.82
616.76	6176.67
616.92	5811.55
617.07	5509.62
617.22	5221.74
617.37	4938.53
617.53	4971.30
617.68	4395.53
617.83	4332.33
617.99	4327.65
618.14	3981.25
618.29	4196.58
618.45	3882.95
618.60	3889.97
618.75	3812.73
618.90	3719.11
619.06	3674.64
619.21	3658.26
619.36	3644.21
619.51	3588.04
619.67	3719.11
619.82	3590.38
619.97	3894.65
620.12	3896.99
620.28	3974.23
620.43	3995.29
620.58	4051.47
620.73	4177.86
620.89	3941.46
621.04	4028.06
621.19	3983.59
621.34	4079.55
621.49	3932.10
621.65	4060.83
621.80	3847.84
621.95	3920.40
622.10	3995.29
622.25	3873.59
622.41	3927.42
622.56	4030.40
622.71	4222.33
622.86	4173.18
623.01	4393.19
623.16	4493.83
623.32	4362.76
623.47	4320.63
623.62	4372.12
623.77	4337.01
623.92	4386.16
624.07	4449.36
624.23	4346.37
624.38	4285.52
624.53	4245.73
624.68	4447.02
624.83	4606.17
624.98	4526.60
625.13	4362.76
625.29	4503.19
625.44	4447.02
625.59	4535.96
625.74	4479.79
625.89	4381.48
626.04	4395.53
626.19	4526.60
626.34	4435.32
626.49	4456.38
626.65	4542.98
626.80	4386.16
626.95	4301.90
627.10	4217.65
627.25	4229.35
627.40	4243.39
627.55	3969.55
627.70	4004.66
627.85	4180.20
628.00	4077.21
628.15	4011.68
628.30	3871.25
628.45	4030.40
628.60	4049.13
628.76	4049.13
628.91	4117.00
629.06	4067.85
629.21	4100.62
629.36	4252.75
629.51	4269.14
629.66	4435.32
629.81	4662.35
629.96	5256.84
630.11	5722.61
630.26	6338.17
630.41	7225.23
630.56	7995.27
630.71	8561.68
630.86	8643.60
631.01	8793.39
631.16	8259.75
631.31	7227.57
631.46	6101.78
631.61	5305.99
631.76	4442.34
631.91	3684.00
632.06	3180.79
632.21	2729.06
632.36	2422.45
632.51	2062.01
632.66	1916.90
632.81	1741.36
632.96	1668.80
633.10	1647.74
633.25	1561.14
633.40	1467.52
633.55	1345.81
633.70	1315.38
633.85	1287.29
634.00	1226.44
634.15	1249.85
634.30	1196.01
634.45	1240.48
634.60	1184.31
634.75	1212.40
634.90	1256.87
635.05	1149.20
635.19	1095.37
635.34	1118.78
635.49	1008.77
635.64	1109.41
635.79	1071.97
635.94	1071.97
636.09	997.07
636.24	961.96
636.39	945.58
636.53	978.34
636.68	910.47
636.83	903.45
636.98	994.73
637.13	926.85
637.28	919.83
637.43	877.70
637.57	861.32
637.72	812.17
637.87	952.60
638.02	784.08
638.17	730.25
638.32	847.27
638.46	788.76
638.61	830.89
638.76	833.23
638.91	699.82
639.06	854.30
639.20	734.93
639.35	753.65
639.50	763.01
639.65	821.53
639.80	720.88
639.94	732.59
640.09	741.95
640.24	741.95
640.39	706.84
640.54	751.31
640.68	739.61
640.83	720.88
640.98	730.25
641.13	730.25
641.27	781.74
641.42	674.07
641.57	765.36
641.72	744.29
641.86	727.91
642.01	723.23
642.16	765.36
642.31	753.65
642.45	765.36
642.60	828.55
642.75	786.42
642.90	730.25
643.04	746.63
643.19	816.85
643.34	716.20
643.48	725.57
643.63	676.41
643.78	866.00
643.93	758.33
644.07	688.12
644.22	798.12
644.37	819.19
644.51	784.08
644.66	760.67
644.81	720.88
644.95	727.91
645.10	779.40
645.25	725.57
645.39	650.67
645.54	725.57
645.69	758.33
645.83	692.80
645.98	753.65
646.13	627.26
646.27	746.63
646.42	699.82
646.57	653.01
646.71	641.31
646.86	667.05
647.00	660.03
647.15	662.37
647.30	667.05
647.44	711.52
647.59	741.95
647.74	697.48
647.88	746.63
648.03	751.31
648.17	688.12
648.32	734.93
648.47	674.07
648.61	798.12
648.76	805.14
648.90	791.10
649.05	772.38
649.20	821.53
649.34	976.00
649.49	1032.18
649.63	1167.93
649.78	1301.34
649.92	1638.38
650.07	2071.37
650.21	2160.31
650.36	2487.99
650.51	2368.62
650.65	2204.78
650.80	2022.22
650.94	1788.17
651.09	1549.43
651.23	1479.22
651.38	1474.54
651.52	1151.54
651.67	1177.29
651.81	1093.03
651.96	1064.94
652.10	835.57
652.25	954.94
652.39	959.62
652.54	1006.43
652.68	1029.84
652.83	1128.14
652.97	1167.93
653.12	1301.34
653.26	1116.44
653.41	1078.99
653.55	1071.97
653.70	1013.45
653.84	849.61
653.99	880.04
654.13	781.74
654.27	688.12
654.42	828.55
654.56	683.44
654.71	800.46
654.85	730.25
655.00	704.50
655.14	664.71
655.29	676.41
655.43	741.95
655.57	718.54
655.72	695.14
655.86	723.23
656.01	697.48
656.15	664.71
656.30	674.07
656.44	596.84
656.58	692.80
656.73	653.01
656.87	610.88
657.01	739.61
657.16	730.25
657.30	774.72
657.45	706.84
657.59	779.40
657.73	816.85
657.88	802.80
658.02	933.87
658.16	777.06
658.31	643.65
658.45	709.18
658.60	538.32
658.74	585.13
658.88	634.29
659.03	617.90
659.17	507.90
659.31	557.05
659.46	484.49
659.60	566.41
659.74	538.32
659.89	538.32
660.03	482.15
660.17	535.98
660.32	535.98
660.46	463.43
660.60	491.51
660.74	554.71
660.89	573.43
661.03	524.28
661.17	571.09
661.32	641.31
661.46	690.46
661.60	777.06
661.74	952.60
661.89	1111.75
662.03	1179.63
662.17	1373.89
662.31	1467.52
662.46	1511.99
662.60	1343.47
662.74	1287.29
662.88	1055.58
663.03	950.26
663.17	889.40
663.31	795.78
663.45	781.74
663.60	751.31
663.74	631.94
663.88	688.12
664.02	634.29
664.17	568.75
664.31	613.22
664.45	557.05
664.59	517.26
664.73	526.62
664.88	493.85
665.02	526.62
665.16	514.92
665.30	477.47
665.44	503.22
665.59	503.22
665.73	528.96
665.87	531.30
666.01	550.03
666.15	477.47
666.29	528.96
666.44	543.00
666.58	528.96
666.72	482.15
666.86	486.83
667.00	592.16
667.14	543.00
667.28	526.62
667.43	449.38
667.57	531.30
667.71	491.51
667.85	465.77
667.99	468.11
668.13	510.24
668.27	493.85
668.41	454.06
668.56	463.43
668.70	449.38
668.84	362.78
668.98	517.26
669.12	465.77
669.26	538.32
669.40	451.72
669.54	500.87
669.68	528.96
669.82	435.34
669.96	454.06
670.10	435.34
670.25	503.22
670.39	423.64
670.53	381.51
670.67	458.74
670.81	451.72
670.95	416.62
671.09	416.62
671.23	456.40
671.37	571.09
671.51	425.98
671.65	512.58
671.79	407.25
671.93	484.49
672.07	468.11
672.21	421.30
672.35	451.72
672.49	372.15
672.63	381.51
672.77	416.62
672.91	482.15
673.05	367.46
673.19	369.80
673.33	311.29
673.47	440.02
673.61	325.33
673.75	271.50
673.89	390.87
674.03	337.04
674.17	386.19
674.31	400.23
674.45	458.74
674.59	301.93
674.73	381.51
674.87	484.49
675.01	386.19
675.15	409.59
675.29	458.74
675.43	404.91
675.56	416.62
675.70	526.62
675.84	351.08
675.98	400.23
676.12	353.42
676.26	414.27
676.40	301.93
676.54	334.70
676.68	367.46
676.82	376.83
676.96	304.27
677.10	308.95
677.23	386.19
677.37	308.95
677.51	334.70
677.65	360.44
677.79	294.91
677.93	365.12
678.07	308.95
678.21	301.93
678.34	250.44
678.48	266.82
678.62	365.12
678.76	365.12
678.90	341.72
679.04	322.99
679.18	393.21
679.31	360.44
679.45	325.33
679.59	416.62
679.73	348.74
679.87	395.55
680.00	379.17
680.14	358.10
680.28	393.21
680.42	362.78
680.56	444.70
680.70	351.08
680.83	348.74
680.97	313.63
681.11	369.80
681.25	444.70
681.39	339.38
681.52	334.70
681.66	344.06
681.80	454.06
681.94	339.38
682.07	397.89
682.21	416.62
682.35	390.87
682.49	337.04
682.62	358.10
682.76	318.31
682.90	292.57
683.04	304.27
683.17	365.12
683.31	301.93
683.45	388.53
683.59	386.19
683.72	383.85
683.86	325.33
684.00	250.44
684.13	301.93
684.27	425.98
684.41	346.40
684.55	325.33
684.68	276.18
684.82	276.18
684.96	355.76
685.09	351.08
685.23	264.48
685.37	360.44
685.50	367.46
685.64	430.66
685.78	390.87
685.91	409.59
686.05	423.64
686.19	477.47
686.32	456.40
686.46	498.53
686.60	423.64
686.73	566.41
686.87	606.20
687.01	718.54
687.14	678.76
687.28	697.48
687.42	744.29
687.55	800.46
687.69	894.08
687.82	849.61
687.96	786.42
688.10	851.96
688.23	713.86
688.37	765.36
688.50	667.05
688.64	484.49
688.78	514.92
688.91	482.15
689.05	437.68
689.18	411.93
689.32	381.51
689.46	400.23
689.59	318.31
689.73	369.80
689.86	285.55
690.00	269.16
690.13	278.52
690.27	320.65
690.41	376.83
690.54	348.74
690.68	397.89
690.81	390.87
690.95	337.04
691.08	255.12
691.22	255.12
691.35	322.99
691.49	238.73
691.62	215.33
691.76	208.31
691.89	196.60
692.03	210.65
692.16	227.03
692.30	248.10
692.43	276.18
692.57	236.39
692.70	234.05
692.84	322.99
692.97	341.72
693.11	383.85
693.24	451.72
693.38	463.43
693.51	564.07
693.65	711.52
693.78	685.78
693.92	641.31
694.05	601.52
694.19	440.02
694.32	456.40
694.45	407.25
694.59	322.99
694.72	259.80
694.86	217.67
694.99	278.52
695.13	238.73
695.26	243.42
695.39	273.84
695.53	283.20
695.66	168.52
695.80	248.10
695.93	262.14
696.07	252.78
696.20	201.29
696.33	215.33
696.47	313.63
696.60	290.23
696.73	276.18
696.87	231.71
697.00	231.71
697.14	189.58
697.27	170.86
697.40	259.80
697.54	95.96
697.67	241.08
697.80	198.95
697.94	231.71
698.07	138.09
698.21	168.52
698.34	194.26
698.47	128.73
698.61	208.31
698.74	187.24
698.87	173.20
699.01	175.54
699.14	177.88
699.27	156.82
699.40	325.33
699.54	222.35
699.67	217.67
699.80	135.75
699.94	203.63
700.07	107.66
700.20	198.95
700.34	210.65
700.47	159.16
700.60	245.76
700.73	161.50
700.87	222.35
701.00	229.37
701.13	166.18
701.26	210.65
701.40	210.65
701.53	208.31
701.66	161.50
701.79	250.44
701.93	243.42
702.06	245.76
702.19	168.52
702.32	177.88
702.46	215.33
702.59	203.63
702.72	182.56
702.85	163.84
702.99	297.25
703.12	250.44
703.25	222.35
703.38	212.99
703.51	304.27
703.65	212.99
703.78	236.39
703.91	325.33
704.04	297.25
704.17	320.65
704.31	304.27
704.44	250.44
704.57	301.93
704.70	318.31
704.83	287.89
704.96	318.31
705.10	386.19
705.23	306.61
>>>>>End Processed Spectral Data<<<<<
