SpectraSuite Data File
++++++++++++++++++++++++++++++++++++
Date: Fri Oct 04 11:42:29 GMT-05:00 2013
User: price-jones
Dark Spectrum Present: No
Reference Spectrum Present: No
Number of Sampled Component Spectra: 1
Spectrometers: USB2+H05261
Integration Time (usec): 100000 (USB2+H05261)
Spectra Averaged: 1 (USB2+H05261)
Boxcar Smoothing: 0 (USB2+H05261)
Correct for Electrical Dark: No (USB2+H05261)
Strobe/Lamp Enabled: No (USB2+H05261)
Correct for Detector Non-linearity: No (USB2+H05261)
Correct for Stray Light: No (USB2+H05261)
Number of Pixels in Processed Spectrum: 2048
>>>>>Begin Processed Spectral Data<<<<<
365.73	28.09
365.92	28.09
366.12	28.09
366.32	0.00
366.52	0.00
366.72	0.00
366.91	0.00
367.11	0.00
367.31	0.00
367.51	0.00
367.70	0.00
367.90	0.00
368.10	0.00
368.30	0.00
368.49	0.00
368.69	46.81
368.89	0.00
369.09	0.00
369.28	0.00
369.48	0.00
369.68	4.68
369.87	65.54
370.07	0.00
370.27	0.00
370.47	0.00
370.66	0.00
370.86	0.00
371.06	95.96
371.25	84.26
371.45	0.00
371.65	72.56
371.84	121.71
372.04	114.69
372.24	23.41
372.44	65.54
372.63	177.88
372.83	168.52
373.03	161.50
373.22	112.35
373.42	154.48
373.62	107.66
373.81	112.35
374.01	135.75
374.21	131.07
374.40	112.35
374.60	79.58
374.79	84.26
374.99	114.69
375.19	98.30
375.38	112.35
375.58	39.79
375.78	135.75
375.97	84.26
376.17	152.13
376.37	72.56
376.56	184.90
376.76	135.75
376.95	4.68
377.15	135.75
377.35	119.37
377.54	194.26
377.74	184.90
377.93	208.31
378.13	86.60
378.33	194.26
378.52	77.24
378.72	112.35
378.91	105.32
379.11	93.62
379.31	131.07
379.50	93.62
379.70	91.28
379.89	126.39
380.09	105.32
380.28	117.03
380.48	114.69
380.68	126.39
380.87	112.35
381.07	140.43
381.26	133.41
381.46	107.66
381.65	184.90
381.85	161.50
382.04	81.92
382.24	159.16
382.43	114.69
382.63	65.54
382.83	117.03
383.02	159.16
383.22	205.97
383.41	70.22
383.61	161.50
383.80	126.39
384.00	121.71
384.19	133.41
384.39	88.94
384.58	154.48
384.78	105.32
384.97	114.69
385.17	156.82
385.36	91.28
385.56	39.79
385.75	105.32
385.95	145.11
386.14	142.77
386.34	135.75
386.53	119.37
386.72	93.62
386.92	166.18
387.11	119.37
387.31	147.45
387.50	114.69
387.70	184.90
387.89	140.43
388.09	95.96
388.28	86.60
388.48	93.62
388.67	67.88
388.86	77.24
389.06	93.62
389.25	100.64
389.45	128.73
389.64	147.45
389.84	86.60
390.03	128.73
390.22	63.19
390.42	121.71
390.61	107.66
390.81	56.17
391.00	56.17
391.19	170.86
391.39	170.86
391.58	0.00
391.78	91.28
391.97	131.07
392.16	86.60
392.36	133.41
392.55	100.64
392.75	86.60
392.94	133.41
393.13	175.54
393.33	79.58
393.52	175.54
393.71	145.11
393.91	79.58
394.10	102.98
394.29	98.30
394.49	86.60
394.68	117.03
394.88	135.75
395.07	63.19
395.26	147.45
395.46	86.60
395.65	198.95
395.84	161.50
396.04	187.24
396.23	74.90
396.42	135.75
396.62	163.84
396.81	140.43
397.00	100.64
397.19	98.30
397.39	145.11
397.58	163.84
397.77	159.16
397.97	147.45
398.16	135.75
398.35	107.66
398.55	102.98
398.74	161.50
398.93	145.11
399.12	79.58
399.32	201.29
399.51	198.95
399.70	114.69
399.90	184.90
400.09	112.35
400.28	131.07
400.47	156.82
400.67	138.09
400.86	105.32
401.05	110.01
401.24	135.75
401.44	142.77
401.63	142.77
401.82	128.73
402.01	37.45
402.21	86.60
402.40	110.01
402.59	91.28
402.78	133.41
402.97	173.20
403.17	135.75
403.36	121.71
403.55	168.52
403.74	386.19
403.93	1116.44
404.13	1949.67
404.32	2270.32
404.51	1813.92
404.70	1144.52
404.89	470.45
405.09	308.95
405.28	205.97
405.47	124.05
405.66	161.50
405.85	187.24
406.05	194.26
406.24	142.77
406.43	140.43
406.62	149.79
406.81	194.26
407.00	262.14
407.20	299.59
407.39	425.98
407.58	374.49
407.77	330.02
407.96	215.33
408.15	227.03
408.34	215.33
408.54	203.63
408.73	117.03
408.92	241.08
409.11	156.82
409.30	135.75
409.49	70.22
409.68	149.79
409.87	175.54
410.07	205.97
410.26	170.86
410.45	224.69
410.64	156.82
410.83	154.48
411.02	194.26
411.21	208.31
411.40	149.79
411.59	170.86
411.78	145.11
411.98	161.50
412.17	105.32
412.36	131.07
412.55	175.54
412.74	198.95
412.93	173.20
413.12	91.28
413.31	220.01
413.50	173.20
413.69	182.56
413.88	189.58
414.07	105.32
414.26	145.11
414.45	154.48
414.64	290.23
414.83	203.63
415.02	177.88
415.22	154.48
415.41	154.48
415.60	175.54
415.79	140.43
415.98	201.29
416.17	241.08
416.36	102.98
416.55	177.88
416.74	215.33
416.93	224.69
417.12	135.75
417.31	238.73
417.50	177.88
417.69	194.26
417.88	100.64
418.07	231.71
418.26	163.84
418.45	152.13
418.64	245.76
418.83	194.26
419.02	269.16
419.21	177.88
419.39	112.35
419.58	182.56
419.77	138.09
419.96	163.84
420.15	243.42
420.34	203.63
420.53	217.67
420.72	194.26
420.91	177.88
421.10	189.58
421.29	182.56
421.48	149.79
421.67	182.56
421.86	241.08
422.05	126.39
422.24	191.92
422.43	215.33
422.61	203.63
422.80	177.88
422.99	168.52
423.18	208.31
423.37	191.92
423.56	196.60
423.75	245.76
423.94	191.92
424.13	166.18
424.32	149.79
424.50	135.75
424.69	173.20
424.88	238.73
425.07	210.65
425.26	220.01
425.45	257.46
425.64	173.20
425.83	152.13
426.01	156.82
426.20	201.29
426.39	191.92
426.58	224.69
426.77	201.29
426.96	205.97
427.15	250.44
427.33	222.35
427.52	220.01
427.71	201.29
427.90	175.54
428.09	170.86
428.28	220.01
428.46	212.99
428.65	201.29
428.84	234.05
429.03	224.69
429.22	238.73
429.40	191.92
429.59	187.24
429.78	222.35
429.97	189.58
430.16	175.54
430.34	173.20
430.53	205.97
430.72	248.10
430.91	245.76
431.10	262.14
431.28	217.67
431.47	212.99
431.66	264.48
431.85	217.67
432.03	189.58
432.22	292.57
432.41	243.42
432.60	224.69
432.79	191.92
432.97	283.20
433.16	322.99
433.35	245.76
433.54	250.44
433.72	315.97
433.91	290.23
434.10	332.36
434.28	416.62
434.47	397.89
434.66	491.51
434.85	674.07
435.03	1879.45
435.22	6289.02
435.41	10132.18
435.59	9320.01
435.78	5830.27
435.97	2998.23
436.16	1252.19
436.34	524.28
436.53	325.33
436.72	243.42
436.90	285.55
437.09	241.08
437.28	257.46
437.46	238.73
437.65	259.80
437.84	294.91
438.02	262.14
438.21	266.82
438.40	201.29
438.58	243.42
438.77	203.63
438.96	180.22
439.14	212.99
439.33	292.57
439.52	229.37
439.70	259.80
439.89	285.55
440.08	294.91
440.26	285.55
440.45	285.55
440.63	250.44
440.82	301.93
441.01	238.73
441.19	252.78
441.38	285.55
441.57	212.99
441.75	283.20
441.94	276.18
442.12	273.84
442.31	264.48
442.50	234.05
442.68	189.58
442.87	297.25
443.05	231.71
443.24	173.20
443.43	325.33
443.61	259.80
443.80	311.29
443.98	320.65
444.17	231.71
444.35	210.65
444.54	292.57
444.73	238.73
444.91	273.84
445.10	217.67
445.28	255.12
445.47	229.37
445.65	257.46
445.84	236.39
446.02	292.57
446.21	287.89
446.39	243.42
446.58	285.55
446.77	231.71
446.95	236.39
447.14	292.57
447.32	266.82
447.51	264.48
447.69	203.63
447.88	229.37
448.06	241.08
448.25	341.72
448.43	243.42
448.62	231.71
448.80	276.18
448.99	255.12
449.17	236.39
449.36	243.42
449.54	262.14
449.73	266.82
449.91	313.63
450.10	290.23
450.28	292.57
450.46	220.01
450.65	337.04
450.83	243.42
451.02	294.91
451.20	287.89
451.39	264.48
451.57	252.78
451.76	311.29
451.94	215.33
452.13	248.10
452.31	241.08
452.49	308.95
452.68	154.48
452.86	245.76
453.05	299.59
453.23	191.92
453.42	229.37
453.60	234.05
453.78	283.20
453.97	262.14
454.15	168.52
454.34	229.37
454.52	262.14
454.70	325.33
454.89	334.70
455.07	208.31
455.26	201.29
455.44	262.14
455.62	266.82
455.81	245.76
455.99	241.08
456.17	255.12
456.36	210.65
456.54	234.05
456.73	224.69
456.91	318.31
457.09	217.67
457.28	283.20
457.46	327.68
457.64	311.29
457.83	170.86
458.01	273.84
458.19	322.99
458.38	280.86
458.56	276.18
458.74	194.26
458.93	217.67
459.11	227.03
459.29	266.82
459.48	290.23
459.66	297.25
459.84	241.08
460.03	358.10
460.21	271.50
460.39	255.12
460.57	259.80
460.76	280.86
460.94	299.59
461.12	318.31
461.31	334.70
461.49	243.42
461.67	191.92
461.85	177.88
462.04	166.18
462.22	379.17
462.40	262.14
462.59	215.33
462.77	259.80
462.95	334.70
463.13	198.95
463.32	259.80
463.50	248.10
463.68	301.93
463.86	252.78
464.05	147.45
464.23	257.46
464.41	306.61
464.59	271.50
464.78	241.08
464.96	210.65
465.14	243.42
465.32	212.99
465.50	271.50
465.69	276.18
465.87	257.46
466.05	292.57
466.23	276.18
466.41	273.84
466.60	252.78
466.78	210.65
466.96	297.25
467.14	234.05
467.32	269.16
467.51	210.65
467.69	198.95
467.87	290.23
468.05	262.14
468.23	280.86
468.41	332.36
468.60	189.58
468.78	210.65
468.96	234.05
469.14	250.44
469.32	205.97
469.50	276.18
469.69	229.37
469.87	210.65
470.05	198.95
470.23	243.42
470.41	229.37
470.59	278.52
470.77	201.29
470.95	252.78
471.14	283.20
471.32	238.73
471.50	322.99
471.68	234.05
471.86	238.73
472.04	241.08
472.22	306.61
472.40	210.65
472.58	257.46
472.77	198.95
472.95	252.78
473.13	290.23
473.31	231.71
473.49	217.67
473.67	297.25
473.85	292.57
474.03	259.80
474.21	250.44
474.39	327.68
474.57	273.84
474.75	252.78
474.93	250.44
475.12	191.92
475.30	238.73
475.48	273.84
475.66	301.93
475.84	255.12
476.02	306.61
476.20	163.84
476.38	156.82
476.56	339.38
476.74	234.05
476.92	217.67
477.10	236.39
477.28	304.27
477.46	285.55
477.64	304.27
477.82	306.61
478.00	241.08
478.18	299.59
478.36	351.08
478.54	264.48
478.72	236.39
478.90	322.99
479.08	325.33
479.26	297.25
479.44	341.72
479.62	294.91
479.80	262.14
479.98	299.59
480.16	304.27
480.34	304.27
480.52	362.78
480.70	339.38
480.88	290.23
481.06	374.49
481.24	344.06
481.41	332.36
481.59	374.49
481.77	379.17
481.95	416.62
482.13	442.36
482.31	390.87
482.49	454.06
482.67	599.18
482.85	507.90
483.03	582.79
483.21	603.86
483.39	650.67
483.57	627.26
483.74	669.39
483.92	702.16
484.10	699.82
484.28	842.59
484.46	784.08
484.64	819.19
484.82	903.45
485.00	947.92
485.18	959.62
485.35	976.00
485.53	912.81
485.71	1048.56
485.89	1043.88
486.07	1074.31
486.25	1163.25
486.43	1151.54
486.61	1118.78
486.78	1181.97
486.96	1097.71
487.14	1142.18
487.32	1069.62
487.50	1046.22
487.68	1032.18
487.85	1050.90
488.03	1022.81
488.21	1074.31
488.39	1013.45
488.57	1025.15
488.75	966.64
488.92	1240.48
489.10	1104.73
489.28	945.58
489.46	971.32
489.64	889.40
489.81	924.51
489.99	1043.88
490.17	889.40
490.35	950.26
490.53	830.89
490.70	919.83
490.88	894.08
491.06	952.60
491.24	1032.18
491.41	1074.31
491.59	950.26
491.77	791.10
491.95	828.55
492.13	870.68
492.30	826.21
492.48	919.83
492.66	875.36
492.84	858.98
493.01	861.32
493.19	774.72
493.37	840.25
493.54	760.67
493.72	774.72
493.90	690.46
494.08	748.97
494.25	807.48
494.43	812.17
494.61	763.01
494.79	688.12
494.96	702.16
495.14	669.39
495.32	699.82
495.49	711.52
495.67	744.29
495.85	575.77
496.02	627.26
496.20	662.37
496.38	660.03
496.55	636.63
496.73	610.88
496.91	638.97
497.09	653.01
497.26	533.64
497.44	603.86
497.62	594.50
497.79	557.05
497.97	545.34
498.14	566.41
498.32	601.52
498.50	486.83
498.67	564.07
498.85	465.77
499.03	477.47
499.20	503.22
499.38	512.58
499.56	477.47
499.73	585.13
499.91	524.28
500.08	496.19
500.26	507.90
500.44	390.87
500.61	519.60
500.79	381.51
500.97	409.59
501.14	437.68
501.32	444.70
501.49	416.62
501.67	425.98
501.84	451.72
502.02	423.64
502.20	423.64
502.37	386.19
502.55	407.25
502.72	407.25
502.90	360.44
503.07	416.62
503.25	355.76
503.43	341.72
503.60	400.23
503.78	390.87
503.95	358.10
504.13	299.59
504.30	418.96
504.48	344.06
504.65	353.42
504.83	313.63
505.01	337.04
505.18	372.15
505.36	266.82
505.53	348.74
505.71	360.44
505.88	376.83
506.06	341.72
506.23	315.97
506.41	245.76
506.58	257.46
506.76	358.10
506.93	290.23
507.11	259.80
507.28	294.91
507.46	374.49
507.63	287.89
507.81	297.25
507.98	311.29
508.16	266.82
508.33	322.99
508.50	337.04
508.68	327.68
508.85	292.57
509.03	330.02
509.20	313.63
509.38	311.29
509.55	395.55
509.73	365.12
509.90	344.06
510.08	374.49
510.25	315.97
510.42	320.65
510.60	327.68
510.77	341.72
510.95	315.97
511.12	337.04
511.30	330.02
511.47	301.93
511.64	337.04
511.82	220.01
511.99	313.63
512.17	372.15
512.34	227.03
512.51	301.93
512.69	304.27
512.86	332.36
513.04	297.25
513.21	330.02
513.38	334.70
513.56	299.59
513.73	311.29
513.90	250.44
514.08	332.36
514.25	376.83
514.43	290.23
514.60	290.23
514.77	292.57
514.95	283.20
515.12	243.42
515.29	294.91
515.47	220.01
515.64	257.46
515.81	280.86
515.99	257.46
516.16	266.82
516.33	330.02
516.51	198.95
516.68	220.01
516.85	262.14
517.03	271.50
517.20	234.05
517.37	280.86
517.54	271.50
517.72	285.55
517.89	217.67
518.06	280.86
518.24	308.95
518.41	271.50
518.58	315.97
518.75	334.70
518.93	217.67
519.10	252.78
519.27	259.80
519.45	299.59
519.62	248.10
519.79	299.59
519.96	234.05
520.14	224.69
520.31	313.63
520.48	348.74
520.65	306.61
520.83	334.70
521.00	318.31
521.17	287.89
521.34	285.55
521.52	304.27
521.69	304.27
521.86	315.97
522.03	273.84
522.20	234.05
522.38	285.55
522.55	290.23
522.72	301.93
522.89	269.16
523.07	236.39
523.24	292.57
523.41	318.31
523.58	308.95
523.75	236.39
523.92	299.59
524.10	236.39
524.27	231.71
524.44	245.76
524.61	365.12
524.78	318.31
524.96	330.02
525.13	334.70
525.30	433.00
525.47	386.19
525.64	285.55
525.81	262.14
525.98	351.08
526.16	269.16
526.33	243.42
526.50	264.48
526.67	278.52
526.84	276.18
527.01	210.65
527.18	348.74
527.36	290.23
527.53	376.83
527.70	308.95
527.87	243.42
528.04	367.46
528.21	308.95
528.38	322.99
528.55	355.76
528.72	414.27
528.89	358.10
529.07	362.78
529.24	308.95
529.41	423.64
529.58	339.38
529.75	332.36
529.92	315.97
530.09	320.65
530.26	369.80
530.43	330.02
530.60	353.42
530.77	416.62
530.94	341.72
531.11	313.63
531.28	430.66
531.46	358.10
531.63	484.49
531.80	290.23
531.97	360.44
532.14	449.38
532.31	437.68
532.48	564.07
532.65	559.39
532.82	620.24
532.99	685.78
533.16	744.29
533.33	704.50
533.50	594.50
533.67	620.24
533.84	573.43
534.01	566.41
534.18	496.19
534.35	470.45
534.52	491.51
534.69	561.73
534.86	564.07
535.03	559.39
535.20	538.32
535.37	617.90
535.54	627.26
535.71	655.35
535.88	697.48
536.05	704.50
536.22	779.40
536.38	770.04
536.55	814.51
536.72	915.15
536.89	1039.20
537.06	1071.97
537.23	1128.14
537.40	1226.44
537.57	1252.19
537.74	1462.83
537.91	1315.38
538.08	1444.11
538.25	1376.24
538.42	1441.77
538.59	1621.99
538.75	1596.25
538.92	1703.91
539.09	1776.47
539.26	2043.29
539.43	2134.57
539.60	2356.92
539.77	2778.22
539.94	3021.63
540.11	3330.58
540.28	3583.36
540.44	3983.59
540.61	4236.37
540.78	4905.76
540.95	5989.43
541.12	6937.35
541.29	7515.46
541.46	7833.77
541.62	7796.32
541.79	7405.46
541.96	6883.52
542.13	6506.69
542.30	5982.41
542.47	5699.20
542.63	5425.36
542.80	5472.17
542.97	5301.31
543.14	5249.82
543.31	5331.74
543.48	5263.86
543.64	5401.96
543.81	5568.13
543.98	5404.30
544.15	5528.35
544.32	5413.66
544.48	5549.41
544.65	5242.80
544.82	5313.02
544.99	5397.28
545.16	5521.32
545.32	5795.17
545.49	12079.50
545.66	19173.67
545.83	20451.60
546.00	16407.16
546.16	11580.97
546.33	8491.46
546.50	6497.33
546.67	5317.70
546.83	4910.44
547.00	4671.71
547.17	4442.34
547.34	4152.11
547.50	4205.94
547.67	3894.65
547.84	3669.96
548.00	3735.50
548.17	3473.36
548.34	3459.31
548.51	3236.96
548.67	3218.24
548.84	2958.44
549.01	2906.95
549.18	2729.06
549.34	2654.17
549.51	2546.50
549.68	2499.69
549.84	2279.68
550.01	2267.98
550.18	2298.41
550.34	2120.53
550.51	1982.43
550.68	1998.82
550.84	1771.79
551.01	1687.53
551.18	1605.61
551.34	1631.35
551.51	1549.43
551.68	1439.43
551.84	1474.54
552.01	1481.56
552.18	1397.30
552.34	1348.15
552.51	1350.49
552.68	1174.95
552.84	1240.48
553.01	1160.91
553.18	1104.73
553.34	1116.44
553.51	1043.88
553.67	1097.71
553.84	1004.09
554.01	987.71
554.17	896.43
554.34	847.27
554.51	882.38
554.67	723.23
554.84	732.59
555.00	711.52
555.17	704.50
555.33	631.94
555.50	561.73
555.67	636.63
555.83	585.13
556.00	575.77
556.16	699.82
556.33	575.77
556.50	624.92
556.66	547.69
556.83	472.79
556.99	489.17
557.16	521.94
557.32	456.40
557.49	603.86
557.65	456.40
557.82	463.43
557.98	507.90
558.15	477.47
558.32	428.32
558.48	468.11
558.65	402.57
558.81	489.17
558.98	477.47
559.14	433.00
559.31	379.17
559.47	409.59
559.64	442.36
559.80	465.77
559.97	351.08
560.13	442.36
560.30	367.46
560.46	444.70
560.63	430.66
560.79	409.59
560.96	433.00
561.12	451.72
561.29	416.62
561.45	365.12
561.61	297.25
561.78	507.90
561.94	451.72
562.11	383.85
562.27	430.66
562.44	388.53
562.60	337.04
562.77	315.97
562.93	409.59
563.10	353.42
563.26	381.51
563.42	433.00
563.59	355.76
563.75	400.23
563.92	390.87
564.08	362.78
564.24	386.19
564.41	421.30
564.57	327.68
564.74	318.31
564.90	362.78
565.07	351.08
565.23	355.76
565.39	374.49
565.56	341.72
565.72	360.44
565.88	313.63
566.05	330.02
566.21	360.44
566.38	400.23
566.54	330.02
566.70	379.17
566.87	358.10
567.03	264.48
567.19	339.38
567.36	411.93
567.52	327.68
567.68	388.53
567.85	365.12
568.01	353.42
568.17	397.89
568.34	304.27
568.50	311.29
568.66	301.93
568.83	330.02
568.99	287.89
569.15	379.17
569.32	322.99
569.48	311.29
569.64	360.44
569.81	339.38
569.97	212.99
570.13	444.70
570.30	243.42
570.46	313.63
570.62	243.42
570.78	290.23
570.95	301.93
571.11	259.80
571.27	360.44
571.43	341.72
571.60	379.17
571.76	259.80
571.92	245.76
572.09	194.26
572.25	250.44
572.41	315.97
572.57	203.63
572.74	404.91
572.90	257.46
573.06	360.44
573.22	339.38
573.38	273.84
573.55	299.59
573.71	383.85
573.87	360.44
574.03	365.12
574.20	397.89
574.36	355.76
574.52	330.02
574.68	285.55
574.84	308.95
575.01	355.76
575.17	414.27
575.33	287.89
575.49	369.80
575.65	348.74
575.82	428.32
575.98	435.34
576.14	526.62
576.30	1006.43
576.46	2663.53
576.62	3412.50
576.79	3396.12
576.95	2527.78
577.11	1825.62
577.27	1254.53
577.43	1032.18
577.59	610.88
577.75	561.73
577.92	514.92
578.08	566.41
578.24	550.03
578.40	1100.05
578.56	2368.62
578.72	3323.56
578.88	3075.46
579.04	2431.82
579.21	1729.66
579.37	1306.02
579.53	1083.67
579.69	1191.33
579.85	1350.49
580.01	1584.54
580.17	1380.92
580.33	1231.12
580.49	1130.48
580.65	1006.43
580.82	983.02
580.98	933.87
581.14	936.21
581.30	1081.33
581.46	1128.14
581.62	1181.97
581.78	1245.16
581.94	1275.59
582.10	1273.25
582.26	1289.64
582.42	1357.51
582.58	1411.34
582.74	1507.30
582.90	1483.90
583.06	1523.69
583.22	1542.41
583.38	1460.49
583.54	1479.22
583.70	1535.39
583.86	1427.73
584.02	1385.60
584.18	1526.03
584.34	1437.09
584.50	1392.62
584.66	1308.36
584.82	1280.27
584.98	1362.19
585.14	1296.66
585.30	1170.27
585.46	1245.16
585.62	1282.61
585.78	1196.01
585.94	1270.91
586.10	1362.19
586.26	1266.23
586.42	1612.63
586.58	1816.26
586.74	2108.82
586.90	2527.78
587.06	2614.38
587.22	2497.35
587.38	2270.32
587.54	1991.80
587.70	1774.13
587.86	1511.99
588.02	1310.70
588.18	1254.53
588.34	1125.80
588.49	994.73
588.65	1008.77
588.81	870.68
588.97	840.25
589.13	823.87
589.29	905.79
589.45	940.90
589.61	854.30
589.77	968.98
589.93	884.72
590.08	999.41
590.24	926.85
590.40	917.49
590.56	1015.79
590.72	1020.47
590.88	933.87
591.04	1086.01
591.20	1048.56
591.35	1149.20
591.51	1114.10
591.67	1111.75
591.83	1315.38
591.99	1420.71
592.15	1411.34
592.31	1605.61
592.46	1757.74
592.62	1884.13
592.78	1968.39
592.94	1874.77
593.10	1802.21
593.26	1743.70
593.41	1696.89
593.57	1542.41
593.73	1317.72
593.89	1217.08
594.05	1053.24
594.20	887.06
594.36	997.07
594.52	922.17
594.68	915.15
594.84	784.08
594.99	896.43
595.15	800.46
595.31	777.06
595.47	791.10
595.62	737.27
595.78	798.12
595.94	784.08
596.10	858.98
596.25	868.34
596.41	784.08
596.57	793.44
596.73	784.08
596.88	819.19
597.04	711.52
597.20	765.36
597.36	905.79
597.51	837.91
597.67	816.85
597.83	882.38
597.99	933.87
598.14	926.85
598.30	1071.97
598.46	1088.35
598.61	1184.31
598.77	1123.46
598.93	1228.78
599.09	1308.36
599.24	1266.23
599.40	1280.27
599.56	1217.08
599.71	1130.48
599.87	1093.03
600.03	1118.78
600.18	912.81
600.34	994.73
600.50	819.19
600.65	753.65
600.81	816.85
600.97	784.08
601.12	667.05
601.28	706.84
601.44	660.03
601.59	657.69
601.75	559.39
601.91	624.92
602.06	573.43
602.22	674.07
602.37	566.41
602.53	599.18
602.69	664.71
602.84	550.03
603.00	617.90
603.16	587.47
603.31	671.73
603.47	606.20
603.62	575.77
603.78	552.37
603.94	606.20
604.09	610.88
604.25	767.70
604.40	601.52
604.56	547.69
604.71	683.44
604.87	636.63
605.03	727.91
605.18	734.93
605.34	767.70
605.49	683.44
605.65	620.24
605.80	760.67
605.96	692.80
606.12	725.57
606.27	774.72
606.43	823.87
606.58	901.11
606.74	849.61
606.89	823.87
607.05	933.87
607.20	940.90
607.36	1097.71
607.51	1076.65
607.67	1146.86
607.82	1142.18
607.98	1291.98
608.13	1387.94
608.29	1488.58
608.44	1425.39
608.60	1678.16
608.75	1849.02
608.91	2005.84
609.06	2162.66
609.22	2366.28
609.37	2567.57
609.53	2864.82
609.68	3225.26
609.84	3709.75
609.99	4294.88
610.15	5130.45
610.30	6443.49
610.46	8086.55
610.61	10363.89
610.76	12774.64
610.92	15372.64
611.07	16896.33
611.23	16929.09
611.38	15630.10
611.54	13469.78
611.69	11843.11
611.84	9963.66
612.00	8411.89
612.15	7075.44
612.31	6331.15
612.46	5673.46
612.62	5060.24
612.77	4994.70
612.92	4833.21
613.08	4514.89
613.23	4252.75
613.39	4154.45
613.54	4112.32
613.69	3899.33
613.85	3845.50
614.00	3875.93
614.15	3868.91
614.31	3786.99
614.46	3674.64
614.62	3452.29
614.77	3541.23
614.92	3150.36
615.08	3016.95
615.23	2843.75
615.38	2476.29
615.54	2420.11
615.69	2104.14
615.84	1994.14
616.00	1966.05
616.15	1654.76
616.30	1633.69
616.46	1549.43
616.61	1497.94
616.76	1507.30
616.92	1409.00
617.07	1214.74
617.22	1259.21
617.37	1179.63
617.53	1191.33
617.68	1142.18
617.83	1060.26
617.99	1179.63
618.14	1086.01
618.29	1053.24
618.45	983.02
618.60	915.15
618.75	1043.88
618.90	947.92
619.06	903.45
619.21	1029.84
619.36	992.39
619.51	959.62
619.67	1043.88
619.82	922.17
619.97	1027.50
620.12	973.66
620.28	968.98
620.43	959.62
620.58	994.73
620.73	1025.15
620.89	1006.43
621.04	1001.75
621.19	1116.44
621.34	1006.43
621.49	896.43
621.65	940.90
621.80	1006.43
621.95	1071.97
622.10	1046.22
622.25	954.94
622.41	947.92
622.56	997.07
622.71	1022.81
622.86	1090.69
623.01	1015.79
623.16	1046.22
623.32	1109.41
623.47	1137.50
623.62	1053.24
623.77	1172.61
623.92	1027.50
624.07	1109.41
624.23	1074.31
624.38	1020.47
624.53	1100.05
624.68	1050.90
624.83	1151.54
624.98	950.26
625.13	1146.86
625.29	1114.10
625.44	1137.50
625.59	1132.82
625.74	1093.03
625.89	1053.24
626.04	1043.88
626.19	1074.31
626.34	1076.65
626.49	1022.81
626.65	1006.43
626.80	1053.24
626.95	1060.26
627.10	954.94
627.25	1046.22
627.40	1004.09
627.55	973.66
627.70	959.62
627.85	1015.79
628.00	901.11
628.15	980.68
628.30	1004.09
628.45	940.90
628.60	997.07
628.76	971.32
628.91	837.91
629.06	973.66
629.21	990.05
629.36	1078.99
629.51	1132.82
629.66	1184.31
629.81	1210.06
629.96	1277.93
630.11	1376.24
630.26	1568.16
630.41	1696.89
630.56	1846.68
630.71	1860.73
630.86	2040.95
631.01	1914.56
631.16	1823.28
631.31	1619.65
631.46	1401.98
631.61	1146.86
631.76	1109.41
631.91	875.36
632.06	807.48
632.21	669.39
632.36	650.67
632.51	620.24
632.66	493.85
632.81	486.83
632.96	484.49
633.10	507.90
633.25	479.81
633.40	447.04
633.55	402.57
633.70	482.15
633.85	388.53
634.00	374.49
634.15	444.70
634.30	507.90
634.45	367.46
634.60	440.02
634.75	421.30
634.90	388.53
635.05	367.46
635.19	365.12
635.34	358.10
635.49	379.17
635.64	362.78
635.79	390.87
635.94	435.34
636.09	360.44
636.24	402.57
636.39	269.16
636.53	411.93
636.68	362.78
636.83	341.72
636.98	337.04
637.13	322.99
637.28	315.97
637.43	369.80
637.57	367.46
637.72	351.08
637.87	341.72
638.02	330.02
638.17	304.27
638.32	334.70
638.46	294.91
638.61	430.66
638.76	301.93
638.91	287.89
639.06	320.65
639.20	311.29
639.35	292.57
639.50	269.16
639.65	292.57
639.80	327.68
639.94	304.27
640.09	285.55
640.24	327.68
640.39	299.59
640.54	341.72
640.68	273.84
640.83	278.52
640.98	294.91
641.13	304.27
641.27	348.74
641.42	255.12
641.57	280.86
641.72	292.57
641.86	264.48
642.01	351.08
642.16	299.59
642.31	280.86
642.45	318.31
642.60	341.72
642.75	285.55
642.90	339.38
643.04	341.72
643.19	311.29
643.34	285.55
643.48	369.80
643.63	259.80
643.78	376.83
643.93	292.57
644.07	318.31
644.22	308.95
644.37	353.42
644.51	294.91
644.66	346.40
644.81	287.89
644.95	285.55
645.10	203.63
645.25	297.25
645.39	227.03
645.54	318.31
645.69	334.70
645.83	304.27
645.98	390.87
646.13	308.95
646.27	203.63
646.42	145.11
646.57	224.69
646.71	224.69
646.86	327.68
647.00	322.99
647.15	276.18
647.30	250.44
647.44	283.20
647.59	271.50
647.74	266.82
647.88	308.95
648.03	245.76
648.17	320.65
648.32	236.39
648.47	334.70
648.61	273.84
648.76	304.27
648.90	231.71
649.05	332.36
649.20	313.63
649.34	358.10
649.49	362.78
649.63	409.59
649.78	440.02
649.92	514.92
650.07	554.71
650.21	617.90
650.36	706.84
650.51	540.66
650.65	690.46
650.80	482.15
650.94	524.28
651.09	435.34
651.23	402.57
651.38	304.27
651.52	301.93
651.67	362.78
651.81	322.99
651.96	376.83
652.10	416.62
652.25	360.44
652.39	332.36
652.54	332.36
652.68	330.02
652.83	402.57
652.97	428.32
653.12	386.19
653.26	346.40
653.41	411.93
653.55	311.29
653.70	306.61
653.84	287.89
653.99	341.72
654.13	341.72
654.27	365.12
654.42	287.89
654.56	248.10
654.71	292.57
654.85	245.76
655.00	276.18
655.14	283.20
655.29	278.52
655.43	273.84
655.57	234.05
655.72	245.76
655.86	262.14
656.01	250.44
656.15	252.78
656.30	330.02
656.44	234.05
656.58	180.22
656.73	250.44
656.87	327.68
657.01	278.52
657.16	299.59
657.30	287.89
657.45	322.99
657.59	227.03
657.73	304.27
657.88	248.10
658.02	402.57
658.16	273.84
658.31	241.08
658.45	269.16
658.60	177.88
658.74	257.46
658.88	243.42
659.03	217.67
659.17	196.60
659.31	245.76
659.46	243.42
659.60	189.58
659.74	241.08
659.89	266.82
660.03	159.16
660.17	301.93
660.32	297.25
660.46	315.97
660.60	159.16
660.74	243.42
660.89	278.52
661.03	264.48
661.17	322.99
661.32	271.50
661.46	287.89
661.60	306.61
661.74	395.55
661.89	479.81
662.03	442.36
662.17	393.21
662.31	395.55
662.46	397.89
662.60	465.77
662.74	325.33
662.88	381.51
663.03	358.10
663.17	222.35
663.31	297.25
663.45	290.23
663.60	224.69
663.74	212.99
663.88	322.99
664.02	383.85
664.17	294.91
664.31	187.24
664.45	257.46
664.59	222.35
664.73	306.61
664.88	217.67
665.02	234.05
665.16	222.35
665.30	168.52
665.44	159.16
665.59	222.35
665.73	271.50
665.87	201.29
666.01	191.92
666.15	234.05
666.29	220.01
666.44	306.61
666.58	306.61
666.72	234.05
666.86	250.44
667.00	262.14
667.14	224.69
667.28	308.95
667.43	283.20
667.57	257.46
667.71	205.97
667.85	297.25
667.99	212.99
668.13	229.37
668.27	248.10
668.41	222.35
668.56	252.78
668.70	198.95
668.84	189.58
668.98	269.16
669.12	250.44
669.26	280.86
669.40	262.14
669.54	241.08
669.68	210.65
669.82	308.95
669.96	215.33
670.10	241.08
670.25	203.63
670.39	257.46
670.53	229.37
670.67	163.84
670.81	142.77
670.95	196.60
671.09	248.10
671.23	278.52
671.37	189.58
671.51	250.44
671.65	182.56
671.79	215.33
671.93	187.24
672.07	252.78
672.21	259.80
672.35	245.76
672.49	304.27
672.63	276.18
672.77	215.33
672.91	170.86
673.05	203.63
673.19	229.37
673.33	159.16
673.47	290.23
673.61	191.92
673.75	212.99
673.89	147.45
674.03	241.08
674.17	212.99
674.31	215.33
674.45	189.58
674.59	161.50
674.73	212.99
674.87	159.16
675.01	304.27
675.15	292.57
675.29	203.63
675.43	198.95
675.56	257.46
675.70	187.24
675.84	175.54
675.98	177.88
676.12	182.56
676.26	173.20
676.40	196.60
676.54	138.09
676.68	201.29
676.82	210.65
676.96	220.01
677.10	156.82
677.23	175.54
677.37	229.37
677.51	238.73
677.65	287.89
677.79	215.33
677.93	215.33
678.07	168.52
678.21	201.29
678.34	222.35
678.48	168.52
678.62	191.92
678.76	149.79
678.90	140.43
679.04	194.26
679.18	142.77
679.31	180.22
679.45	210.65
679.59	217.67
679.73	201.29
679.87	135.75
680.00	187.24
680.14	208.31
680.28	215.33
680.42	184.90
680.56	243.42
680.70	173.20
680.83	203.63
680.97	231.71
681.11	156.82
681.25	180.22
681.39	215.33
681.52	154.48
681.66	273.84
681.80	229.37
681.94	198.95
682.07	196.60
682.21	252.78
682.35	205.97
682.49	191.92
682.62	231.71
682.76	154.48
682.90	161.50
683.04	217.67
683.17	229.37
683.31	215.33
683.45	212.99
683.59	149.79
683.72	173.20
683.86	142.77
684.00	177.88
684.13	107.66
684.27	138.09
684.41	205.97
684.55	220.01
684.68	133.41
684.82	124.05
684.96	238.73
685.09	227.03
685.23	156.82
685.37	128.73
685.50	252.78
685.64	173.20
685.78	124.05
685.91	198.95
686.05	299.59
686.19	208.31
686.32	227.03
686.46	198.95
686.60	196.60
686.73	287.89
686.87	273.84
687.01	229.37
687.14	238.73
687.28	245.76
687.42	241.08
687.55	292.57
687.69	252.78
687.82	231.71
687.96	248.10
688.10	308.95
688.23	215.33
688.37	238.73
688.50	222.35
688.64	196.60
688.78	175.54
688.91	194.26
689.05	201.29
689.18	227.03
689.32	180.22
689.46	135.75
689.59	182.56
689.73	243.42
689.86	86.60
690.00	112.35
690.13	166.18
690.27	201.29
690.41	215.33
690.54	222.35
690.68	201.29
690.81	201.29
690.95	201.29
691.08	184.90
691.22	180.22
691.35	102.98
691.49	170.86
691.62	98.30
691.76	196.60
691.89	208.31
692.03	191.92
692.16	145.11
692.30	227.03
692.43	173.20
692.57	140.43
692.70	93.62
692.84	222.35
692.97	168.52
693.11	191.92
693.24	187.24
693.38	173.20
693.51	215.33
693.65	252.78
693.78	198.95
693.92	201.29
694.05	189.58
694.19	196.60
694.32	161.50
694.45	194.26
694.59	119.37
694.72	138.09
694.86	177.88
694.99	175.54
695.13	114.69
695.26	170.86
695.39	191.92
695.53	210.65
695.66	212.99
695.80	201.29
695.93	147.45
696.07	152.13
696.20	220.01
696.33	114.69
696.47	173.20
696.60	173.20
696.73	161.50
696.87	128.73
697.00	194.26
697.14	112.35
697.27	65.54
697.40	210.65
697.54	140.43
697.67	196.60
697.80	145.11
697.94	159.16
698.07	159.16
698.21	133.41
698.34	112.35
698.47	128.73
698.61	105.32
698.74	173.20
698.87	220.01
699.01	67.88
699.14	184.90
699.27	175.54
699.40	173.20
699.54	163.84
699.67	142.77
699.80	145.11
699.94	152.13
700.07	205.97
700.20	121.71
700.34	91.28
700.47	98.30
700.60	131.07
700.73	224.69
700.87	91.28
701.00	114.69
701.13	142.77
701.26	161.50
701.40	93.62
701.53	166.18
701.66	189.58
701.79	67.88
701.93	166.18
702.06	187.24
702.19	166.18
702.32	145.11
702.46	128.73
702.59	121.71
702.72	177.88
702.85	145.11
702.99	112.35
703.12	217.67
703.25	173.20
703.38	131.07
703.51	196.60
703.65	177.88
703.78	114.69
703.91	203.63
704.04	217.67
704.17	187.24
704.31	147.45
704.44	119.37
704.57	140.43
704.70	227.03
704.83	205.97
704.96	175.54
705.10	140.43
705.23	180.22
>>>>>End Processed Spectral Data<<<<<
