SpectraSuite Data File
++++++++++++++++++++++++++++++++++++
Date: Fri Oct 04 11:42:27 GMT-05:00 2013
User: price-jones
Dark Spectrum Present: No
Reference Spectrum Present: No
Number of Sampled Component Spectra: 1
Spectrometers: USB2+H05261
Integration Time (usec): 100000 (USB2+H05261)
Spectra Averaged: 1 (USB2+H05261)
Boxcar Smoothing: 0 (USB2+H05261)
Correct for Electrical Dark: No (USB2+H05261)
Strobe/Lamp Enabled: No (USB2+H05261)
Correct for Detector Non-linearity: No (USB2+H05261)
Correct for Stray Light: No (USB2+H05261)
Number of Pixels in Processed Spectrum: 2048
>>>>>Begin Processed Spectral Data<<<<<
365.73	67.88
365.92	67.88
366.12	67.88
366.32	0.00
366.52	0.00
366.72	0.00
366.91	0.00
367.11	9.36
367.31	0.00
367.51	0.00
367.70	0.00
367.90	0.00
368.10	0.00
368.30	0.00
368.49	0.00
368.69	0.00
368.89	39.79
369.09	0.00
369.28	0.00
369.48	0.00
369.68	18.72
369.87	0.00
370.07	0.00
370.27	79.58
370.47	0.00
370.66	0.00
370.86	37.45
371.06	51.49
371.25	119.37
371.45	16.38
371.65	23.41
371.84	102.98
372.04	0.00
372.24	79.58
372.44	42.13
372.63	95.96
372.83	180.22
373.03	105.32
373.22	37.45
373.42	14.04
373.62	152.13
373.81	105.32
374.01	105.32
374.21	180.22
374.40	128.73
374.60	191.92
374.79	53.83
374.99	145.11
375.19	138.09
375.38	60.85
375.58	105.32
375.78	63.19
375.97	107.66
376.17	168.52
376.37	93.62
376.56	124.05
376.76	140.43
376.95	142.77
377.15	189.58
377.35	107.66
377.54	88.94
377.74	51.49
377.93	91.28
378.13	107.66
378.33	114.69
378.52	74.90
378.72	138.09
378.91	189.58
379.11	133.41
379.31	65.54
379.50	74.90
379.70	102.98
379.89	173.20
380.09	98.30
380.28	131.07
380.48	107.66
380.68	79.58
380.87	32.77
381.07	117.03
381.26	133.41
381.46	156.82
381.65	128.73
381.85	107.66
382.04	119.37
382.24	117.03
382.43	102.98
382.63	35.11
382.83	177.88
383.02	110.01
383.22	217.67
383.41	70.22
383.61	65.54
383.80	117.03
384.00	74.90
384.19	60.85
384.39	147.45
384.58	72.56
384.78	72.56
384.97	208.31
385.17	154.48
385.36	114.69
385.56	140.43
385.75	117.03
385.95	117.03
386.14	112.35
386.34	86.60
386.53	46.81
386.72	88.94
386.92	147.45
387.11	91.28
387.31	84.26
387.50	79.58
387.70	53.83
387.89	227.03
388.09	93.62
388.28	46.81
388.48	102.98
388.67	124.05
388.86	39.79
389.06	149.79
389.25	105.32
389.45	112.35
389.64	93.62
389.84	91.28
390.03	131.07
390.22	105.32
390.42	121.71
390.61	98.30
390.81	58.51
391.00	145.11
391.19	147.45
391.39	180.22
391.58	128.73
391.78	51.49
391.97	86.60
392.16	77.24
392.36	114.69
392.55	112.35
392.75	100.64
392.94	70.22
393.13	126.39
393.33	30.43
393.52	126.39
393.71	93.62
393.91	124.05
394.10	163.84
394.29	119.37
394.49	70.22
394.68	102.98
394.88	175.54
395.07	149.79
395.26	39.79
395.46	56.17
395.65	145.11
395.84	175.54
396.04	168.52
396.23	126.39
396.42	126.39
396.62	67.88
396.81	138.09
397.00	107.66
397.19	140.43
397.39	126.39
397.58	126.39
397.77	63.19
397.97	133.41
398.16	128.73
398.35	170.86
398.55	72.56
398.74	154.48
398.93	119.37
399.12	79.58
399.32	84.26
399.51	145.11
399.70	124.05
399.90	114.69
400.09	159.16
400.28	126.39
400.47	128.73
400.67	95.96
400.86	119.37
401.05	133.41
401.24	156.82
401.44	149.79
401.63	145.11
401.82	77.24
402.01	147.45
402.21	121.71
402.40	163.84
402.59	135.75
402.78	107.66
402.97	154.48
403.17	182.56
403.36	159.16
403.55	131.07
403.74	175.54
403.93	266.82
404.13	365.12
404.32	264.48
404.51	278.52
404.70	234.05
404.89	121.71
405.09	117.03
405.28	98.30
405.47	121.71
405.66	198.95
405.85	168.52
406.05	81.92
406.24	114.69
406.43	77.24
406.62	168.52
406.81	119.37
407.00	191.92
407.20	53.83
407.39	208.31
407.58	145.11
407.77	145.11
407.96	140.43
408.15	110.01
408.34	147.45
408.54	135.75
408.73	170.86
408.92	86.60
409.11	79.58
409.30	140.43
409.49	95.96
409.68	124.05
409.87	114.69
410.07	234.05
410.26	156.82
410.45	173.20
410.64	124.05
410.83	100.64
411.02	133.41
411.21	147.45
411.40	168.52
411.59	84.26
411.78	133.41
411.98	161.50
412.17	121.71
412.36	173.20
412.55	152.13
412.74	187.24
412.93	105.32
413.12	187.24
413.31	147.45
413.50	95.96
413.69	170.86
413.88	159.16
414.07	222.35
414.26	88.94
414.45	79.58
414.64	140.43
414.83	121.71
415.02	154.48
415.22	142.77
415.41	121.71
415.60	152.13
415.79	191.92
415.98	173.20
416.17	79.58
416.36	133.41
416.55	135.75
416.74	124.05
416.93	131.07
417.12	142.77
417.31	107.66
417.50	51.49
417.69	133.41
417.88	84.26
418.07	145.11
418.26	100.64
418.45	98.30
418.64	149.79
418.83	217.67
419.02	156.82
419.21	128.73
419.39	124.05
419.58	131.07
419.77	166.18
419.96	222.35
420.15	234.05
420.34	196.60
420.53	163.84
420.72	187.24
420.91	91.28
421.10	117.03
421.29	245.76
421.48	84.26
421.67	147.45
421.86	102.98
422.05	100.64
422.24	88.94
422.43	110.01
422.61	79.58
422.80	184.90
422.99	126.39
423.18	126.39
423.37	156.82
423.56	86.60
423.75	128.73
423.94	154.48
424.13	131.07
424.32	161.50
424.50	161.50
424.69	135.75
424.88	121.71
425.07	159.16
425.26	105.32
425.45	205.97
425.64	105.32
425.83	170.86
426.01	161.50
426.20	107.66
426.39	128.73
426.58	95.96
426.77	128.73
426.96	215.33
427.15	189.58
427.33	217.67
427.52	170.86
427.71	187.24
427.90	93.62
428.09	98.30
428.28	198.95
428.46	184.90
428.65	133.41
428.84	156.82
429.03	161.50
429.22	102.98
429.40	124.05
429.59	154.48
429.78	241.08
429.97	131.07
430.16	63.19
430.34	124.05
430.53	170.86
430.72	163.84
430.91	147.45
431.10	128.73
431.28	124.05
431.47	156.82
431.66	93.62
431.85	105.32
432.03	140.43
432.22	182.56
432.41	182.56
432.60	220.01
432.79	147.45
432.97	170.86
433.16	198.95
433.35	187.24
433.54	203.63
433.72	208.31
433.91	168.52
434.10	72.56
434.28	159.16
434.47	166.18
434.66	168.52
434.85	220.01
435.03	344.06
435.22	898.77
435.41	1413.68
435.59	1453.47
435.78	1032.18
435.97	533.64
436.16	301.93
436.34	177.88
436.53	194.26
436.72	231.71
436.90	215.33
437.09	117.03
437.28	142.77
437.46	145.11
437.65	170.86
437.84	177.88
438.02	177.88
438.21	159.16
438.40	175.54
438.58	177.88
438.77	147.45
438.96	142.77
439.14	149.79
439.33	154.48
439.52	182.56
439.70	212.99
439.89	177.88
440.08	187.24
440.26	133.41
440.45	159.16
440.63	166.18
440.82	133.41
441.01	170.86
441.19	194.26
441.38	147.45
441.57	175.54
441.75	189.58
441.94	231.71
442.12	182.56
442.31	98.30
442.50	177.88
442.68	140.43
442.87	166.18
443.05	187.24
443.24	184.90
443.43	177.88
443.61	175.54
443.80	117.03
443.98	156.82
444.17	145.11
444.35	222.35
444.54	145.11
444.73	128.73
444.91	229.37
445.10	114.69
445.28	149.79
445.47	128.73
445.65	166.18
445.84	170.86
446.02	191.92
446.21	114.69
446.39	147.45
446.58	191.92
446.77	147.45
446.95	191.92
447.14	175.54
447.32	166.18
447.51	217.67
447.69	145.11
447.88	161.50
448.06	170.86
448.25	180.22
448.43	210.65
448.62	182.56
448.80	191.92
448.99	224.69
449.17	215.33
449.36	126.39
449.54	208.31
449.73	124.05
449.91	175.54
450.10	227.03
450.28	266.82
450.46	177.88
450.65	124.05
450.83	187.24
451.02	133.41
451.20	142.77
451.39	177.88
451.57	124.05
451.76	149.79
451.94	189.58
452.13	142.77
452.31	173.20
452.49	152.13
452.68	205.97
452.86	238.73
453.05	224.69
453.23	133.41
453.42	177.88
453.60	133.41
453.78	173.20
453.97	205.97
454.15	119.37
454.34	168.52
454.52	210.65
454.70	208.31
454.89	93.62
455.07	147.45
455.26	182.56
455.44	189.58
455.62	135.75
455.81	149.79
455.99	243.42
456.17	159.16
456.36	128.73
456.54	142.77
456.73	131.07
456.91	154.48
457.09	138.09
457.28	259.80
457.46	175.54
457.64	259.80
457.83	173.20
458.01	182.56
458.19	131.07
458.38	243.42
458.56	168.52
458.74	112.35
458.93	217.67
459.11	196.60
459.29	198.95
459.48	196.60
459.66	173.20
459.84	245.76
460.03	278.52
460.21	201.29
460.39	175.54
460.57	147.45
460.76	149.79
460.94	135.75
461.12	140.43
461.31	161.50
461.49	180.22
461.67	191.92
461.85	205.97
462.04	184.90
462.22	278.52
462.40	140.43
462.59	189.58
462.77	177.88
462.95	189.58
463.13	128.73
463.32	147.45
463.50	187.24
463.68	238.73
463.86	205.97
464.05	163.84
464.23	273.84
464.41	149.79
464.59	168.52
464.78	159.16
464.96	147.45
465.14	170.86
465.32	168.52
465.50	184.90
465.69	133.41
465.87	156.82
466.05	205.97
466.23	138.09
466.41	168.52
466.60	105.32
466.78	149.79
466.96	243.42
467.14	168.52
467.32	184.90
467.51	191.92
467.69	142.77
467.87	210.65
468.05	142.77
468.23	222.35
468.41	196.60
468.60	196.60
468.78	184.90
468.96	273.84
469.14	161.50
469.32	161.50
469.50	156.82
469.69	196.60
469.87	212.99
470.05	227.03
470.23	145.11
470.41	126.39
470.59	191.92
470.77	224.69
470.95	182.56
471.14	243.42
471.32	182.56
471.50	149.79
471.68	264.48
471.86	248.10
472.04	126.39
472.22	128.73
472.40	161.50
472.58	166.18
472.77	196.60
472.95	212.99
473.13	227.03
473.31	222.35
473.49	173.20
473.67	184.90
473.85	248.10
474.03	198.95
474.21	266.82
474.39	161.50
474.57	187.24
474.75	241.08
474.93	222.35
475.12	32.77
475.30	222.35
475.48	215.33
475.66	210.65
475.84	196.60
476.02	184.90
476.20	215.33
476.38	231.71
476.56	276.18
476.74	191.92
476.92	184.90
477.10	173.20
477.28	184.90
477.46	236.39
477.64	266.82
477.82	205.97
478.00	210.65
478.18	224.69
478.36	203.63
478.54	187.24
478.72	212.99
478.90	245.76
479.08	140.43
479.26	191.92
479.44	173.20
479.62	145.11
479.80	238.73
479.98	161.50
480.16	117.03
480.34	182.56
480.52	152.13
480.70	301.93
480.88	140.43
481.06	149.79
481.24	159.16
481.41	224.69
481.59	245.76
481.77	222.35
481.95	259.80
482.13	224.69
482.31	285.55
482.49	257.46
482.67	266.82
482.85	220.01
483.03	264.48
483.21	287.89
483.39	280.86
483.57	236.39
483.74	278.52
483.92	327.68
484.10	273.84
484.28	278.52
484.46	266.82
484.64	315.97
484.82	294.91
485.00	259.80
485.18	351.08
485.35	315.97
485.53	294.91
485.71	308.95
485.89	318.31
486.07	308.95
486.25	355.76
486.43	433.00
486.61	372.15
486.78	407.25
486.96	311.29
487.14	369.80
487.32	369.80
487.50	255.12
487.68	339.38
487.85	372.15
488.03	360.44
488.21	362.78
488.39	318.31
488.57	411.93
488.75	381.51
488.92	608.54
489.10	313.63
489.28	367.46
489.46	353.42
489.64	308.95
489.81	297.25
489.99	273.84
490.17	344.06
490.35	365.12
490.53	332.36
490.70	355.76
490.88	280.86
491.06	348.74
491.24	388.53
491.41	348.74
491.59	437.68
491.77	358.10
491.95	208.31
492.13	327.68
492.30	334.70
492.48	322.99
492.66	257.46
492.84	315.97
493.01	299.59
493.19	360.44
493.37	330.02
493.54	344.06
493.72	337.04
493.90	191.92
494.08	337.04
494.25	325.33
494.43	320.65
494.61	369.80
494.79	318.31
494.96	322.99
495.14	271.50
495.32	257.46
495.49	271.50
495.67	306.61
495.85	332.36
496.02	255.12
496.20	313.63
496.38	294.91
496.55	283.20
496.73	306.61
496.91	318.31
497.09	231.71
497.26	339.38
497.44	313.63
497.62	257.46
497.79	285.55
497.97	252.78
498.14	304.27
498.32	353.42
498.50	304.27
498.67	304.27
498.85	234.05
499.03	273.84
499.20	287.89
499.38	229.37
499.56	245.76
499.73	283.20
499.91	215.33
500.08	236.39
500.26	308.95
500.44	222.35
500.61	250.44
500.79	224.69
500.97	222.35
501.14	257.46
501.32	243.42
501.49	194.26
501.67	222.35
501.84	259.80
502.02	271.50
502.20	322.99
502.37	243.42
502.55	203.63
502.72	201.29
502.90	252.78
503.07	269.16
503.25	210.65
503.43	205.97
503.60	191.92
503.78	257.46
503.95	283.20
504.13	222.35
504.30	231.71
504.48	269.16
504.65	287.89
504.83	238.73
505.01	220.01
505.18	271.50
505.36	248.10
505.53	285.55
505.71	184.90
505.88	276.18
506.06	210.65
506.23	227.03
506.41	222.35
506.58	220.01
506.76	198.95
506.93	191.92
507.11	189.58
507.28	287.89
507.46	220.01
507.63	322.99
507.81	170.86
507.98	168.52
508.16	236.39
508.33	245.76
508.50	278.52
508.68	262.14
508.85	313.63
509.03	255.12
509.20	203.63
509.38	229.37
509.55	262.14
509.73	285.55
509.90	252.78
510.08	266.82
510.25	259.80
510.42	201.29
510.60	159.16
510.77	238.73
510.95	241.08
511.12	297.25
511.30	264.48
511.47	273.84
511.64	367.46
511.82	257.46
511.99	194.26
512.17	217.67
512.34	241.08
512.51	189.58
512.69	248.10
512.86	290.23
513.04	238.73
513.21	238.73
513.38	250.44
513.56	220.01
513.73	227.03
513.90	189.58
514.08	262.14
514.25	252.78
514.43	220.01
514.60	210.65
514.77	175.54
514.95	245.76
515.12	191.92
515.29	259.80
515.47	241.08
515.64	250.44
515.81	194.26
515.99	299.59
516.16	236.39
516.33	220.01
516.51	304.27
516.68	161.50
516.85	140.43
517.03	224.69
517.20	283.20
517.37	264.48
517.54	250.44
517.72	250.44
517.89	222.35
518.06	198.95
518.24	313.63
518.41	285.55
518.58	285.55
518.75	273.84
518.93	278.52
519.10	210.65
519.27	220.01
519.45	273.84
519.62	245.76
519.79	264.48
519.96	259.80
520.14	250.44
520.31	248.10
520.48	180.22
520.65	196.60
520.83	273.84
521.00	255.12
521.17	313.63
521.34	229.37
521.52	287.89
521.69	290.23
521.86	159.16
522.03	308.95
522.20	236.39
522.38	128.73
522.55	285.55
522.72	243.42
522.89	210.65
523.07	262.14
523.24	271.50
523.41	229.37
523.58	292.57
523.75	222.35
523.92	248.10
524.10	273.84
524.27	259.80
524.44	255.12
524.61	224.69
524.78	245.76
524.96	301.93
525.13	238.73
525.30	276.18
525.47	285.55
525.64	297.25
525.81	276.18
525.98	238.73
526.16	205.97
526.33	208.31
526.50	201.29
526.67	266.82
526.84	170.86
527.01	245.76
527.18	287.89
527.36	248.10
527.53	210.65
527.70	255.12
527.87	234.05
528.04	369.80
528.21	180.22
528.38	353.42
528.55	234.05
528.72	294.91
528.89	273.84
529.07	315.97
529.24	243.42
529.41	259.80
529.58	262.14
529.75	198.95
529.92	271.50
530.09	266.82
530.26	283.20
530.43	339.38
530.60	241.08
530.77	276.18
530.94	292.57
531.11	341.72
531.28	241.08
531.46	243.42
531.63	271.50
531.80	290.23
531.97	271.50
532.14	231.71
532.31	234.05
532.48	236.39
532.65	198.95
532.82	234.05
532.99	341.72
533.16	301.93
533.33	346.40
533.50	287.89
533.67	341.72
533.84	304.27
534.01	330.02
534.18	322.99
534.35	297.25
534.52	327.68
534.69	409.59
534.86	311.29
535.03	287.89
535.20	315.97
535.37	294.91
535.54	327.68
535.71	325.33
535.88	409.59
536.05	315.97
536.22	337.04
536.38	308.95
536.55	395.55
536.72	339.38
536.89	423.64
537.06	325.33
537.23	428.32
537.40	409.59
537.57	388.53
537.74	468.11
537.91	449.38
538.08	428.32
538.25	472.79
538.42	437.68
538.59	503.22
538.75	547.69
538.92	521.94
539.09	568.75
539.26	510.24
539.43	587.47
539.60	636.63
539.77	662.37
539.94	692.80
540.11	655.35
540.28	826.21
540.44	903.45
540.61	959.62
540.78	1027.50
540.95	1146.86
541.12	1336.45
541.29	1413.68
541.46	1528.37
541.62	1511.99
541.79	1547.09
541.96	1509.65
542.13	1362.19
542.30	1394.96
542.47	1390.28
542.63	1380.92
542.80	1277.93
542.97	1376.24
543.14	1266.23
543.31	1261.55
543.48	1355.17
543.64	1357.51
543.81	1277.93
543.98	1306.02
544.15	1341.13
544.32	1322.40
544.48	1280.27
544.65	1214.74
544.82	1174.95
544.99	1181.97
545.16	1261.55
545.32	1235.80
545.49	2050.31
545.66	3052.06
545.83	3604.42
546.00	3241.64
546.16	2172.02
546.33	1713.27
546.50	1362.19
546.67	1123.46
546.83	1032.18
547.00	940.90
547.17	908.13
547.34	936.21
547.50	847.27
547.67	819.19
547.84	844.93
548.00	823.87
548.17	786.42
548.34	812.17
548.51	725.57
548.67	713.86
548.84	784.08
549.01	676.41
549.18	699.82
549.34	805.14
549.51	638.97
549.68	664.71
549.84	660.03
550.01	552.37
550.18	573.43
550.34	650.67
550.51	603.86
550.68	634.29
550.84	573.43
551.01	519.60
551.18	594.50
551.34	566.41
551.51	540.66
551.68	479.81
551.84	484.49
552.01	430.66
552.18	444.70
552.34	479.81
552.51	498.53
552.68	458.74
552.84	418.96
553.01	449.38
553.18	388.53
553.34	458.74
553.51	381.51
553.67	409.59
553.84	423.64
554.01	433.00
554.17	456.40
554.34	355.76
554.51	383.85
554.67	334.70
554.84	397.89
555.00	304.27
555.17	344.06
555.33	395.55
555.50	278.52
555.67	259.80
555.83	297.25
556.00	353.42
556.16	479.81
556.33	360.44
556.50	276.18
556.66	301.93
556.83	308.95
556.99	250.44
557.16	257.46
557.32	315.97
557.49	290.23
557.65	262.14
557.82	353.42
557.98	308.95
558.15	238.73
558.32	264.48
558.48	308.95
558.65	259.80
558.81	292.57
558.98	290.23
559.14	201.29
559.31	320.65
559.47	308.95
559.64	224.69
559.80	325.33
559.97	334.70
560.13	252.78
560.30	231.71
560.46	234.05
560.63	238.73
560.79	278.52
560.96	262.14
561.12	299.59
561.29	290.23
561.45	255.12
561.61	273.84
561.78	301.93
561.94	315.97
562.11	264.48
562.27	322.99
562.44	203.63
562.60	266.82
562.77	271.50
562.93	339.38
563.10	264.48
563.26	203.63
563.42	227.03
563.59	245.76
563.75	313.63
563.92	276.18
564.08	241.08
564.24	285.55
564.41	308.95
564.57	231.71
564.74	222.35
564.90	238.73
565.07	283.20
565.23	229.37
565.39	229.37
565.56	287.89
565.72	262.14
565.88	238.73
566.05	245.76
566.21	259.80
566.38	290.23
566.54	220.01
566.70	224.69
566.87	308.95
567.03	238.73
567.19	271.50
567.36	271.50
567.52	276.18
567.68	262.14
567.85	266.82
568.01	276.18
568.17	220.01
568.34	196.60
568.50	238.73
568.66	227.03
568.83	358.10
568.99	299.59
569.15	278.52
569.32	224.69
569.48	236.39
569.64	243.42
569.81	236.39
569.97	140.43
570.13	250.44
570.30	264.48
570.46	327.68
570.62	212.99
570.78	241.08
570.95	234.05
571.11	264.48
571.27	262.14
571.43	259.80
571.60	243.42
571.76	311.29
571.92	163.84
572.09	273.84
572.25	234.05
572.41	236.39
572.57	212.99
572.74	318.31
572.90	231.71
573.06	262.14
573.22	278.52
573.38	320.65
573.55	308.95
573.71	280.86
573.87	227.03
574.03	297.25
574.20	210.65
574.36	257.46
574.52	234.05
574.68	264.48
574.84	330.02
575.01	166.18
575.17	259.80
575.33	252.78
575.49	215.33
575.65	227.03
575.82	229.37
575.98	376.83
576.14	339.38
576.30	425.98
576.46	559.39
576.62	807.48
576.79	772.38
576.95	690.46
577.11	484.49
577.27	388.53
577.43	433.00
577.59	327.68
577.75	290.23
577.92	283.20
578.08	283.20
578.24	264.48
578.40	379.17
578.56	568.75
578.72	830.89
578.88	840.25
579.04	681.10
579.21	524.28
579.37	416.62
579.53	379.17
579.69	397.89
579.85	475.13
580.01	477.47
580.17	505.56
580.33	425.98
580.49	297.25
580.65	414.27
580.82	304.27
580.98	344.06
581.14	365.12
581.30	442.36
581.46	463.43
581.62	388.53
581.78	416.62
581.94	486.83
582.10	491.51
582.26	372.15
582.42	433.00
582.58	470.45
582.74	442.36
582.90	407.25
583.06	514.92
583.22	472.79
583.38	554.71
583.54	447.04
583.70	444.70
583.86	463.43
584.02	514.92
584.18	456.40
584.34	514.92
584.50	367.46
584.66	397.89
584.82	477.47
584.98	346.40
585.14	465.77
585.30	472.79
585.46	461.09
585.62	388.53
585.78	362.78
585.94	404.91
586.10	376.83
586.26	418.96
586.42	540.66
586.58	547.69
586.74	587.47
586.90	667.05
587.06	669.39
587.22	678.76
587.38	660.03
587.54	547.69
587.70	486.83
587.86	440.02
588.02	433.00
588.18	461.09
588.34	437.68
588.49	297.25
588.65	404.91
588.81	339.38
588.97	367.46
589.13	313.63
589.29	299.59
589.45	372.15
589.61	353.42
589.77	383.85
589.93	318.31
590.08	322.99
590.24	276.18
590.40	451.72
590.56	372.15
590.72	379.17
590.88	290.23
591.04	381.51
591.20	362.78
591.35	372.15
591.51	397.89
591.67	318.31
591.83	428.32
591.99	454.06
592.15	400.23
592.31	500.87
592.46	463.43
592.62	479.81
592.78	514.92
592.94	500.87
593.10	514.92
593.26	512.58
593.41	484.49
593.57	425.98
593.73	390.87
593.89	379.17
594.05	393.21
594.20	376.83
594.36	383.85
594.52	266.82
594.68	372.15
594.84	381.51
594.99	311.29
595.15	372.15
595.31	341.72
595.47	313.63
595.62	374.49
595.78	271.50
595.94	231.71
596.10	346.40
596.25	245.76
596.41	383.85
596.57	229.37
596.73	257.46
596.88	320.65
597.04	290.23
597.20	315.97
597.36	358.10
597.51	318.31
597.67	322.99
597.83	332.36
597.99	339.38
598.14	276.18
598.30	400.23
598.46	400.23
598.61	341.72
598.77	402.57
598.93	358.10
599.09	461.09
599.24	428.32
599.40	442.36
599.56	383.85
599.71	330.02
599.87	388.53
600.03	379.17
600.18	330.02
600.34	348.74
600.50	351.08
600.65	327.68
600.81	339.38
600.97	262.14
601.12	308.95
601.28	369.80
601.44	322.99
601.59	301.93
601.75	337.04
601.91	344.06
602.06	280.86
602.22	330.02
602.37	306.61
602.53	255.12
602.69	348.74
602.84	250.44
603.00	241.08
603.16	379.17
603.31	346.40
603.47	266.82
603.62	285.55
603.78	210.65
603.94	220.01
604.09	259.80
604.25	346.40
604.40	259.80
604.56	351.08
604.71	203.63
604.87	271.50
605.03	290.23
605.18	341.72
605.34	292.57
605.49	224.69
605.65	344.06
605.80	255.12
605.96	269.16
606.12	330.02
606.27	280.86
606.43	311.29
606.58	379.17
606.74	339.38
606.89	306.61
607.05	367.46
607.20	355.76
607.36	407.25
607.51	393.21
607.67	313.63
607.82	451.72
607.98	416.62
608.13	407.25
608.29	484.49
608.44	435.34
608.60	519.60
608.75	538.32
608.91	512.58
609.06	538.32
609.22	606.20
609.37	573.43
609.53	713.86
609.68	830.89
609.84	802.80
609.99	976.00
610.15	994.73
610.30	1203.04
610.46	1589.22
610.61	2078.40
610.76	2560.55
610.92	3000.57
611.07	3197.17
611.23	3215.90
611.38	3110.57
611.54	2752.47
611.69	2373.30
611.84	1989.46
612.00	1785.83
612.15	1394.96
612.31	1338.79
612.46	1242.82
612.62	1170.27
612.77	1172.61
612.92	1020.47
613.08	983.02
613.23	931.53
613.39	896.43
613.54	894.08
613.69	842.59
613.85	901.11
614.00	851.96
614.15	875.36
614.31	816.85
614.46	809.83
614.62	894.08
614.77	758.33
614.92	732.59
615.08	685.78
615.23	678.76
615.38	624.92
615.54	557.05
615.69	566.41
615.84	514.92
616.00	456.40
616.15	486.83
616.30	461.09
616.46	524.28
616.61	388.53
616.76	411.93
616.92	449.38
617.07	292.57
617.22	332.36
617.37	327.68
617.53	376.83
617.68	425.98
617.83	313.63
617.99	360.44
618.14	379.17
618.29	372.15
618.45	362.78
618.60	299.59
618.75	395.55
618.90	280.86
619.06	379.17
619.21	376.83
619.36	386.19
619.51	372.15
619.67	334.70
619.82	442.36
619.97	465.77
620.12	428.32
620.28	386.19
620.43	339.38
620.58	332.36
620.73	339.38
620.89	351.08
621.04	409.59
621.19	334.70
621.34	365.12
621.49	271.50
621.65	360.44
621.80	369.80
621.95	339.38
622.10	322.99
622.25	285.55
622.41	353.42
622.56	435.34
622.71	355.76
622.86	402.57
623.01	449.38
623.16	409.59
623.32	297.25
623.47	374.49
623.62	388.53
623.77	395.55
623.92	433.00
624.07	425.98
624.23	390.87
624.38	259.80
624.53	353.42
624.68	407.25
624.83	416.62
624.98	379.17
625.13	369.80
625.29	292.57
625.44	397.89
625.59	358.10
625.74	339.38
625.89	386.19
626.04	456.40
626.19	339.38
626.34	355.76
626.49	386.19
626.65	369.80
626.80	294.91
626.95	313.63
627.10	386.19
627.25	292.57
627.40	308.95
627.55	320.65
627.70	271.50
627.85	362.78
628.00	346.40
628.15	344.06
628.30	318.31
628.45	346.40
628.60	271.50
628.76	332.36
628.91	330.02
629.06	313.63
629.21	337.04
629.36	390.87
629.51	334.70
629.66	313.63
629.81	358.10
629.96	327.68
630.11	372.15
630.26	423.64
630.41	416.62
630.56	493.85
630.71	500.87
630.86	496.19
631.01	517.26
631.16	421.30
631.31	451.72
631.46	414.27
631.61	325.33
631.76	313.63
631.91	409.59
632.06	358.10
632.21	383.85
632.36	299.59
632.51	215.33
632.66	290.23
632.81	236.39
632.96	271.50
633.10	255.12
633.25	306.61
633.40	229.37
633.55	266.82
633.70	184.90
633.85	198.95
634.00	180.22
634.15	250.44
634.30	196.60
634.45	250.44
634.60	98.30
634.75	177.88
634.90	140.43
635.05	196.60
635.19	217.67
635.34	138.09
635.49	252.78
635.64	264.48
635.79	177.88
635.94	248.10
636.09	142.77
636.24	175.54
636.39	241.08
636.53	227.03
636.68	198.95
636.83	215.33
636.98	224.69
637.13	210.65
637.28	222.35
637.43	285.55
637.57	210.65
637.72	255.12
637.87	276.18
638.02	220.01
638.17	135.75
638.32	280.86
638.46	259.80
638.61	313.63
638.76	210.65
638.91	227.03
639.06	161.50
639.20	231.71
639.35	201.29
639.50	189.58
639.65	238.73
639.80	203.63
639.94	201.29
640.09	220.01
640.24	159.16
640.39	196.60
640.54	205.97
640.68	152.13
640.83	215.33
640.98	182.56
641.13	229.37
641.27	229.37
641.42	243.42
641.57	177.88
641.72	217.67
641.86	208.31
642.01	201.29
642.16	149.79
642.31	170.86
642.45	285.55
642.60	252.78
642.75	248.10
642.90	262.14
643.04	175.54
643.19	259.80
643.34	187.24
643.48	121.71
643.63	201.29
643.78	166.18
643.93	152.13
644.07	159.16
644.22	208.31
644.37	241.08
644.51	248.10
644.66	264.48
644.81	159.16
644.95	182.56
645.10	156.82
645.25	191.92
645.39	222.35
645.54	227.03
645.69	248.10
645.83	212.99
645.98	259.80
646.13	229.37
646.27	259.80
646.42	259.80
646.57	156.82
646.71	198.95
646.86	128.73
647.00	112.35
647.15	294.91
647.30	203.63
647.44	159.16
647.59	194.26
647.74	126.39
647.88	250.44
648.03	182.56
648.17	231.71
648.32	159.16
648.47	163.84
648.61	196.60
648.76	156.82
648.90	177.88
649.05	124.05
649.20	159.16
649.34	114.69
649.49	191.92
649.63	215.33
649.78	273.84
649.92	290.23
650.07	241.08
650.21	234.05
650.36	304.27
650.51	231.71
650.65	255.12
650.80	337.04
650.94	297.25
651.09	229.37
651.23	156.82
651.38	161.50
651.52	250.44
651.67	124.05
651.81	138.09
651.96	163.84
652.10	196.60
652.25	177.88
652.39	208.31
652.54	168.52
652.68	227.03
652.83	208.31
652.97	250.44
653.12	175.54
653.26	236.39
653.41	191.92
653.55	170.86
653.70	166.18
653.84	154.48
653.99	140.43
654.13	320.65
654.27	180.22
654.42	121.71
654.56	159.16
654.71	229.37
654.85	119.37
655.00	220.01
655.14	180.22
655.29	210.65
655.43	175.54
655.57	201.29
655.72	201.29
655.86	154.48
656.01	175.54
656.15	161.50
656.30	168.52
656.44	180.22
656.58	163.84
656.73	208.31
656.87	196.60
657.01	177.88
657.16	292.57
657.30	102.98
657.45	259.80
657.59	196.60
657.73	243.42
657.88	212.99
658.02	266.82
658.16	224.69
658.31	259.80
658.45	196.60
658.60	196.60
658.74	147.45
658.88	215.33
659.03	173.20
659.17	154.48
659.31	135.75
659.46	229.37
659.60	222.35
659.74	231.71
659.89	163.84
660.03	161.50
660.17	299.59
660.32	203.63
660.46	121.71
660.60	236.39
660.74	245.76
660.89	140.43
661.03	117.03
661.17	152.13
661.32	140.43
661.46	131.07
661.60	177.88
661.74	250.44
661.89	241.08
662.03	238.73
662.17	234.05
662.31	297.25
662.46	203.63
662.60	224.69
662.74	133.41
662.88	271.50
663.03	203.63
663.17	147.45
663.31	220.01
663.45	163.84
663.60	191.92
663.74	212.99
663.88	166.18
664.02	100.64
664.17	156.82
664.31	222.35
664.45	212.99
664.59	149.79
664.73	210.65
664.88	191.92
665.02	156.82
665.16	180.22
665.30	194.26
665.44	149.79
665.59	159.16
665.73	236.39
665.87	180.22
666.01	173.20
666.15	180.22
666.29	128.73
666.44	194.26
666.58	234.05
666.72	142.77
666.86	117.03
667.00	196.60
667.14	208.31
667.28	156.82
667.43	215.33
667.57	238.73
667.71	156.82
667.85	170.86
667.99	117.03
668.13	149.79
668.27	203.63
668.41	222.35
668.56	182.56
668.70	217.67
668.84	184.90
668.98	252.78
669.12	198.95
669.26	184.90
669.40	203.63
669.54	126.39
669.68	215.33
669.82	217.67
669.96	194.26
670.10	191.92
670.25	205.97
670.39	229.37
670.53	133.41
670.67	252.78
670.81	112.35
670.95	234.05
671.09	210.65
671.23	163.84
671.37	138.09
671.51	236.39
671.65	187.24
671.79	161.50
671.93	208.31
672.07	273.84
672.21	168.52
672.35	196.60
672.49	138.09
672.63	182.56
672.77	203.63
672.91	175.54
673.05	110.01
673.19	124.05
673.33	102.98
673.47	224.69
673.61	184.90
673.75	154.48
673.89	100.64
674.03	191.92
674.17	229.37
674.31	196.60
674.45	210.65
674.59	159.16
674.73	159.16
674.87	166.18
675.01	138.09
675.15	159.16
675.29	184.90
675.43	203.63
675.56	170.86
675.70	208.31
675.84	208.31
675.98	131.07
676.12	168.52
676.26	180.22
676.40	110.01
676.54	224.69
676.68	138.09
676.82	145.11
676.96	128.73
677.10	243.42
677.23	182.56
677.37	152.13
677.51	154.48
677.65	140.43
677.79	145.11
677.93	177.88
678.07	191.92
678.21	86.60
678.34	133.41
678.48	121.71
678.62	131.07
678.76	212.99
678.90	124.05
679.04	170.86
679.18	149.79
679.31	154.48
679.45	135.75
679.59	121.71
679.73	159.16
679.87	147.45
680.00	184.90
680.14	177.88
680.28	168.52
680.42	131.07
680.56	177.88
680.70	124.05
680.83	152.13
680.97	166.18
681.11	182.56
681.25	196.60
681.39	180.22
681.52	100.64
681.66	147.45
681.80	131.07
681.94	180.22
682.07	154.48
682.21	154.48
682.35	147.45
682.49	161.50
682.62	170.86
682.76	138.09
682.90	198.95
683.04	187.24
683.17	187.24
683.31	128.73
683.45	241.08
683.59	177.88
683.72	163.84
683.86	163.84
684.00	147.45
684.13	215.33
684.27	182.56
684.41	182.56
684.55	91.28
684.68	105.32
684.82	168.52
684.96	220.01
685.09	152.13
685.23	63.19
685.37	138.09
685.50	168.52
685.64	182.56
685.78	161.50
685.91	145.11
686.05	170.86
686.19	203.63
686.32	140.43
686.46	117.03
686.60	88.94
686.73	152.13
686.87	203.63
687.01	149.79
687.14	140.43
687.28	163.84
687.42	142.77
687.55	149.79
687.69	154.48
687.82	152.13
687.96	205.97
688.10	227.03
688.23	159.16
688.37	252.78
688.50	210.65
688.64	182.56
688.78	170.86
688.91	168.52
689.05	121.71
689.18	133.41
689.32	128.73
689.46	140.43
689.59	93.62
689.73	142.77
689.86	138.09
690.00	147.45
690.13	112.35
690.27	131.07
690.41	168.52
690.54	266.82
690.68	177.88
690.81	149.79
690.95	119.37
691.08	81.92
691.22	114.69
691.35	112.35
691.49	100.64
691.62	175.54
691.76	159.16
691.89	140.43
692.03	79.58
692.16	84.26
692.30	147.45
692.43	95.96
692.57	117.03
692.70	147.45
692.84	135.75
692.97	191.92
693.11	187.24
693.24	133.41
693.38	124.05
693.51	133.41
693.65	124.05
693.78	156.82
693.92	91.28
694.05	180.22
694.19	145.11
694.32	154.48
694.45	142.77
694.59	88.94
694.72	128.73
694.86	51.49
694.99	79.58
695.13	98.30
695.26	210.65
695.39	114.69
695.53	259.80
695.66	131.07
695.80	198.95
695.93	135.75
696.07	170.86
696.20	177.88
696.33	88.94
696.47	107.66
696.60	126.39
696.73	166.18
696.87	126.39
697.00	203.63
697.14	117.03
697.27	98.30
697.40	152.13
697.54	39.79
697.67	173.20
697.80	163.84
697.94	119.37
698.07	60.85
698.21	110.01
698.34	112.35
698.47	133.41
698.61	124.05
698.74	79.58
698.87	142.77
699.01	112.35
699.14	88.94
699.27	154.48
699.40	227.03
699.54	67.88
699.67	177.88
699.80	105.32
699.94	140.43
700.07	98.30
700.20	145.11
700.34	154.48
700.47	138.09
700.60	56.17
700.73	133.41
700.87	117.03
701.00	119.37
701.13	149.79
701.26	159.16
701.40	170.86
701.53	77.24
701.66	189.58
701.79	154.48
701.93	149.79
702.06	212.99
702.19	128.73
702.32	184.90
702.46	128.73
702.59	93.62
702.72	159.16
702.85	74.90
702.99	119.37
703.12	140.43
703.25	95.96
703.38	56.17
703.51	149.79
703.65	124.05
703.78	175.54
703.91	149.79
704.04	63.19
704.17	102.98
704.31	196.60
704.44	119.37
704.57	88.94
704.70	98.30
704.83	121.71
704.96	102.98
705.10	117.03
705.23	161.50
>>>>>End Processed Spectral Data<<<<<
