SpectraSuite Data File
++++++++++++++++++++++++++++++++++++
Date: Fri Oct 04 11:42:00 GMT-05:00 2013
User: price-jones
Dark Spectrum Present: No
Reference Spectrum Present: No
Number of Sampled Component Spectra: 1
Spectrometers: USB2+H05261
Integration Time (usec): 100000 (USB2+H05261)
Spectra Averaged: 1 (USB2+H05261)
Boxcar Smoothing: 0 (USB2+H05261)
Correct for Electrical Dark: No (USB2+H05261)
Strobe/Lamp Enabled: No (USB2+H05261)
Correct for Detector Non-linearity: No (USB2+H05261)
Correct for Stray Light: No (USB2+H05261)
Number of Pixels in Processed Spectrum: 2048
>>>>>Begin Processed Spectral Data<<<<<
365.73	53.83
365.92	53.83
366.12	53.83
366.32	0.00
366.52	0.00
366.72	11.70
366.91	0.00
367.11	0.00
367.31	0.00
367.51	0.00
367.70	14.04
367.90	0.00
368.10	0.00
368.30	0.00
368.49	0.00
368.69	0.00
368.89	0.00
369.09	0.00
369.28	0.00
369.48	0.00
369.68	0.00
369.87	0.00
370.07	28.09
370.27	0.00
370.47	0.00
370.66	81.92
370.86	142.77
371.06	114.69
371.25	119.37
371.45	49.15
371.65	88.94
371.84	100.64
372.04	56.17
372.24	98.30
372.44	100.64
372.63	131.07
372.83	154.48
373.03	126.39
373.22	79.58
373.42	100.64
373.62	102.98
373.81	142.77
374.01	173.20
374.21	175.54
374.40	84.26
374.60	163.84
374.79	72.56
374.99	100.64
375.19	175.54
375.38	126.39
375.58	156.82
375.78	154.48
375.97	175.54
376.17	184.90
376.37	39.79
376.56	107.66
376.76	91.28
376.95	145.11
377.15	177.88
377.35	133.41
377.54	208.31
377.74	28.09
377.93	114.69
378.13	142.77
378.33	128.73
378.52	222.35
378.72	159.16
378.91	215.33
379.11	126.39
379.31	102.98
379.50	140.43
379.70	159.16
379.89	112.35
380.09	114.69
380.28	133.41
380.48	227.03
380.68	175.54
380.87	140.43
381.07	112.35
381.26	98.30
381.46	107.66
381.65	166.18
381.85	142.77
382.04	147.45
382.24	102.98
382.43	32.77
382.63	91.28
382.83	91.28
383.02	95.96
383.22	93.62
383.41	119.37
383.61	58.51
383.80	210.65
384.00	65.54
384.19	128.73
384.39	184.90
384.58	154.48
384.78	145.11
384.97	121.71
385.17	191.92
385.36	98.30
385.56	91.28
385.75	133.41
385.95	93.62
386.14	154.48
386.34	60.85
386.53	173.20
386.72	114.69
386.92	128.73
387.11	140.43
387.31	100.64
387.50	112.35
387.70	100.64
387.89	107.66
388.09	107.66
388.28	133.41
388.48	60.85
388.67	105.32
388.86	88.94
389.06	173.20
389.25	88.94
389.45	133.41
389.64	126.39
389.84	128.73
390.03	107.66
390.22	114.69
390.42	177.88
390.61	152.13
390.81	182.56
391.00	119.37
391.19	161.50
391.39	102.98
391.58	154.48
391.78	131.07
391.97	194.26
392.16	70.22
392.36	135.75
392.55	126.39
392.75	112.35
392.94	121.71
393.13	175.54
393.33	135.75
393.52	166.18
393.71	173.20
393.91	21.06
394.10	93.62
394.29	117.03
394.49	114.69
394.68	121.71
394.88	184.90
395.07	198.95
395.26	149.79
395.46	166.18
395.65	189.58
395.84	114.69
396.04	159.16
396.23	107.66
396.42	107.66
396.62	145.11
396.81	117.03
397.00	212.99
397.19	156.82
397.39	124.05
397.58	201.29
397.77	112.35
397.97	102.98
398.16	128.73
398.35	126.39
398.55	128.73
398.74	121.71
398.93	140.43
399.12	86.60
399.32	102.98
399.51	159.16
399.70	91.28
399.90	91.28
400.09	227.03
400.28	124.05
400.47	149.79
400.67	156.82
400.86	196.60
401.05	161.50
401.24	212.99
401.44	224.69
401.63	159.16
401.82	121.71
402.01	168.52
402.21	152.13
402.40	140.43
402.59	175.54
402.78	191.92
402.97	210.65
403.17	229.37
403.36	205.97
403.55	353.42
403.74	538.32
403.93	1832.64
404.13	4318.29
404.32	5303.65
404.51	4573.41
404.70	2581.61
404.89	1008.77
405.09	440.02
405.28	271.50
405.47	208.31
405.66	163.84
405.85	234.05
406.05	215.33
406.24	205.97
406.43	198.95
406.62	217.67
406.81	201.29
407.00	355.76
407.20	477.47
407.39	711.52
407.58	746.63
407.77	554.71
407.96	379.17
408.15	217.67
408.34	212.99
408.54	187.24
408.73	194.26
408.92	95.96
409.11	189.58
409.30	128.73
409.49	131.07
409.68	210.65
409.87	184.90
410.07	140.43
410.26	163.84
410.45	182.56
410.64	135.75
410.83	159.16
411.02	135.75
411.21	163.84
411.40	266.82
411.59	173.20
411.78	210.65
411.98	182.56
412.17	161.50
412.36	210.65
412.55	187.24
412.74	152.13
412.93	194.26
413.12	201.29
413.31	180.22
413.50	175.54
413.69	212.99
413.88	241.08
414.07	220.01
414.26	161.50
414.45	203.63
414.64	224.69
414.83	205.97
415.02	173.20
415.22	229.37
415.41	266.82
415.60	126.39
415.79	203.63
415.98	290.23
416.17	210.65
416.36	245.76
416.55	212.99
416.74	222.35
416.93	161.50
417.12	220.01
417.31	173.20
417.50	243.42
417.69	250.44
417.88	182.56
418.07	276.18
418.26	241.08
418.45	297.25
418.64	215.33
418.83	133.41
419.02	224.69
419.21	229.37
419.39	208.31
419.58	269.16
419.77	205.97
419.96	255.12
420.15	276.18
420.34	248.10
420.53	269.16
420.72	255.12
420.91	264.48
421.10	156.82
421.29	315.97
421.48	220.01
421.67	224.69
421.86	262.14
422.05	234.05
422.24	201.29
422.43	201.29
422.61	170.86
422.80	283.20
422.99	283.20
423.18	264.48
423.37	353.42
423.56	290.23
423.75	285.55
423.94	243.42
424.13	229.37
424.32	304.27
424.50	255.12
424.69	236.39
424.88	276.18
425.07	229.37
425.26	283.20
425.45	257.46
425.64	238.73
425.83	273.84
426.01	372.15
426.20	262.14
426.39	327.68
426.58	273.84
426.77	264.48
426.96	304.27
427.15	374.49
427.33	236.39
427.52	339.38
427.71	180.22
427.90	266.82
428.09	205.97
428.28	311.29
428.46	276.18
428.65	285.55
428.84	390.87
429.03	334.70
429.22	262.14
429.40	283.20
429.59	276.18
429.78	358.10
429.97	315.97
430.16	283.20
430.34	390.87
430.53	287.89
430.72	241.08
430.91	299.59
431.10	294.91
431.28	334.70
431.47	383.85
431.66	367.46
431.85	367.46
432.03	477.47
432.22	339.38
432.41	320.65
432.60	379.17
432.79	297.25
432.97	383.85
433.16	395.55
433.35	442.36
433.54	545.34
433.72	486.83
433.91	444.70
434.10	561.73
434.28	758.33
434.47	800.46
434.66	873.02
434.85	1006.43
435.03	2991.20
435.22	11077.76
435.41	23623.03
435.59	23683.88
435.78	14836.66
435.97	7508.44
436.16	2712.68
436.34	1083.67
436.53	748.97
436.72	491.51
436.90	479.81
437.09	503.22
437.28	451.72
437.46	425.98
437.65	444.70
437.84	367.46
438.02	475.13
438.21	348.74
438.40	362.78
438.58	397.89
438.77	339.38
438.96	433.00
439.14	421.30
439.33	472.79
439.52	411.93
439.70	407.25
439.89	320.65
440.08	440.02
440.26	395.55
440.45	414.27
440.63	435.34
440.82	374.49
441.01	322.99
441.19	344.06
441.38	353.42
441.57	393.21
441.75	395.55
441.94	411.93
442.12	393.21
442.31	351.08
442.50	381.51
442.68	388.53
442.87	395.55
443.05	365.12
443.24	348.74
443.43	353.42
443.61	383.85
443.80	414.27
443.98	390.87
444.17	327.68
444.35	381.51
444.54	348.74
444.73	386.19
444.91	404.91
445.10	407.25
445.28	334.70
445.47	365.12
445.65	372.15
445.84	400.23
446.02	425.98
446.21	430.66
446.39	435.34
446.58	341.72
446.77	400.23
446.95	341.72
447.14	400.23
447.32	393.21
447.51	353.42
447.69	414.27
447.88	411.93
448.06	458.74
448.25	418.96
448.43	351.08
448.62	409.59
448.80	290.23
448.99	315.97
449.17	308.95
449.36	306.61
449.54	346.40
449.73	320.65
449.91	414.27
450.10	407.25
450.28	451.72
450.46	475.13
450.65	411.93
450.83	425.98
451.02	313.63
451.20	351.08
451.39	372.15
451.57	332.36
451.76	365.12
451.94	292.57
452.13	437.68
452.31	440.02
452.49	374.49
452.68	325.33
452.86	348.74
453.05	395.55
453.23	313.63
453.42	409.59
453.60	337.04
453.78	393.21
453.97	360.44
454.15	266.82
454.34	304.27
454.52	409.59
454.70	386.19
454.89	430.66
455.07	386.19
455.26	435.34
455.44	404.91
455.62	374.49
455.81	360.44
455.99	372.15
456.17	411.93
456.36	379.17
456.54	344.06
456.73	325.33
456.91	360.44
457.09	397.89
457.28	358.10
457.46	449.38
457.64	442.36
457.83	372.15
458.01	360.44
458.19	334.70
458.38	397.89
458.56	381.51
458.74	379.17
458.93	360.44
459.11	390.87
459.29	386.19
459.48	376.83
459.66	437.68
459.84	458.74
460.03	416.62
460.21	346.40
460.39	360.44
460.57	360.44
460.76	428.32
460.94	477.47
461.12	472.79
461.31	423.64
461.49	379.17
461.67	383.85
461.85	388.53
462.04	395.55
462.22	840.25
462.40	374.49
462.59	351.08
462.77	360.44
462.95	327.68
463.13	330.02
463.32	372.15
463.50	374.49
463.68	433.00
463.86	442.36
464.05	362.78
464.23	395.55
464.41	505.56
464.59	365.12
464.78	360.44
464.96	311.29
465.14	245.76
465.32	353.42
465.50	402.57
465.69	320.65
465.87	423.64
466.05	332.36
466.23	395.55
466.41	372.15
466.60	365.12
466.78	379.17
466.96	388.53
467.14	393.21
467.32	402.57
467.51	369.80
467.69	379.17
467.87	458.74
468.05	269.16
468.23	381.51
468.41	423.64
468.60	381.51
468.78	365.12
468.96	339.38
469.14	372.15
469.32	411.93
469.50	337.04
469.69	372.15
469.87	360.44
470.05	299.59
470.23	301.93
470.41	285.55
470.59	285.55
470.77	372.15
470.95	318.31
471.14	390.87
471.32	311.29
471.50	381.51
471.68	320.65
471.86	374.49
472.04	337.04
472.22	353.42
472.40	332.36
472.58	360.44
472.77	266.82
472.95	369.80
473.13	369.80
473.31	468.11
473.49	353.42
473.67	346.40
473.85	353.42
474.03	372.15
474.21	447.04
474.39	308.95
474.57	430.66
474.75	374.49
474.93	334.70
475.12	320.65
475.30	390.87
475.48	367.46
475.66	444.70
475.84	346.40
476.02	332.36
476.20	393.21
476.38	437.68
476.56	552.37
476.74	407.25
476.92	332.36
477.10	414.27
477.28	437.68
477.46	339.38
477.64	423.64
477.82	360.44
478.00	411.93
478.18	372.15
478.36	414.27
478.54	376.83
478.72	456.40
478.90	416.62
479.08	465.77
479.26	407.25
479.44	491.51
479.62	475.13
479.80	458.74
479.98	486.83
480.16	528.96
480.34	484.49
480.52	472.79
480.70	578.11
480.88	573.43
481.06	552.37
481.24	617.90
481.41	660.03
481.59	678.76
481.77	638.97
481.95	650.67
482.13	823.87
482.31	765.36
482.49	884.72
482.67	1018.13
482.85	1013.45
483.03	1086.01
483.21	1032.18
483.39	1144.52
483.57	1181.97
483.74	1294.32
483.92	1366.87
484.10	1373.89
484.28	1537.73
484.46	1685.19
484.64	1727.32
484.82	1774.13
485.00	1928.60
485.18	1968.39
485.35	2012.86
485.53	2157.97
485.71	2209.47
485.89	2300.75
486.07	2265.64
486.25	2459.90
486.43	2305.43
486.61	2305.43
486.78	2438.84
486.96	2340.54
487.14	2338.20
487.32	2361.60
487.50	2380.32
487.68	2417.77
487.85	2331.17
488.03	2356.92
488.21	2363.94
488.39	2202.44
488.57	2242.23
488.75	2106.48
488.92	2349.90
489.10	2071.37
489.28	2087.76
489.46	1935.62
489.64	1907.54
489.81	2024.56
489.99	1870.09
490.17	1867.75
490.35	1912.22
490.53	1886.47
490.70	1790.51
490.88	1930.94
491.06	1940.30
491.24	2101.80
491.41	2127.55
491.59	2040.95
491.77	1891.15
491.95	1687.53
492.13	1743.70
492.30	1732.00
492.48	1565.82
492.66	1643.06
492.84	1577.52
493.01	1645.40
493.19	1537.73
493.37	1647.74
493.54	1610.29
493.72	1460.49
493.90	1558.80
494.08	1514.33
494.25	1504.96
494.43	1423.05
494.61	1544.75
494.79	1385.60
494.96	1441.77
495.14	1341.13
495.32	1306.02
495.49	1359.85
495.67	1329.42
495.85	1322.40
496.02	1296.66
496.20	1273.25
496.38	1132.82
496.55	1167.93
496.73	1167.93
496.91	1212.40
497.09	1086.01
497.26	1165.59
497.44	1156.22
497.62	1086.01
497.79	1067.28
497.97	1076.65
498.14	1029.84
498.32	1034.52
498.50	999.41
498.67	1004.09
498.85	976.00
499.03	980.68
499.20	887.06
499.38	901.11
499.56	840.25
499.73	873.02
499.91	903.45
500.08	821.53
500.26	861.32
500.44	751.31
500.61	739.61
500.79	734.93
500.97	674.07
501.14	711.52
501.32	702.16
501.49	713.86
501.67	695.14
501.84	667.05
502.02	650.67
502.20	713.86
502.37	648.33
502.55	535.98
502.72	613.22
502.90	573.43
503.07	505.56
503.25	580.45
503.43	564.07
503.60	512.58
503.78	526.62
503.95	500.87
504.13	547.69
504.30	554.71
504.48	498.53
504.65	440.02
504.83	538.32
505.01	493.85
505.18	491.51
505.36	575.77
505.53	482.15
505.71	484.49
505.88	526.62
506.06	407.25
506.23	479.81
506.41	482.15
506.58	433.00
506.76	444.70
506.93	421.30
507.11	367.46
507.28	442.36
507.46	334.70
507.63	486.83
507.81	332.36
507.98	294.91
508.16	461.09
508.33	521.94
508.50	451.72
508.68	430.66
508.85	390.87
509.03	418.96
509.20	395.55
509.38	407.25
509.55	390.87
509.73	433.00
509.90	407.25
510.08	484.49
510.25	454.06
510.42	393.21
510.60	386.19
510.77	409.59
510.95	409.59
511.12	428.32
511.30	351.08
511.47	374.49
511.64	491.51
511.82	362.78
511.99	411.93
512.17	374.49
512.34	360.44
512.51	414.27
512.69	421.30
512.86	437.68
513.04	318.31
513.21	468.11
513.38	423.64
513.56	395.55
513.73	379.17
513.90	355.76
514.08	374.49
514.25	346.40
514.43	418.96
514.60	367.46
514.77	330.02
514.95	386.19
515.12	418.96
515.29	355.76
515.47	341.72
515.64	320.65
515.81	334.70
515.99	346.40
516.16	423.64
516.33	395.55
516.51	278.52
516.68	353.42
516.85	346.40
517.03	276.18
517.20	351.08
517.37	315.97
517.54	393.21
517.72	355.76
517.89	320.65
518.06	318.31
518.24	386.19
518.41	346.40
518.58	334.70
518.75	290.23
518.93	365.12
519.10	339.38
519.27	315.97
519.45	416.62
519.62	348.74
519.79	308.95
519.96	360.44
520.14	395.55
520.31	358.10
520.48	351.08
520.65	330.02
520.83	241.08
521.00	257.46
521.17	299.59
521.34	339.38
521.52	346.40
521.69	304.27
521.86	341.72
522.03	367.46
522.20	351.08
522.38	301.93
522.55	299.59
522.72	271.50
522.89	418.96
523.07	421.30
523.24	383.85
523.41	348.74
523.58	418.96
523.75	353.42
523.92	344.06
524.10	304.27
524.27	346.40
524.44	362.78
524.61	372.15
524.78	362.78
524.96	365.12
525.13	344.06
525.30	339.38
525.47	367.46
525.64	362.78
525.81	390.87
525.98	351.08
526.16	360.44
526.33	369.80
526.50	383.85
526.67	372.15
526.84	367.46
527.01	315.97
527.18	435.34
527.36	428.32
527.53	440.02
527.70	468.11
527.87	351.08
528.04	400.23
528.21	379.17
528.38	416.62
528.55	433.00
528.72	383.85
528.89	477.47
529.07	353.42
529.24	393.21
529.41	458.74
529.58	430.66
529.75	425.98
529.92	468.11
530.09	433.00
530.26	512.58
530.43	435.34
530.60	421.30
530.77	449.38
530.94	493.85
531.11	564.07
531.28	573.43
531.46	456.40
531.63	533.64
531.80	610.88
531.97	655.35
532.14	732.59
532.31	781.74
532.48	971.32
532.65	961.96
532.82	1116.44
532.99	1369.21
533.16	1474.54
533.33	1554.12
533.50	1359.85
533.67	1268.57
533.84	1078.99
534.01	966.64
534.18	966.64
534.35	870.68
534.52	884.72
534.69	945.58
534.86	997.07
535.03	1067.28
535.20	1050.90
535.37	1050.90
535.54	1114.10
535.71	1114.10
535.88	1224.10
536.05	1235.80
536.22	1383.26
536.38	1666.46
536.55	1675.82
536.72	1879.45
536.89	2005.84
537.06	2296.07
537.23	2504.37
537.40	2855.45
537.57	2925.67
537.74	2995.89
537.91	3234.62
538.08	3246.32
538.25	3236.96
538.42	3403.14
538.59	3538.89
538.75	3424.20
538.92	3801.03
539.09	4023.38
539.26	4596.81
539.43	5034.49
539.60	5738.99
539.77	6562.86
539.94	7248.64
540.11	7674.62
540.28	8744.24
540.44	9483.85
540.61	10207.08
540.78	12030.35
540.95	14352.16
541.12	17235.70
541.29	19494.32
541.46	20107.54
541.62	19768.16
541.79	18911.53
541.96	17535.29
542.13	16432.90
542.30	15129.22
542.47	14249.18
542.63	13462.76
542.80	13046.15
542.97	13008.70
543.14	13078.91
543.31	12992.31
543.48	13357.44
543.64	13444.04
543.81	13317.65
543.98	13301.26
544.15	13476.80
544.32	13668.73
544.48	13958.96
544.65	13465.10
544.82	13385.52
544.99	13488.51
545.16	13813.84
545.32	14693.88
545.49	25401.83
545.66	47342.02
545.83	53336.13
546.00	45626.40
546.16	30974.65
546.33	22726.60
546.50	17064.85
546.67	13980.02
546.83	12439.95
547.00	11616.08
547.17	10920.94
547.34	10705.61
547.50	10408.36
547.67	9996.43
547.84	9418.32
548.00	9067.24
548.17	8863.61
548.34	8369.76
548.51	8369.76
548.67	7662.91
548.84	7410.14
549.01	7117.57
549.18	6810.96
549.34	6473.92
549.51	6312.42
549.68	6008.16
549.84	5682.82
550.01	5551.75
550.18	5320.04
550.34	5055.56
550.51	4753.63
550.68	4622.56
550.84	4451.70
551.01	4187.22
551.18	4032.74
551.34	3688.68
551.51	3644.21
551.68	3442.93
551.84	3419.52
552.01	3169.09
552.18	3152.70
552.34	2731.41
552.51	3054.40
552.68	2785.24
552.84	2623.74
553.01	2502.03
553.18	2497.35
553.34	2506.71
553.51	2455.22
553.67	2277.34
553.84	2195.42
554.01	2092.44
554.17	1935.62
554.34	1900.52
554.51	1640.72
554.67	1692.21
554.84	1577.52
555.00	1511.99
555.17	1416.02
555.33	1420.71
555.50	1338.79
555.67	1198.35
555.83	1275.59
556.00	1231.12
556.16	1268.57
556.33	1107.07
556.50	1057.92
556.66	1036.86
556.83	938.55
556.99	924.51
557.16	1004.09
557.32	1029.84
557.49	891.74
557.65	873.02
557.82	805.14
557.98	870.68
558.15	800.46
558.32	858.98
558.48	805.14
558.65	800.46
558.81	709.18
558.98	784.08
559.14	741.95
559.31	697.48
559.47	711.52
559.64	711.52
559.80	723.23
559.97	667.05
560.13	636.63
560.30	667.05
560.46	596.84
560.63	667.05
560.79	622.58
560.96	613.22
561.12	648.33
561.29	582.79
561.45	655.35
561.61	709.18
561.78	685.78
561.94	592.16
562.11	631.94
562.27	713.86
562.44	601.52
562.60	557.05
562.77	706.84
562.93	610.88
563.10	613.22
563.26	608.54
563.42	594.50
563.59	634.29
563.75	629.60
563.92	601.52
564.08	624.92
564.24	587.47
564.41	564.07
564.57	519.60
564.74	479.81
564.90	559.39
565.07	496.19
565.23	482.15
565.39	503.22
565.56	538.32
565.72	517.26
565.88	552.37
566.05	512.58
566.21	589.82
566.38	610.88
566.54	507.90
566.70	573.43
566.87	456.40
567.03	486.83
567.19	578.11
567.36	554.71
567.52	603.86
567.68	449.38
567.85	550.03
568.01	535.98
568.17	519.60
568.34	500.87
568.50	578.11
568.66	500.87
568.83	592.16
568.99	531.30
569.15	599.18
569.32	512.58
569.48	503.22
569.64	407.25
569.81	519.60
569.97	503.22
570.13	395.55
570.30	395.55
570.46	404.91
570.62	386.19
570.78	414.27
570.95	355.76
571.11	416.62
571.27	411.93
571.43	430.66
571.60	507.90
571.76	458.74
571.92	470.45
572.09	440.02
572.25	463.43
572.41	428.32
572.57	381.51
572.74	404.91
572.90	470.45
573.06	409.59
573.22	388.53
573.38	435.34
573.55	472.79
573.71	425.98
573.87	437.68
574.03	503.22
574.20	440.02
574.36	463.43
574.52	456.40
574.68	514.92
574.84	594.50
575.01	557.05
575.17	648.33
575.33	641.31
575.49	592.16
575.65	617.90
575.82	718.54
575.98	690.46
576.14	821.53
576.30	1753.06
576.46	5614.95
576.62	9181.92
576.79	9645.35
576.95	6700.95
577.11	4571.07
577.27	3316.54
577.43	2209.47
577.59	1502.62
577.75	1247.51
577.92	1039.20
578.08	994.73
578.24	1078.99
578.40	1832.64
578.56	5380.89
578.72	8374.44
578.88	8542.96
579.04	6377.96
579.21	4369.78
579.37	3295.47
579.53	2672.89
579.69	2787.58
579.85	3286.11
580.01	3651.24
580.17	3440.59
580.33	2963.12
580.49	2607.36
580.65	2265.64
580.82	2186.06
580.98	2108.82
581.14	2207.13
581.30	2221.17
581.46	2356.92
581.62	2551.18
581.78	2537.14
581.94	2937.37
582.10	2942.05
582.26	3192.49
582.42	3459.31
582.58	3447.61
582.74	3625.49
582.90	3510.80
583.06	3438.25
583.22	3623.15
583.38	3550.59
583.54	3634.85
583.70	3452.29
583.86	3379.73
584.02	3143.34
584.18	3351.65
584.34	3150.36
584.50	3286.11
584.66	3162.06
584.82	3075.46
584.98	3098.87
585.14	3098.87
585.30	2956.10
585.46	2995.89
585.62	2862.48
585.78	2937.37
585.94	2906.95
586.10	3112.91
586.26	3192.49
586.42	3557.61
586.58	4196.58
586.74	5275.57
586.90	6139.23
587.06	6738.40
587.22	6682.23
587.38	6122.84
587.54	5181.95
587.70	4280.84
587.86	3653.58
588.02	3169.09
588.18	2801.62
588.34	2574.59
588.49	2359.26
588.65	2289.04
588.81	2078.40
588.97	2069.03
589.13	2069.03
589.29	1933.28
589.45	1935.62
589.61	1863.07
589.77	2071.37
589.93	1961.37
590.08	2087.76
590.24	2010.52
590.40	2071.37
590.56	2242.23
590.72	2202.44
590.88	2389.69
591.04	2415.43
591.20	2410.75
591.35	2612.04
591.51	2708.00
591.67	2722.04
591.83	2942.05
591.99	3232.28
592.15	3613.79
592.31	3744.86
592.46	4135.73
592.62	4421.27
592.78	4777.03
592.94	4898.74
593.10	4809.80
593.26	4589.79
593.41	4109.98
593.57	3843.16
593.73	3419.52
593.89	3091.85
594.05	2750.13
594.20	2394.37
594.36	2359.26
594.52	2076.06
594.68	1975.41
594.84	1947.33
594.99	1893.49
595.15	1806.89
595.31	1820.94
595.47	1870.09
595.62	1746.04
595.78	1682.85
595.94	1717.95
596.10	1720.29
596.25	1813.92
596.41	1842.00
596.57	1778.81
596.73	1603.27
596.88	1781.15
597.04	1722.63
597.20	1853.70
597.36	1788.17
597.51	1942.64
597.67	1863.07
597.83	1996.48
597.99	2150.95
598.14	2263.30
598.30	2359.26
598.46	2485.65
598.61	2717.36
598.77	2665.87
598.93	2925.67
599.09	2911.63
599.24	3089.51
599.40	2949.08
599.56	2836.73
599.71	2906.95
599.87	2637.78
600.03	2385.01
600.18	2230.53
600.34	2167.34
600.50	2050.31
600.65	1879.45
600.81	1809.23
600.97	1657.10
601.12	1542.41
601.28	1514.33
601.44	1507.30
601.59	1497.94
601.75	1404.32
601.91	1383.26
602.06	1270.91
602.22	1357.51
602.37	1146.86
602.53	1156.22
602.69	1245.16
602.84	1163.25
603.00	1153.88
603.16	1240.48
603.31	1245.16
603.47	1294.32
603.62	1256.87
603.78	1310.70
603.94	1341.13
604.09	1320.06
604.25	1420.71
604.40	1404.32
604.56	1441.77
604.71	1437.09
604.87	1369.21
605.03	1406.66
605.18	1610.29
605.34	1591.56
605.49	1544.75
605.65	1540.07
605.80	1596.25
605.96	1579.86
606.12	1636.03
606.27	1842.00
606.43	1877.11
606.58	1940.30
606.74	2092.44
606.89	2157.97
607.05	2239.89
607.20	2312.45
607.36	2443.52
607.51	2586.29
607.67	2686.94
607.82	2932.69
607.98	3290.79
608.13	3346.97
608.29	3581.02
608.44	3929.76
608.60	4212.96
608.75	4601.49
608.91	5273.23
609.06	5717.93
609.22	6127.52
609.37	6958.41
609.53	7665.25
609.68	8702.11
609.84	10008.13
609.99	11309.47
610.15	13551.70
610.30	16678.66
610.46	21289.51
610.61	27716.62
610.76	34918.45
610.92	41900.27
611.07	46890.29
611.23	47753.95
611.38	44727.64
611.54	39817.19
611.69	34216.29
611.84	28741.78
612.00	23655.79
612.15	20013.92
612.31	17640.62
612.46	16231.62
612.62	15286.04
612.77	13902.78
612.92	13015.72
613.08	12053.76
613.23	11812.68
613.39	11187.76
613.54	10621.35
613.69	11026.26
613.85	10679.86
614.00	10810.93
614.15	10525.39
614.31	10410.70
614.46	10005.79
614.62	9741.31
614.77	9437.04
614.92	8704.45
615.08	8021.02
615.23	7651.21
615.38	6958.41
615.54	6307.74
615.69	5769.42
615.84	5245.14
616.00	5006.41
616.15	4613.20
616.30	4360.42
616.46	3997.64
616.61	3873.59
616.76	3742.52
616.92	3328.24
617.07	3211.22
617.22	3122.27
617.37	2928.01
617.53	2857.79
617.68	2757.15
617.83	2677.57
617.99	2581.61
618.14	2499.69
618.29	2448.20
618.45	2441.18
618.60	2438.84
618.75	2270.32
618.90	2209.47
619.06	2216.49
619.21	2296.07
619.36	2204.78
619.51	2141.59
619.67	2246.91
619.82	2305.43
619.97	2293.72
620.12	2312.45
620.28	2284.36
620.43	2417.77
620.58	2438.84
620.73	2459.90
620.89	2497.35
621.04	2335.85
621.19	2417.77
621.34	2396.71
621.49	2305.43
621.65	2291.38
621.80	2326.49
621.95	2296.07
622.10	2284.36
622.25	2312.45
622.41	2408.41
622.56	2370.96
622.71	2450.54
622.86	2530.12
623.01	2595.65
623.16	2614.38
623.32	2441.18
623.47	2644.81
623.62	2581.61
623.77	2457.56
623.92	2588.63
624.07	2539.48
624.23	2717.36
624.38	2614.38
624.53	2651.83
624.68	2602.68
624.83	2726.72
624.98	2576.93
625.13	2771.19
625.29	2628.42
625.44	2597.99
625.59	2740.77
625.74	2612.04
625.89	2754.81
626.04	2628.42
626.19	2686.94
626.34	2731.41
626.49	2752.47
626.65	2637.78
626.80	2780.56
626.95	2546.50
627.10	2476.29
627.25	2518.42
627.40	2403.73
627.55	2492.67
627.70	2361.60
627.85	2424.80
628.00	2399.05
628.15	2495.01
628.30	2424.80
628.45	2487.99
628.60	2324.15
628.76	2345.22
628.91	2417.77
629.06	2541.82
629.21	2368.62
629.36	2408.41
629.51	2619.06
629.66	2827.37
629.81	2885.88
629.96	3091.85
630.11	3543.57
630.26	3913.38
630.41	4266.80
630.56	4709.16
630.71	4964.28
630.86	4992.36
631.01	4849.59
631.16	4582.77
631.31	4053.81
631.46	3597.40
631.61	2984.18
631.76	2712.68
631.91	2195.42
632.06	1998.82
632.21	1689.87
632.36	1446.45
632.51	1343.47
632.66	1217.08
632.81	1132.82
632.96	1074.31
633.10	1004.09
633.25	1020.47
633.40	987.71
633.55	943.24
633.70	849.61
633.85	882.38
634.00	849.61
634.15	908.13
634.30	786.42
634.45	699.82
634.60	760.67
634.75	697.48
634.90	816.85
635.05	737.27
635.19	777.06
635.34	671.73
635.49	763.01
635.64	704.50
635.79	667.05
635.94	596.84
636.09	610.88
636.24	575.77
636.39	538.32
636.53	669.39
636.68	606.20
636.83	599.18
636.98	674.07
637.13	575.77
637.28	538.32
637.43	636.63
637.57	596.84
637.72	592.16
637.87	547.69
638.02	533.64
638.17	526.62
638.32	514.92
638.46	617.90
638.61	575.77
638.76	505.56
638.91	463.43
639.06	491.51
639.20	533.64
639.35	645.99
639.50	519.60
639.65	566.41
639.80	489.17
639.94	496.19
640.09	533.64
640.24	627.26
640.39	524.28
640.54	479.81
640.68	475.13
640.83	498.53
640.98	510.24
641.13	519.60
641.27	526.62
641.42	550.03
641.57	486.83
641.72	484.49
641.86	505.56
642.01	461.09
642.16	461.09
642.31	498.53
642.45	606.20
642.60	512.58
642.75	528.96
642.90	538.32
643.04	521.94
643.19	463.43
643.34	465.77
643.48	533.64
643.63	559.39
643.78	606.20
643.93	582.79
644.07	514.92
644.22	500.87
644.37	550.03
644.51	514.92
644.66	512.58
644.81	528.96
644.95	543.00
645.10	498.53
645.25	447.04
645.39	503.22
645.54	580.45
645.69	543.00
645.83	568.75
645.98	564.07
646.13	503.22
646.27	414.27
646.42	503.22
646.57	500.87
646.71	379.17
646.86	433.00
647.00	519.60
647.15	482.15
647.30	362.78
647.44	496.19
647.59	400.23
647.74	437.68
647.88	543.00
648.03	463.43
648.17	503.22
648.32	568.75
648.47	535.98
648.61	421.30
648.76	528.96
648.90	507.90
649.05	608.54
649.20	603.86
649.34	587.47
649.49	660.03
649.63	772.38
649.78	1039.20
649.92	1055.58
650.07	1341.13
650.21	1317.72
650.36	1493.26
650.51	1423.05
650.65	1378.58
650.80	1240.48
650.94	1067.28
651.09	933.87
651.23	877.70
651.38	821.53
651.52	709.18
651.67	772.38
651.81	592.16
651.96	667.05
652.10	755.99
652.25	669.39
652.39	585.13
652.54	641.31
652.68	683.44
652.83	777.06
652.97	727.91
653.12	760.67
653.26	784.08
653.41	718.54
653.55	610.88
653.70	648.33
653.84	540.66
653.99	582.79
654.13	416.62
654.27	580.45
654.42	566.41
654.56	482.15
654.71	472.79
654.85	418.96
655.00	421.30
655.14	477.47
655.29	440.02
655.43	475.13
655.57	423.64
655.72	365.12
655.86	482.15
656.01	423.64
656.15	402.57
656.30	475.13
656.44	545.34
656.58	496.19
656.73	409.59
656.87	381.51
657.01	477.47
657.16	550.03
657.30	596.84
657.45	596.84
657.59	496.19
657.73	575.77
657.88	585.13
658.02	461.09
658.16	557.05
658.31	447.04
658.45	475.13
658.60	500.87
658.74	369.80
658.88	362.78
659.03	327.68
659.17	404.91
659.31	451.72
659.46	376.83
659.60	430.66
659.74	301.93
659.89	330.02
660.03	458.74
660.17	411.93
660.32	339.38
660.46	355.76
660.60	365.12
660.74	393.21
660.89	414.27
661.03	360.44
661.17	360.44
661.32	383.85
661.46	475.13
661.60	524.28
661.74	533.64
661.89	755.99
662.03	812.17
662.17	905.79
662.31	912.81
662.46	905.79
662.60	819.19
662.74	763.01
662.88	716.20
663.03	615.56
663.17	543.00
663.31	538.32
663.45	489.17
663.60	524.28
663.74	383.85
663.88	472.79
664.02	393.21
664.17	414.27
664.31	362.78
664.45	346.40
664.59	339.38
664.73	301.93
664.88	409.59
665.02	297.25
665.16	315.97
665.30	362.78
665.44	372.15
665.59	353.42
665.73	292.57
665.87	400.23
666.01	327.68
666.15	344.06
666.29	351.08
666.44	395.55
666.58	409.59
666.72	454.06
666.86	322.99
667.00	372.15
667.14	362.78
667.28	353.42
667.43	341.72
667.57	379.17
667.71	365.12
667.85	369.80
667.99	374.49
668.13	315.97
668.27	379.17
668.41	440.02
668.56	322.99
668.70	369.80
668.84	369.80
668.98	320.65
669.12	278.52
669.26	353.42
669.40	369.80
669.54	365.12
669.68	376.83
669.82	285.55
669.96	318.31
670.10	304.27
670.25	388.53
670.39	320.65
670.53	360.44
670.67	360.44
670.81	271.50
670.95	292.57
671.09	285.55
671.23	383.85
671.37	339.38
671.51	360.44
671.65	299.59
671.79	299.59
671.93	318.31
672.07	379.17
672.21	304.27
672.35	318.31
672.49	205.97
672.63	250.44
672.77	266.82
672.91	243.42
673.05	208.31
673.19	330.02
673.33	248.10
673.47	325.33
673.61	360.44
673.75	212.99
673.89	285.55
674.03	339.38
674.17	287.89
674.31	313.63
674.45	276.18
674.59	292.57
674.73	257.46
674.87	252.78
675.01	306.61
675.15	278.52
675.29	334.70
675.43	346.40
675.56	383.85
675.70	369.80
675.84	208.31
675.98	234.05
676.12	248.10
676.26	255.12
676.40	313.63
676.54	212.99
676.68	252.78
676.82	318.31
676.96	217.67
677.10	259.80
677.23	236.39
677.37	248.10
677.51	264.48
677.65	290.23
677.79	299.59
677.93	262.14
678.07	203.63
678.21	217.67
678.34	248.10
678.48	262.14
678.62	292.57
678.76	217.67
678.90	259.80
679.04	269.16
679.18	250.44
679.31	271.50
679.45	283.20
679.59	224.69
679.73	304.27
679.87	346.40
680.00	217.67
680.14	276.18
680.28	285.55
680.42	264.48
680.56	299.59
680.70	266.82
680.83	283.20
680.97	241.08
681.11	250.44
681.25	301.93
681.39	262.14
681.52	278.52
681.66	313.63
681.80	276.18
681.94	222.35
682.07	238.73
682.21	285.55
682.35	301.93
682.49	276.18
682.62	234.05
682.76	280.86
682.90	285.55
683.04	243.42
683.17	266.82
683.31	245.76
683.45	257.46
683.59	205.97
683.72	334.70
683.86	280.86
684.00	273.84
684.13	234.05
684.27	276.18
684.41	224.69
684.55	266.82
684.68	231.71
684.82	271.50
684.96	245.76
685.09	304.27
685.23	229.37
685.37	215.33
685.50	334.70
685.64	318.31
685.78	259.80
685.91	355.76
686.05	376.83
686.19	355.76
686.32	318.31
686.46	269.16
686.60	306.61
686.73	447.04
686.87	367.46
687.01	449.38
687.14	449.38
687.28	456.40
687.42	491.51
687.55	510.24
687.69	535.98
687.82	550.03
687.96	538.32
688.10	510.24
688.23	486.83
688.37	479.81
688.50	397.89
688.64	388.53
688.78	374.49
688.91	381.51
689.05	386.19
689.18	250.44
689.32	220.01
689.46	273.84
689.59	306.61
689.73	217.67
689.86	194.26
690.00	208.31
690.13	149.79
690.27	205.97
690.41	231.71
690.54	311.29
690.68	266.82
690.81	259.80
690.95	231.71
691.08	222.35
691.22	142.77
691.35	198.95
691.49	131.07
691.62	147.45
691.76	215.33
691.89	203.63
692.03	187.24
692.16	241.08
692.30	194.26
692.43	152.13
692.57	208.31
692.70	161.50
692.84	229.37
692.97	248.10
693.11	234.05
693.24	278.52
693.38	400.23
693.51	397.89
693.65	437.68
693.78	440.02
693.92	461.09
694.05	414.27
694.19	334.70
694.32	294.91
694.45	337.04
694.59	145.11
694.72	301.93
694.86	208.31
694.99	184.90
695.13	161.50
695.26	170.86
695.39	234.05
695.53	287.89
695.66	208.31
695.80	138.09
695.93	241.08
696.07	159.16
696.20	217.67
696.33	194.26
696.47	187.24
696.60	147.45
696.73	152.13
696.87	234.05
697.00	203.63
697.14	227.03
697.27	269.16
697.40	236.39
697.54	138.09
697.67	173.20
697.80	198.95
697.94	173.20
698.07	180.22
698.21	191.92
698.34	152.13
698.47	98.30
698.61	91.28
698.74	152.13
698.87	187.24
699.01	187.24
699.14	154.48
699.27	187.24
699.40	318.31
699.54	138.09
699.67	177.88
699.80	140.43
699.94	112.35
700.07	149.79
700.20	152.13
700.34	110.01
700.47	119.37
700.60	142.77
700.73	154.48
700.87	208.31
701.00	65.54
701.13	91.28
701.26	191.92
701.40	177.88
701.53	203.63
701.66	166.18
701.79	163.84
701.93	189.58
702.06	210.65
702.19	205.97
702.32	208.31
702.46	189.58
702.59	163.84
702.72	159.16
702.85	163.84
702.99	163.84
703.12	229.37
703.25	161.50
703.38	182.56
703.51	220.01
703.65	133.41
703.78	187.24
703.91	227.03
704.04	194.26
704.17	184.90
704.31	149.79
704.44	159.16
704.57	306.61
704.70	220.01
704.83	224.69
704.96	198.95
705.10	325.33
705.23	280.86
>>>>>End Processed Spectral Data<<<<<
