SpectraSuite Data File
++++++++++++++++++++++++++++++++++++
Date: Fri Oct 04 11:41:50 GMT-05:00 2013
User: price-jones
Dark Spectrum Present: No
Reference Spectrum Present: No
Number of Sampled Component Spectra: 1
Spectrometers: USB2+H05261
Integration Time (usec): 100000 (USB2+H05261)
Spectra Averaged: 1 (USB2+H05261)
Boxcar Smoothing: 0 (USB2+H05261)
Correct for Electrical Dark: No (USB2+H05261)
Strobe/Lamp Enabled: No (USB2+H05261)
Correct for Detector Non-linearity: No (USB2+H05261)
Correct for Stray Light: No (USB2+H05261)
Number of Pixels in Processed Spectrum: 2048
>>>>>Begin Processed Spectral Data<<<<<
365.73	42.13
365.92	42.13
366.12	42.13
366.32	0.00
366.52	0.00
366.72	0.00
366.91	0.00
367.11	0.00
367.31	0.00
367.51	0.00
367.70	0.00
367.90	0.00
368.10	0.00
368.30	0.00
368.49	0.00
368.69	0.00
368.89	0.00
369.09	0.00
369.28	0.00
369.48	0.00
369.68	0.00
369.87	11.70
370.07	0.00
370.27	39.79
370.47	30.43
370.66	81.92
370.86	88.94
371.06	65.54
371.25	124.05
371.45	39.79
371.65	81.92
371.84	42.13
372.04	14.04
372.24	88.94
372.44	49.15
372.63	105.32
372.83	114.69
373.03	161.50
373.22	121.71
373.42	84.26
373.62	84.26
373.81	128.73
374.01	86.60
374.21	138.09
374.40	105.32
374.60	133.41
374.79	117.03
374.99	154.48
375.19	149.79
375.38	205.97
375.58	133.41
375.78	140.43
375.97	156.82
376.17	91.28
376.37	81.92
376.56	154.48
376.76	102.98
376.95	77.24
377.15	180.22
377.35	114.69
377.54	81.92
377.74	51.49
377.93	105.32
378.13	110.01
378.33	173.20
378.52	114.69
378.72	74.90
378.91	112.35
379.11	119.37
379.31	53.83
379.50	95.96
379.70	142.77
379.89	142.77
380.09	147.45
380.28	124.05
380.48	133.41
380.68	74.90
380.87	124.05
381.07	140.43
381.26	205.97
381.46	131.07
381.65	110.01
381.85	114.69
382.04	140.43
382.24	138.09
382.43	117.03
382.63	110.01
382.83	119.37
383.02	175.54
383.22	168.52
383.41	117.03
383.61	102.98
383.80	131.07
384.00	126.39
384.19	77.24
384.39	102.98
384.58	173.20
384.78	51.49
384.97	187.24
385.17	107.66
385.36	128.73
385.56	93.62
385.75	180.22
385.95	184.90
386.14	51.49
386.34	98.30
386.53	140.43
386.72	88.94
386.92	159.16
387.11	161.50
387.31	147.45
387.50	107.66
387.70	93.62
387.89	126.39
388.09	131.07
388.28	63.19
388.48	112.35
388.67	184.90
388.86	100.64
389.06	81.92
389.25	145.11
389.45	102.98
389.64	135.75
389.84	170.86
390.03	184.90
390.22	217.67
390.42	133.41
390.61	177.88
390.81	182.56
391.00	140.43
391.19	152.13
391.39	128.73
391.58	126.39
391.78	154.48
391.97	145.11
392.16	110.01
392.36	124.05
392.55	88.94
392.75	128.73
392.94	77.24
393.13	187.24
393.33	128.73
393.52	145.11
393.71	173.20
393.91	102.98
394.10	84.26
394.29	163.84
394.49	95.96
394.68	135.75
394.88	119.37
395.07	208.31
395.26	145.11
395.46	156.82
395.65	187.24
395.84	102.98
396.04	175.54
396.23	184.90
396.42	166.18
396.62	168.52
396.81	74.90
397.00	149.79
397.19	149.79
397.39	177.88
397.58	145.11
397.77	105.32
397.97	140.43
398.16	182.56
398.35	175.54
398.55	203.63
398.74	184.90
398.93	159.16
399.12	156.82
399.32	147.45
399.51	135.75
399.70	102.98
399.90	86.60
400.09	196.60
400.28	212.99
400.47	152.13
400.67	210.65
400.86	194.26
401.05	121.71
401.24	189.58
401.44	212.99
401.63	163.84
401.82	238.73
402.01	138.09
402.21	152.13
402.40	175.54
402.59	173.20
402.78	227.03
402.97	297.25
403.17	220.01
403.36	238.73
403.55	308.95
403.74	798.12
403.93	2385.01
404.13	5701.54
404.32	8872.97
404.51	8355.71
404.70	5331.74
404.89	2064.35
405.09	594.50
405.28	404.91
405.47	257.46
405.66	203.63
405.85	285.55
406.05	234.05
406.24	215.33
406.43	201.29
406.62	257.46
406.81	259.80
407.00	367.46
407.20	718.54
407.39	1078.99
407.58	1404.32
407.77	964.30
407.96	512.58
408.15	203.63
408.34	156.82
408.54	177.88
408.73	269.16
408.92	177.88
409.11	245.76
409.30	189.58
409.49	243.42
409.68	124.05
409.87	191.92
410.07	177.88
410.26	194.26
410.45	191.92
410.64	180.22
410.83	217.67
411.02	236.39
411.21	257.46
411.40	248.10
411.59	241.08
411.78	203.63
411.98	217.67
412.17	220.01
412.36	163.84
412.55	255.12
412.74	311.29
412.93	308.95
413.12	283.20
413.31	278.52
413.50	292.57
413.69	322.99
413.88	273.84
414.07	208.31
414.26	224.69
414.45	262.14
414.64	231.71
414.83	262.14
415.02	344.06
415.22	304.27
415.41	287.89
415.60	215.33
415.79	322.99
415.98	369.80
416.17	255.12
416.36	322.99
416.55	266.82
416.74	241.08
416.93	229.37
417.12	294.91
417.31	227.03
417.50	320.65
417.69	306.61
417.88	287.89
418.07	243.42
418.26	287.89
418.45	241.08
418.64	280.86
418.83	280.86
419.02	301.93
419.21	297.25
419.39	297.25
419.58	187.24
419.77	325.33
419.96	283.20
420.15	395.55
420.34	297.25
420.53	248.10
420.72	315.97
420.91	362.78
421.10	299.59
421.29	344.06
421.48	355.76
421.67	320.65
421.86	308.95
422.05	306.61
422.24	245.76
422.43	301.93
422.61	334.70
422.80	393.21
422.99	332.36
423.18	337.04
423.37	383.85
423.56	332.36
423.75	400.23
423.94	273.84
424.13	330.02
424.32	299.59
424.50	369.80
424.69	369.80
424.88	320.65
425.07	386.19
425.26	383.85
425.45	360.44
425.64	381.51
425.83	395.55
426.01	332.36
426.20	292.57
426.39	376.83
426.58	334.70
426.77	400.23
426.96	383.85
427.15	348.74
427.33	311.29
427.52	390.87
427.71	416.62
427.90	372.15
428.09	465.77
428.28	425.98
428.46	341.72
428.65	456.40
428.84	454.06
429.03	402.57
429.22	330.02
429.40	320.65
429.59	365.12
429.78	395.55
429.97	423.64
430.16	402.57
430.34	442.36
430.53	360.44
430.72	355.76
430.91	449.38
431.10	447.04
431.28	486.83
431.47	447.04
431.66	477.47
431.85	346.40
432.03	458.74
432.22	472.79
432.41	510.24
432.60	477.47
432.79	458.74
432.97	503.22
433.16	585.13
433.35	645.99
433.54	781.74
433.72	795.78
433.91	737.27
434.10	828.55
434.28	1039.20
434.47	1078.99
434.66	1277.93
434.85	1584.54
435.03	3866.56
435.22	13818.52
435.41	34836.53
435.59	43433.32
435.78	29771.61
435.97	14281.95
436.16	5416.00
436.34	1806.89
436.53	1020.47
436.72	896.43
436.90	716.20
437.09	608.54
437.28	636.63
437.46	608.54
437.65	585.13
437.84	664.71
438.02	681.10
438.21	636.63
438.40	564.07
438.58	550.03
438.77	564.07
438.96	491.51
439.14	636.63
439.33	528.96
439.52	512.58
439.70	538.32
439.89	503.22
440.08	517.26
440.26	554.71
440.45	550.03
440.63	496.19
440.82	498.53
441.01	526.62
441.19	491.51
441.38	521.94
441.57	557.05
441.75	580.45
441.94	545.34
442.12	613.22
442.31	543.00
442.50	521.94
442.68	554.71
442.87	486.83
443.05	484.49
443.24	507.90
443.43	535.98
443.61	521.94
443.80	517.26
443.98	531.30
444.17	552.37
444.35	521.94
444.54	531.30
444.73	524.28
444.91	596.84
445.10	496.19
445.28	550.03
445.47	514.92
445.65	540.66
445.84	526.62
446.02	524.28
446.21	524.28
446.39	425.98
446.58	531.30
446.77	514.92
446.95	514.92
447.14	561.73
447.32	500.87
447.51	545.34
447.69	547.69
447.88	543.00
448.06	545.34
448.25	500.87
448.43	580.45
448.62	505.56
448.80	538.32
448.99	510.24
449.17	524.28
449.36	505.56
449.54	496.19
449.73	526.62
449.91	510.24
450.10	477.47
450.28	603.86
450.46	589.82
450.65	580.45
450.83	526.62
451.02	510.24
451.20	568.75
451.39	580.45
451.57	505.56
451.76	442.36
451.94	533.64
452.13	543.00
452.31	521.94
452.49	524.28
452.68	496.19
452.86	533.64
453.05	592.16
453.23	596.84
453.42	500.87
453.60	519.60
453.78	524.28
453.97	547.69
454.15	496.19
454.34	629.60
454.52	463.43
454.70	552.37
454.89	491.51
455.07	507.90
455.26	533.64
455.44	526.62
455.62	521.94
455.81	517.26
455.99	543.00
456.17	540.66
456.36	566.41
456.54	528.96
456.73	451.72
456.91	465.77
457.09	531.30
457.28	517.26
457.46	482.15
457.64	528.96
457.83	468.11
458.01	500.87
458.19	575.77
458.38	463.43
458.56	496.19
458.74	407.25
458.93	535.98
459.11	505.56
459.29	512.58
459.48	564.07
459.66	564.07
459.84	512.58
460.03	599.18
460.21	498.53
460.39	463.43
460.57	564.07
460.76	521.94
460.94	519.60
461.12	498.53
461.31	505.56
461.49	578.11
461.67	461.09
461.85	482.15
462.04	477.47
462.22	971.32
462.40	592.16
462.59	458.74
462.77	475.13
462.95	547.69
463.13	414.27
463.32	550.03
463.50	514.92
463.68	575.77
463.86	526.62
464.05	500.87
464.23	482.15
464.41	608.54
464.59	461.09
464.78	451.72
464.96	463.43
465.14	489.17
465.32	510.24
465.50	554.71
465.69	512.58
465.87	468.11
466.05	500.87
466.23	444.70
466.41	535.98
466.60	500.87
466.78	573.43
466.96	575.77
467.14	601.52
467.32	531.30
467.51	573.43
467.69	484.49
467.87	498.53
468.05	543.00
468.23	547.69
468.41	484.49
468.60	458.74
468.78	444.70
468.96	463.43
469.14	447.04
469.32	407.25
469.50	505.56
469.69	449.38
469.87	472.79
470.05	468.11
470.23	444.70
470.41	475.13
470.59	463.43
470.77	484.49
470.95	479.81
471.14	454.06
471.32	491.51
471.50	519.60
471.68	468.11
471.86	458.74
472.04	416.62
472.22	498.53
472.40	423.64
472.58	435.34
472.77	440.02
472.95	559.39
473.13	613.22
473.31	552.37
473.49	479.81
473.67	552.37
473.85	557.05
474.03	437.68
474.21	489.17
474.39	526.62
474.57	517.26
474.75	573.43
474.93	484.49
475.12	547.69
475.30	526.62
475.48	449.38
475.66	489.17
475.84	451.72
476.02	416.62
476.20	435.34
476.38	468.11
476.56	510.24
476.74	477.47
476.92	526.62
477.10	479.81
477.28	493.85
477.46	533.64
477.64	449.38
477.82	538.32
478.00	540.66
478.18	517.26
478.36	510.24
478.54	587.47
478.72	526.62
478.90	631.94
479.08	535.98
479.26	617.90
479.44	603.86
479.62	620.24
479.80	688.12
479.98	624.92
480.16	716.20
480.34	774.72
480.52	795.78
480.70	734.93
480.88	781.74
481.06	858.98
481.24	891.74
481.41	959.62
481.59	1078.99
481.77	1020.47
481.95	1104.73
482.13	1163.25
482.31	1263.89
482.49	1341.13
482.67	1383.26
482.85	1439.43
483.03	1568.16
483.21	1706.25
483.39	1715.61
483.57	1881.79
483.74	2057.33
483.92	2197.76
484.10	2260.96
484.28	2450.54
484.46	2607.36
484.64	2642.46
484.82	2839.07
485.00	2867.16
485.18	3061.42
485.35	3267.39
485.53	3424.20
485.71	3616.13
485.89	3749.54
486.07	3829.12
486.25	3929.76
486.43	3950.82
486.61	3857.20
486.78	3962.53
486.96	3943.80
487.14	3946.14
487.32	3920.40
487.50	3857.20
487.68	3716.77
487.85	3864.22
488.03	3765.92
488.21	3770.60
488.39	3527.19
488.57	3662.94
488.75	3492.08
488.92	3524.85
489.10	3241.64
489.28	3241.64
489.46	3108.23
489.64	3042.70
489.81	2960.78
489.99	2888.22
490.17	2920.99
490.35	2965.46
490.53	2874.18
490.70	2913.97
490.88	2958.44
491.06	2932.69
491.24	3178.45
491.41	3447.61
491.59	3187.81
491.77	3089.51
491.95	2850.77
492.13	2815.66
492.30	2750.13
492.48	2768.85
492.66	2504.37
492.84	2581.61
493.01	2682.25
493.19	2443.52
493.37	2630.76
493.54	2420.11
493.72	2485.65
493.90	2349.90
494.08	2303.09
494.25	2275.00
494.43	2319.47
494.61	2289.04
494.79	2223.51
494.96	2134.57
495.14	2179.04
495.32	2064.35
495.49	2113.50
495.67	1956.69
495.85	1998.82
496.02	2038.61
496.20	1900.52
496.38	1881.79
496.55	1830.30
496.73	1804.55
496.91	1785.83
497.09	1893.49
497.26	1774.13
497.44	1701.57
497.62	1668.80
497.79	1678.16
497.97	1621.99
498.14	1558.80
498.32	1479.22
498.50	1563.48
498.67	1469.86
498.85	1387.94
499.03	1390.28
499.20	1392.62
499.38	1362.19
499.56	1369.21
499.73	1369.21
499.91	1301.34
500.08	1196.01
500.26	1205.38
500.44	1132.82
500.61	1057.92
500.79	1036.86
500.97	1144.52
501.14	1088.35
501.32	1032.18
501.49	1088.35
501.67	1036.86
501.84	952.60
502.02	894.08
502.20	959.62
502.37	905.79
502.55	959.62
502.72	887.06
502.90	786.42
503.07	805.14
503.25	795.78
503.43	746.63
503.60	678.76
503.78	664.71
503.95	760.67
504.13	678.76
504.30	641.31
504.48	617.90
504.65	685.78
504.83	685.78
505.01	716.20
505.18	727.91
505.36	697.48
505.53	589.82
505.71	699.82
505.88	660.03
506.06	575.77
506.23	566.41
506.41	596.84
506.58	587.47
506.76	594.50
506.93	503.22
507.11	552.37
507.28	554.71
507.46	454.06
507.63	468.11
507.81	599.18
507.98	512.58
508.16	538.32
508.33	526.62
508.50	585.13
508.68	603.86
508.85	571.09
509.03	596.84
509.20	566.41
509.38	617.90
509.55	669.39
509.73	428.32
509.90	540.66
510.08	550.03
510.25	477.47
510.42	479.81
510.60	454.06
510.77	547.69
510.95	554.71
511.12	456.40
511.30	545.34
511.47	526.62
511.64	472.79
511.82	482.15
511.99	512.58
512.17	519.60
512.34	489.17
512.51	503.22
512.69	482.15
512.86	575.77
513.04	433.00
513.21	468.11
513.38	498.53
513.56	456.40
513.73	456.40
513.90	381.51
514.08	402.57
514.25	491.51
514.43	456.40
514.60	409.59
514.77	491.51
514.95	395.55
515.12	360.44
515.29	454.06
515.47	395.55
515.64	428.32
515.81	451.72
515.99	507.90
516.16	435.34
516.33	505.56
516.51	418.96
516.68	461.09
516.85	489.17
517.03	411.93
517.20	437.68
517.37	386.19
517.54	454.06
517.72	393.21
517.89	294.91
518.06	388.53
518.24	458.74
518.41	510.24
518.58	416.62
518.75	395.55
518.93	383.85
519.10	407.25
519.27	433.00
519.45	425.98
519.62	374.49
519.79	362.78
519.96	369.80
520.14	369.80
520.31	418.96
520.48	444.70
520.65	346.40
520.83	376.83
521.00	402.57
521.17	463.43
521.34	421.30
521.52	390.87
521.69	360.44
521.86	395.55
522.03	400.23
522.20	402.57
522.38	318.31
522.55	358.10
522.72	339.38
522.89	374.49
523.07	386.19
523.24	395.55
523.41	355.76
523.58	433.00
523.75	435.34
523.92	325.33
524.10	320.65
524.27	444.70
524.44	430.66
524.61	447.04
524.78	397.89
524.96	388.53
525.13	393.21
525.30	514.92
525.47	470.45
525.64	390.87
525.81	496.19
525.98	451.72
526.16	414.27
526.33	409.59
526.50	437.68
526.67	475.13
526.84	444.70
527.01	421.30
527.18	575.77
527.36	538.32
527.53	533.64
527.70	582.79
527.87	533.64
528.04	561.73
528.21	498.53
528.38	554.71
528.55	512.58
528.72	470.45
528.89	599.18
529.07	554.71
529.24	545.34
529.41	589.82
529.58	489.17
529.75	589.82
529.92	559.39
530.09	540.66
530.26	641.31
530.43	573.43
530.60	538.32
530.77	671.73
530.94	585.13
531.11	755.99
531.28	772.38
531.46	683.44
531.63	655.35
531.80	755.99
531.97	842.59
532.14	966.64
532.31	1032.18
532.48	1242.82
532.65	1451.13
532.82	1640.72
532.99	1792.85
533.16	2265.64
533.33	2452.88
533.50	2232.87
533.67	1872.43
533.84	1734.34
534.01	1584.54
534.18	1369.21
534.35	1327.08
534.52	1324.74
534.69	1479.22
534.86	1430.07
535.03	1495.60
535.20	1432.41
535.37	1659.44
535.54	1668.80
535.71	1809.23
535.88	1942.64
536.05	1973.07
536.22	2176.70
536.38	2448.20
536.55	2619.06
536.72	2923.33
536.89	3063.76
537.06	3501.44
537.23	3892.31
537.40	4444.68
537.57	4772.35
537.74	4823.84
537.91	5193.65
538.08	5158.54
538.25	5364.51
538.42	5324.72
538.59	5516.64
538.75	5668.78
538.92	6024.54
539.09	6642.44
539.26	7047.35
539.43	8063.15
539.60	9411.29
539.77	10305.38
539.94	11571.61
540.11	12769.96
540.28	14244.50
540.44	15693.29
540.61	17102.29
540.78	19578.58
540.95	23620.69
541.12	28325.16
541.29	32549.83
541.46	33921.38
541.62	34029.05
541.79	32348.54
541.96	30623.57
542.13	28154.30
542.30	25914.41
542.47	24123.90
542.63	23400.68
542.80	22693.83
542.97	21884.01
543.14	21404.20
543.31	21249.72
543.48	21668.68
543.64	22251.47
543.81	22604.89
543.98	22717.24
544.15	22752.35
544.32	23126.83
544.48	23220.45
544.65	22560.42
544.82	23098.75
544.99	22810.86
545.16	22913.84
545.32	24053.69
545.49	36905.57
545.66	58623.40
545.83	65535.00
546.00	65006.04
546.16	53073.99
546.33	40425.73
546.50	30445.69
546.67	23527.06
546.83	20655.23
547.00	19917.96
547.17	19096.43
547.34	17944.89
547.50	17490.82
547.67	16702.06
547.84	15974.16
548.00	15358.60
548.17	14967.73
548.34	14359.19
548.51	13865.33
548.67	13109.34
548.84	12262.07
549.01	11857.15
549.18	11391.39
549.34	10864.77
549.51	10263.25
549.68	10153.24
549.84	9659.39
550.01	9242.78
550.18	8823.82
550.34	8372.10
550.51	7896.97
550.68	7784.62
550.84	7208.85
551.01	6937.35
551.18	6525.41
551.34	6267.95
551.51	6019.86
551.68	5584.52
551.84	5518.98
552.01	5132.79
552.18	4947.89
552.34	4830.87
552.51	4709.16
552.68	4468.08
552.84	4219.99
553.01	4067.85
553.18	3847.84
553.34	3943.80
553.51	3693.37
553.67	3588.04
553.84	3574.00
554.01	3316.54
554.17	3068.44
554.34	2792.26
554.51	2677.57
554.67	2595.65
554.84	2434.16
555.00	2349.90
555.17	2127.55
555.33	2174.36
555.50	2005.84
555.67	1874.77
555.83	1813.92
556.00	1755.40
556.16	1879.45
556.33	1675.82
556.50	1589.22
556.66	1563.48
556.83	1462.83
556.99	1437.09
557.16	1423.05
557.32	1411.34
557.49	1425.39
557.65	1301.34
557.82	1259.21
557.98	1200.69
558.15	1191.33
558.32	1233.46
558.48	1104.73
558.65	1090.69
558.81	1109.41
558.98	1067.28
559.14	1041.54
559.31	1069.62
559.47	1013.45
559.64	933.87
559.80	947.92
559.97	912.81
560.13	966.64
560.30	1013.45
560.46	964.30
560.63	915.15
560.79	936.21
560.96	936.21
561.12	945.58
561.29	957.28
561.45	884.72
561.61	910.47
561.78	978.34
561.94	990.05
562.11	905.79
562.27	931.53
562.44	908.13
562.60	929.19
562.77	826.21
562.93	1036.86
563.10	788.76
563.26	800.46
563.42	842.59
563.59	819.19
563.75	753.65
563.92	791.10
564.08	835.57
564.24	833.23
564.41	791.10
564.57	678.76
564.74	692.80
564.90	784.08
565.07	690.46
565.23	791.10
565.39	681.10
565.56	678.76
565.72	725.57
565.88	755.99
566.05	725.57
566.21	664.71
566.38	713.86
566.54	641.31
566.70	746.63
566.87	753.65
567.03	816.85
567.19	723.23
567.36	720.88
567.52	713.86
567.68	725.57
567.85	772.38
568.01	800.46
568.17	648.33
568.34	734.93
568.50	788.76
568.66	671.73
568.83	784.08
568.99	641.31
569.15	624.92
569.32	671.73
569.48	575.77
569.64	608.54
569.81	634.29
569.97	624.92
570.13	615.56
570.30	535.98
570.46	568.75
570.62	454.06
570.78	517.26
570.95	528.96
571.11	596.84
571.27	575.77
571.43	468.11
571.60	540.66
571.76	535.98
571.92	550.03
572.09	510.24
572.25	472.79
572.41	552.37
572.57	554.71
572.74	566.41
572.90	550.03
573.06	622.58
573.22	519.60
573.38	561.73
573.55	653.01
573.71	627.26
573.87	627.26
574.03	585.13
574.20	615.56
574.36	645.99
574.52	634.29
574.68	629.60
574.84	732.59
575.01	662.37
575.17	755.99
575.33	809.83
575.49	898.77
575.65	952.60
575.82	1071.97
575.98	1060.26
576.14	1247.51
576.30	2113.50
576.46	6607.33
576.62	14150.88
576.79	18480.87
576.95	12945.50
577.11	7805.69
577.27	5413.66
577.43	3564.64
577.59	2289.04
577.75	1816.26
577.92	1629.01
578.08	1558.80
578.24	1570.50
578.40	2541.82
578.56	6410.73
578.72	13252.11
578.88	16669.30
579.04	12131.00
579.21	7768.24
579.37	5671.12
579.53	4306.59
579.69	3913.38
579.85	4983.00
580.01	5891.13
580.17	5863.04
580.33	5123.43
580.49	4231.69
580.65	3691.02
580.82	3449.95
580.98	3304.84
581.14	3300.16
581.30	3557.61
581.46	3728.47
581.62	4086.58
581.78	4306.59
581.94	4784.06
582.10	5020.45
582.26	5130.45
582.42	5242.80
582.58	5715.59
582.74	5680.48
582.90	5586.86
583.06	5746.02
583.22	5820.91
583.38	5781.12
583.54	5804.53
583.70	5816.23
583.86	5636.01
584.02	5303.65
584.18	5350.46
584.34	5280.25
584.50	5280.25
584.66	5116.41
584.82	5078.96
584.98	5170.24
585.14	4952.57
585.30	4863.63
585.46	4835.55
585.62	4784.06
585.78	4793.42
585.94	4767.67
586.10	4863.63
586.26	5048.54
586.42	5715.59
586.58	6789.89
586.74	8222.30
586.90	10169.63
587.06	11302.45
587.22	11105.84
587.38	10043.24
587.54	8762.97
587.70	7363.33
587.86	6122.84
588.02	5423.02
588.18	4793.42
588.34	4234.03
588.49	3791.67
588.65	3531.87
588.81	3386.76
588.97	3321.22
589.13	3206.53
589.29	3115.25
589.45	3157.38
589.61	3075.46
589.77	3108.23
589.93	3218.24
590.08	3194.83
590.24	3330.58
590.40	3529.53
590.56	3508.46
590.72	3620.81
590.88	3555.27
591.04	3918.06
591.20	3922.74
591.35	4095.94
591.51	4311.27
591.67	4552.34
591.83	4870.65
591.99	5298.97
592.15	5645.37
592.31	6181.35
592.46	6834.36
592.62	7180.76
592.78	7831.43
592.94	7831.43
593.10	8149.75
593.26	7686.32
593.41	7070.76
593.57	6424.77
593.73	5825.59
593.89	4837.89
594.05	4430.63
594.20	3915.72
594.36	3585.70
594.52	3386.76
594.68	3293.13
594.84	3180.79
594.99	3000.57
595.15	2951.42
595.31	2869.50
595.47	2876.52
595.62	2909.29
595.78	2708.00
595.94	2869.50
596.10	2864.82
596.25	2818.00
596.41	2829.71
596.57	2874.18
596.73	2782.90
596.88	2796.94
597.04	2862.48
597.20	2740.77
597.36	2794.60
597.51	3042.70
597.67	3075.46
597.83	3251.00
597.99	3382.07
598.14	3613.79
598.30	3833.80
598.46	3997.64
598.61	4161.47
598.77	4280.84
598.93	4697.46
599.09	4968.96
599.24	4821.50
599.40	4828.53
599.56	4795.76
599.71	4559.36
599.87	4177.86
600.03	4180.20
600.18	3665.28
600.34	3482.72
600.50	3173.77
600.65	2972.48
600.81	2909.29
600.97	2668.21
601.12	2583.95
601.28	2595.65
601.44	2305.43
601.59	2202.44
601.75	2186.06
601.91	2012.86
602.06	2003.50
602.22	2040.95
602.37	1902.86
602.53	1949.67
602.69	1858.39
602.84	1825.62
603.00	1788.17
603.16	1844.34
603.31	1905.20
603.47	1970.73
603.62	1963.71
603.78	2069.03
603.94	1984.77
604.09	2078.40
604.25	2069.03
604.40	2228.19
604.56	2099.46
604.71	2169.68
604.87	2207.13
605.03	2382.67
605.18	2277.34
605.34	2410.75
605.49	2408.41
605.65	2462.24
605.80	2504.37
605.96	2597.99
606.12	2808.64
606.27	2743.11
606.43	2895.24
606.58	3042.70
606.74	3225.26
606.89	3251.00
607.05	3590.38
607.20	3850.18
607.36	3852.52
607.51	4180.20
607.67	4521.92
607.82	4688.09
607.98	4985.34
608.13	5535.37
608.29	5909.85
608.44	6291.36
608.60	6874.15
608.75	7613.76
608.91	8308.90
609.06	9205.33
609.22	9994.09
609.37	10979.45
609.53	12248.02
609.68	14401.32
609.84	16334.60
609.99	18991.11
610.15	22668.09
610.30	28032.60
610.46	34927.81
610.61	44488.90
610.76	53619.33
610.92	59526.84
611.07	63142.97
611.23	64161.11
611.38	62953.39
611.54	59882.61
611.69	55257.71
611.84	49343.17
612.00	41827.71
612.15	35428.69
612.31	30487.82
612.46	27182.98
612.62	25322.26
612.77	23978.79
612.92	22810.86
613.08	21280.15
613.23	19826.68
613.39	19365.59
613.54	18743.01
613.69	18740.67
613.85	18286.61
614.00	18312.35
614.15	17862.97
614.31	17502.53
614.46	17252.09
614.62	16826.11
614.77	15920.32
614.92	14752.40
615.08	13928.53
615.23	12802.73
615.38	12016.31
615.54	10764.12
615.69	10111.11
615.84	9085.96
616.00	8229.32
616.15	7625.47
616.30	7218.21
616.46	6640.10
616.61	6396.68
616.76	6047.94
616.92	5645.37
617.07	5343.44
617.22	5076.62
617.37	4889.38
617.53	4716.18
617.68	4472.76
617.83	4212.96
617.99	4208.28
618.14	4053.81
618.29	4023.38
618.45	3983.59
618.60	3726.13
618.75	3688.68
618.90	3639.53
619.06	3669.96
619.21	3730.81
619.36	3702.73
619.51	3557.61
619.67	3630.17
619.82	3719.11
619.97	3679.32
620.12	3681.66
620.28	3929.76
620.43	3985.93
620.58	3969.55
620.73	4109.98
620.89	3992.95
621.04	3929.76
621.19	4081.89
621.34	3824.44
621.49	3824.44
621.65	3929.76
621.80	3775.28
621.95	3641.87
622.10	3808.05
622.25	3742.52
622.41	3754.22
622.56	3822.09
622.71	4095.94
622.86	4236.37
623.01	4109.98
623.16	4046.79
623.32	4329.99
623.47	4283.18
623.62	4435.32
623.77	4304.25
623.92	4219.99
624.07	4161.47
624.23	4393.19
624.38	4390.84
624.53	4184.88
624.68	4229.35
624.83	4376.80
624.98	4365.10
625.13	4472.76
625.29	4484.47
625.44	4451.70
625.59	4465.74
625.74	4393.19
625.89	4379.14
626.04	4318.29
626.19	4440.00
626.34	4327.65
626.49	4337.01
626.65	4430.63
626.80	4318.29
626.95	4383.82
627.10	4212.96
627.25	4201.26
627.40	4011.68
627.55	4002.32
627.70	4023.38
627.85	3988.27
628.00	3796.35
628.15	3833.80
628.30	3805.71
628.45	3999.98
628.60	3894.65
628.76	3815.07
628.91	3819.75
629.06	4028.06
629.21	3946.14
629.36	4217.65
629.51	4264.46
629.66	4358.08
629.81	4837.89
629.96	5130.45
630.11	5582.18
630.26	6363.92
630.41	7089.48
630.56	7903.99
630.71	8449.33
630.86	8748.92
631.01	8468.06
631.16	7882.92
631.31	7052.03
631.46	6150.93
631.61	5151.52
631.76	4339.35
631.91	3632.51
632.06	3016.95
632.21	2640.12
632.36	2354.58
632.51	2045.63
632.66	1834.98
632.81	1692.21
632.96	1629.01
633.10	1612.63
633.25	1514.33
633.40	1406.66
633.55	1476.88
633.70	1355.17
633.85	1217.08
634.00	1228.78
634.15	1151.54
634.30	1146.86
634.45	1060.26
634.60	1114.10
634.75	1125.80
634.90	1139.84
635.05	1153.88
635.19	1064.94
635.34	1015.79
635.49	926.85
635.64	1001.75
635.79	952.60
635.94	1053.24
636.09	990.05
636.24	870.68
636.39	957.28
636.53	978.34
636.68	943.24
636.83	870.68
636.98	938.55
637.13	903.45
637.28	884.72
637.43	901.11
637.57	828.55
637.72	816.85
637.87	910.47
638.02	767.70
638.17	826.21
638.32	821.53
638.46	739.61
638.61	748.97
638.76	786.42
638.91	751.31
639.06	660.03
639.20	643.65
639.35	805.14
639.50	723.23
639.65	763.01
639.80	739.61
639.94	774.72
640.09	755.99
640.24	688.12
640.39	730.25
640.54	732.59
640.68	744.29
640.83	755.99
640.98	704.50
641.13	802.80
641.27	755.99
641.42	793.44
641.57	795.78
641.72	739.61
641.86	706.84
642.01	683.44
642.16	786.42
642.31	676.41
642.45	746.63
642.60	807.48
642.75	744.29
642.90	784.08
643.04	763.01
643.19	753.65
643.34	685.78
643.48	795.78
643.63	753.65
643.78	734.93
643.93	779.40
644.07	653.01
644.22	734.93
644.37	725.57
644.51	781.74
644.66	650.67
644.81	702.16
644.95	826.21
645.10	671.73
645.25	711.52
645.39	763.01
645.54	737.27
645.69	713.86
645.83	681.10
645.98	795.78
646.13	706.84
646.27	695.14
646.42	631.94
646.57	702.16
646.71	538.32
646.86	685.78
647.00	634.29
647.15	662.37
647.30	662.37
647.44	615.56
647.59	765.36
647.74	615.56
647.88	681.10
648.03	653.01
648.17	681.10
648.32	702.16
648.47	746.63
648.61	744.29
648.76	758.33
648.90	725.57
649.05	812.17
649.20	861.32
649.34	976.00
649.49	1022.81
649.63	1142.18
649.78	1329.42
649.92	1654.76
650.07	2022.22
650.21	2221.17
650.36	2382.67
650.51	2228.19
650.65	2249.25
650.80	2022.22
650.94	1881.79
651.09	1638.38
651.23	1455.81
651.38	1219.42
651.52	1228.78
651.67	1125.80
651.81	980.68
651.96	1055.58
652.10	966.64
652.25	952.60
652.39	1015.79
652.54	1043.88
652.68	1139.84
652.83	1172.61
652.97	1137.50
653.12	1310.70
653.26	1039.20
653.41	1128.14
653.55	940.90
653.70	929.19
653.84	873.02
653.99	781.74
654.13	711.52
654.27	772.38
654.42	748.97
654.56	767.70
654.71	739.61
654.85	627.26
655.00	739.61
655.14	669.39
655.29	678.76
655.43	716.20
655.57	650.67
655.72	648.33
655.86	634.29
656.01	613.22
656.15	657.69
656.30	678.76
656.44	695.14
656.58	674.07
656.73	624.92
656.87	610.88
657.01	671.73
657.16	770.04
657.30	798.12
657.45	889.40
657.59	856.64
657.73	828.55
657.88	837.91
658.02	882.38
658.16	763.01
658.31	709.18
658.45	615.56
658.60	634.29
658.74	582.79
658.88	543.00
659.03	571.09
659.17	552.37
659.31	571.09
659.46	538.32
659.60	564.07
659.74	437.68
659.89	514.92
660.03	421.30
660.17	540.66
660.32	552.37
660.46	545.34
660.60	482.15
660.74	479.81
660.89	554.71
661.03	552.37
661.17	489.17
661.32	615.56
661.46	669.39
661.60	784.08
661.74	961.96
661.89	1046.22
662.03	1313.04
662.17	1401.98
662.31	1423.05
662.46	1451.13
662.60	1327.08
662.74	1249.85
662.88	1029.84
663.03	947.92
663.17	812.17
663.31	784.08
663.45	739.61
663.60	702.16
663.74	678.76
663.88	636.63
664.02	601.52
664.17	620.24
664.31	528.96
664.45	655.35
664.59	498.53
664.73	489.17
664.88	557.05
665.02	447.04
665.16	528.96
665.30	482.15
665.44	470.45
665.59	418.96
665.73	411.93
665.87	404.91
666.01	526.62
666.15	540.66
666.29	402.57
666.44	585.13
666.58	545.34
666.72	421.30
666.86	557.05
667.00	507.90
667.14	500.87
667.28	503.22
667.43	458.74
667.57	519.60
667.71	440.02
667.85	440.02
667.99	538.32
668.13	449.38
668.27	472.79
668.41	503.22
668.56	503.22
668.70	489.17
668.84	461.09
668.98	489.17
669.12	500.87
669.26	498.53
669.40	505.56
669.54	451.72
669.68	416.62
669.82	437.68
669.96	365.12
670.10	449.38
670.25	512.58
670.39	486.83
670.53	456.40
670.67	402.57
670.81	423.64
670.95	407.25
671.09	400.23
671.23	468.11
671.37	510.24
671.51	425.98
671.65	447.04
671.79	442.36
671.93	507.90
672.07	479.81
672.21	407.25
672.35	367.46
672.49	386.19
672.63	383.85
672.77	440.02
672.91	418.96
673.05	344.06
673.19	355.76
673.33	414.27
673.47	416.62
673.61	344.06
673.75	304.27
673.89	379.17
674.03	360.44
674.17	390.87
674.31	330.02
674.45	362.78
674.59	322.99
674.73	428.32
674.87	306.61
675.01	388.53
675.15	318.31
675.29	418.96
675.43	332.36
675.56	404.91
675.70	351.08
675.84	327.68
675.98	381.51
676.12	400.23
676.26	358.10
676.40	313.63
676.54	418.96
676.68	369.80
676.82	365.12
676.96	367.46
677.10	330.02
677.23	334.70
677.37	306.61
677.51	374.49
677.65	386.19
677.79	325.33
677.93	318.31
678.07	325.33
678.21	322.99
678.34	337.04
678.48	322.99
678.62	339.38
678.76	227.03
678.90	304.27
679.04	383.85
679.18	400.23
679.31	315.97
679.45	330.02
679.59	388.53
679.73	358.10
679.87	297.25
680.00	430.66
680.14	402.57
680.28	358.10
680.42	337.04
680.56	388.53
680.70	400.23
680.83	451.72
680.97	344.06
681.11	362.78
681.25	433.00
681.39	341.72
681.52	388.53
681.66	315.97
681.80	369.80
681.94	337.04
682.07	360.44
682.21	376.83
682.35	299.59
682.49	306.61
682.62	374.49
682.76	306.61
682.90	437.68
683.04	327.68
683.17	264.48
683.31	376.83
683.45	325.33
683.59	339.38
683.72	381.51
683.86	383.85
684.00	330.02
684.13	287.89
684.27	320.65
684.41	353.42
684.55	313.63
684.68	337.04
684.82	330.02
684.96	283.20
685.09	259.80
685.23	311.29
685.37	313.63
685.50	402.57
685.64	346.40
685.78	381.51
685.91	332.36
686.05	353.42
686.19	379.17
686.32	454.06
686.46	430.66
686.60	463.43
686.73	535.98
686.87	573.43
687.01	690.46
687.14	627.26
687.28	716.20
687.42	741.95
687.55	751.31
687.69	835.57
687.82	821.53
687.96	821.53
688.10	873.02
688.23	732.59
688.37	753.65
688.50	620.24
688.64	592.16
688.78	557.05
688.91	500.87
689.05	409.59
689.18	465.77
689.32	383.85
689.46	355.76
689.59	334.70
689.73	353.42
689.86	308.95
690.00	341.72
690.13	276.18
690.27	273.84
690.41	344.06
690.54	407.25
690.68	484.49
690.81	386.19
690.95	351.08
691.08	287.89
691.22	220.01
691.35	196.60
691.49	250.44
691.62	175.54
691.76	220.01
691.89	191.92
692.03	166.18
692.16	147.45
692.30	243.42
692.43	266.82
692.57	259.80
692.70	255.12
692.84	320.65
692.97	327.68
693.11	386.19
693.24	447.04
693.38	491.51
693.51	526.62
693.65	676.41
693.78	695.14
693.92	650.67
694.05	603.86
694.19	620.24
694.32	437.68
694.45	444.70
694.59	397.89
694.72	234.05
694.86	252.78
694.99	276.18
695.13	217.67
695.26	229.37
695.39	248.10
695.53	252.78
695.66	229.37
695.80	292.57
695.93	152.13
696.07	138.09
696.20	266.82
696.33	264.48
696.47	313.63
696.60	259.80
696.73	196.60
696.87	266.82
697.00	278.52
697.14	203.63
697.27	131.07
697.40	241.08
697.54	191.92
697.67	126.39
697.80	208.31
697.94	163.84
698.07	163.84
698.21	177.88
698.34	168.52
698.47	119.37
698.61	154.48
698.74	201.29
698.87	180.22
699.01	161.50
699.14	212.99
699.27	231.71
699.40	287.89
699.54	215.33
699.67	170.86
699.80	128.73
699.94	201.29
700.07	198.95
700.20	159.16
700.34	182.56
700.47	189.58
700.60	147.45
700.73	205.97
700.87	236.39
701.00	149.79
701.13	252.78
701.26	159.16
701.40	187.24
701.53	93.62
701.66	154.48
701.79	269.16
701.93	208.31
702.06	255.12
702.19	149.79
702.32	259.80
702.46	177.88
702.59	135.75
702.72	227.03
702.85	166.18
702.99	177.88
703.12	224.69
703.25	210.65
703.38	262.14
703.51	231.71
703.65	159.16
703.78	243.42
703.91	332.36
704.04	304.27
704.17	250.44
704.31	266.82
704.44	313.63
704.57	311.29
704.70	287.89
704.83	273.84
704.96	297.25
705.10	283.20
705.23	308.95
>>>>>End Processed Spectral Data<<<<<
