SpectraSuite Data File
++++++++++++++++++++++++++++++++++++
Date: Fri Oct 04 11:41:58 GMT-05:00 2013
User: price-jones
Dark Spectrum Present: No
Reference Spectrum Present: No
Number of Sampled Component Spectra: 1
Spectrometers: USB2+H05261
Integration Time (usec): 100000 (USB2+H05261)
Spectra Averaged: 1 (USB2+H05261)
Boxcar Smoothing: 0 (USB2+H05261)
Correct for Electrical Dark: No (USB2+H05261)
Strobe/Lamp Enabled: No (USB2+H05261)
Correct for Detector Non-linearity: No (USB2+H05261)
Correct for Stray Light: No (USB2+H05261)
Number of Pixels in Processed Spectrum: 2048
>>>>>Begin Processed Spectral Data<<<<<
365.73	14.04
365.92	14.04
366.12	14.04
366.32	0.00
366.52	0.00
366.72	0.00
366.91	0.00
367.11	0.00
367.31	0.00
367.51	0.00
367.70	0.00
367.90	0.00
368.10	0.00
368.30	0.00
368.49	0.00
368.69	0.00
368.89	0.00
369.09	4.68
369.28	0.00
369.48	0.00
369.68	0.00
369.87	0.00
370.07	0.00
370.27	4.68
370.47	0.00
370.66	4.68
370.86	44.47
371.06	81.92
371.25	114.69
371.45	37.45
371.65	107.66
371.84	46.81
372.04	145.11
372.24	67.88
372.44	58.51
372.63	84.26
372.83	93.62
373.03	56.17
373.22	135.75
373.42	93.62
373.62	142.77
373.81	126.39
374.01	170.86
374.21	184.90
374.40	170.86
374.60	187.24
374.79	161.50
374.99	152.13
375.19	93.62
375.38	102.98
375.58	72.56
375.78	168.52
375.97	98.30
376.17	107.66
376.37	138.09
376.56	154.48
376.76	88.94
376.95	107.66
377.15	180.22
377.35	180.22
377.54	154.48
377.74	145.11
377.93	102.98
378.13	124.05
378.33	121.71
378.52	107.66
378.72	93.62
378.91	133.41
379.11	133.41
379.31	114.69
379.50	79.58
379.70	112.35
379.89	173.20
380.09	159.16
380.28	180.22
380.48	95.96
380.68	131.07
380.87	121.71
381.07	110.01
381.26	133.41
381.46	126.39
381.65	77.24
381.85	100.64
382.04	126.39
382.24	182.56
382.43	100.64
382.63	117.03
382.83	189.58
383.02	117.03
383.22	135.75
383.41	60.85
383.61	121.71
383.80	30.43
384.00	63.19
384.19	32.77
384.39	131.07
384.58	168.52
384.78	133.41
384.97	117.03
385.17	117.03
385.36	152.13
385.56	131.07
385.75	121.71
385.95	168.52
386.14	149.79
386.34	93.62
386.53	91.28
386.72	145.11
386.92	114.69
387.11	93.62
387.31	166.18
387.50	147.45
387.70	84.26
387.89	88.94
388.09	161.50
388.28	60.85
388.48	105.32
388.67	124.05
388.86	117.03
389.06	114.69
389.25	117.03
389.45	170.86
389.64	110.01
389.84	161.50
390.03	131.07
390.22	163.84
390.42	67.88
390.61	56.17
390.81	126.39
391.00	156.82
391.19	133.41
391.39	107.66
391.58	142.77
391.78	126.39
391.97	170.86
392.16	95.96
392.36	135.75
392.55	177.88
392.75	102.98
392.94	110.01
393.13	149.79
393.33	184.90
393.52	159.16
393.71	152.13
393.91	184.90
394.10	217.67
394.29	46.81
394.49	140.43
394.68	138.09
394.88	126.39
395.07	145.11
395.26	138.09
395.46	74.90
395.65	159.16
395.84	114.69
396.04	173.20
396.23	72.56
396.42	114.69
396.62	112.35
396.81	161.50
397.00	140.43
397.19	189.58
397.39	112.35
397.58	182.56
397.77	88.94
397.97	212.99
398.16	154.48
398.35	112.35
398.55	168.52
398.74	138.09
398.93	227.03
399.12	124.05
399.32	205.97
399.51	112.35
399.70	126.39
399.90	159.16
400.09	142.77
400.28	154.48
400.47	131.07
400.67	173.20
400.86	166.18
401.05	166.18
401.24	112.35
401.44	154.48
401.63	205.97
401.82	187.24
402.01	198.95
402.21	145.11
402.40	252.78
402.59	201.29
402.78	184.90
402.97	212.99
403.17	241.08
403.36	243.42
403.55	271.50
403.74	678.76
403.93	2050.31
404.13	4947.89
404.32	6956.07
404.51	6242.21
404.70	3557.61
404.89	1383.26
405.09	470.45
405.28	339.38
405.47	255.12
405.66	184.90
405.85	234.05
406.05	173.20
406.24	236.39
406.43	234.05
406.62	241.08
406.81	243.42
407.00	402.57
407.20	716.20
407.39	947.92
407.58	924.51
407.77	671.73
407.96	376.83
408.15	236.39
408.34	189.58
408.54	170.86
408.73	114.69
408.92	243.42
409.11	180.22
409.30	180.22
409.49	196.60
409.68	149.79
409.87	184.90
410.07	135.75
410.26	131.07
410.45	189.58
410.64	149.79
410.83	205.97
411.02	241.08
411.21	227.03
411.40	229.37
411.59	205.97
411.78	191.92
411.98	238.73
412.17	152.13
412.36	133.41
412.55	210.65
412.74	182.56
412.93	152.13
413.12	227.03
413.31	203.63
413.50	266.82
413.69	212.99
413.88	315.97
414.07	224.69
414.26	210.65
414.45	250.44
414.64	271.50
414.83	189.58
415.02	227.03
415.22	159.16
415.41	257.46
415.60	212.99
415.79	287.89
415.98	231.71
416.17	313.63
416.36	285.55
416.55	327.68
416.74	222.35
416.93	250.44
417.12	250.44
417.31	198.95
417.50	264.48
417.69	318.31
417.88	262.14
418.07	210.65
418.26	255.12
418.45	306.61
418.64	234.05
418.83	280.86
419.02	276.18
419.21	250.44
419.39	241.08
419.58	264.48
419.77	255.12
419.96	327.68
420.15	330.02
420.34	259.80
420.53	266.82
420.72	299.59
420.91	273.84
421.10	327.68
421.29	276.18
421.48	243.42
421.67	297.25
421.86	280.86
422.05	322.99
422.24	285.55
422.43	259.80
422.61	308.95
422.80	234.05
422.99	248.10
423.18	238.73
423.37	362.78
423.56	297.25
423.75	229.37
423.94	297.25
424.13	290.23
424.32	257.46
424.50	327.68
424.69	360.44
424.88	276.18
425.07	278.52
425.26	276.18
425.45	306.61
425.64	320.65
425.83	327.68
426.01	325.33
426.20	301.93
426.39	353.42
426.58	376.83
426.77	308.95
426.96	372.15
427.15	315.97
427.33	355.76
427.52	320.65
427.71	390.87
427.90	334.70
428.09	290.23
428.28	280.86
428.46	444.70
428.65	407.25
428.84	379.17
429.03	390.87
429.22	379.17
429.40	346.40
429.59	416.62
429.78	374.49
429.97	318.31
430.16	320.65
430.34	299.59
430.53	423.64
430.72	306.61
430.91	381.51
431.10	442.36
431.28	381.51
431.47	433.00
431.66	414.27
431.85	330.02
432.03	327.68
432.22	447.04
432.41	409.59
432.60	496.19
432.79	315.97
432.97	390.87
433.16	475.13
433.35	456.40
433.54	599.18
433.72	641.31
433.91	667.05
434.10	662.37
434.28	863.66
434.47	889.40
434.66	1034.52
434.85	1306.02
435.03	3309.52
435.22	12585.06
435.41	29252.02
435.59	31915.54
435.78	20856.51
435.97	10490.28
436.16	3918.06
436.34	1380.92
436.53	952.60
436.72	622.58
436.90	573.43
437.09	566.41
437.28	535.98
437.46	517.26
437.65	491.51
437.84	463.43
438.02	447.04
438.21	507.90
438.40	535.98
438.58	482.15
438.77	468.11
438.96	379.17
439.14	482.15
439.33	437.68
439.52	437.68
439.70	428.32
439.89	496.19
440.08	500.87
440.26	454.06
440.45	458.74
440.63	470.45
440.82	409.59
441.01	465.77
441.19	449.38
441.38	435.34
441.57	414.27
441.75	505.56
441.94	507.90
442.12	489.17
442.31	463.43
442.50	416.62
442.68	437.68
442.87	472.79
443.05	447.04
443.24	472.79
443.43	498.53
443.61	470.45
443.80	409.59
443.98	470.45
444.17	454.06
444.35	470.45
444.54	400.23
444.73	447.04
444.91	449.38
445.10	468.11
445.28	447.04
445.47	470.45
445.65	404.91
445.84	498.53
446.02	477.47
446.21	435.34
446.39	472.79
446.58	442.36
446.77	404.91
446.95	484.49
447.14	437.68
447.32	449.38
447.51	475.13
447.69	433.00
447.88	496.19
448.06	411.93
448.25	475.13
448.43	430.66
448.62	411.93
448.80	463.43
448.99	423.64
449.17	486.83
449.36	404.91
449.54	486.83
449.73	423.64
449.91	449.38
450.10	444.70
450.28	535.98
450.46	507.90
450.65	433.00
450.83	442.36
451.02	425.98
451.20	465.77
451.39	559.39
451.57	428.32
451.76	407.25
451.94	386.19
452.13	358.10
452.31	416.62
452.49	390.87
452.68	433.00
452.86	430.66
453.05	519.60
453.23	496.19
453.42	451.72
453.60	409.59
453.78	341.72
453.97	365.12
454.15	421.30
454.34	458.74
454.52	430.66
454.70	451.72
454.89	463.43
455.07	414.27
455.26	458.74
455.44	475.13
455.62	456.40
455.81	386.19
455.99	477.47
456.17	428.32
456.36	470.45
456.54	440.02
456.73	395.55
456.91	414.27
457.09	414.27
457.28	531.30
457.46	514.92
457.64	482.15
457.83	458.74
458.01	337.04
458.19	475.13
458.38	421.30
458.56	402.57
458.74	428.32
458.93	435.34
459.11	409.59
459.29	470.45
459.48	477.47
459.66	514.92
459.84	493.85
460.03	517.26
460.21	444.70
460.39	550.03
460.57	393.21
460.76	390.87
460.94	397.89
461.12	475.13
461.31	444.70
461.49	449.38
461.67	479.81
461.85	440.02
462.04	456.40
462.22	880.04
462.40	514.92
462.59	451.72
462.77	451.72
462.95	390.87
463.13	402.57
463.32	440.02
463.50	400.23
463.68	381.51
463.86	435.34
464.05	400.23
464.23	433.00
464.41	447.04
464.59	519.60
464.78	451.72
464.96	444.70
465.14	461.09
465.32	388.53
465.50	468.11
465.69	400.23
465.87	367.46
466.05	411.93
466.23	395.55
466.41	442.36
466.60	435.34
466.78	489.17
466.96	477.47
467.14	468.11
467.32	451.72
467.51	533.64
467.69	428.32
467.87	475.13
468.05	407.25
468.23	456.40
468.41	433.00
468.60	435.34
468.78	365.12
468.96	358.10
469.14	365.12
469.32	369.80
469.50	395.55
469.69	451.72
469.87	400.23
470.05	365.12
470.23	304.27
470.41	381.51
470.59	395.55
470.77	341.72
470.95	337.04
471.14	428.32
471.32	442.36
471.50	498.53
471.68	493.85
471.86	330.02
472.04	461.09
472.22	416.62
472.40	435.34
472.58	358.10
472.77	360.44
472.95	468.11
473.13	528.96
473.31	444.70
473.49	428.32
473.67	416.62
473.85	477.47
474.03	507.90
474.21	442.36
474.39	451.72
474.57	456.40
474.75	454.06
474.93	332.36
475.12	407.25
475.30	416.62
475.48	440.02
475.66	435.34
475.84	468.11
476.02	470.45
476.20	425.98
476.38	435.34
476.56	543.00
476.74	461.09
476.92	491.51
477.10	400.23
477.28	395.55
477.46	421.30
477.64	418.96
477.82	449.38
478.00	491.51
478.18	482.15
478.36	477.47
478.54	526.62
478.72	510.24
478.90	500.87
479.08	514.92
479.26	479.81
479.44	585.13
479.62	573.43
479.80	578.11
479.98	620.24
480.16	610.88
480.34	629.60
480.52	629.60
480.70	718.54
480.88	617.90
481.06	755.99
481.24	805.14
481.41	784.08
481.59	833.23
481.77	856.64
481.95	912.81
482.13	1006.43
482.31	1071.97
482.49	1116.44
482.67	1203.04
482.85	1263.89
483.03	1327.08
483.21	1394.96
483.39	1441.77
483.57	1563.48
483.74	1706.25
483.92	1703.91
484.10	1727.32
484.28	1909.88
484.46	2010.52
484.64	2085.42
484.82	2197.76
485.00	2326.49
485.18	2525.44
485.35	2445.86
485.53	2644.81
485.71	2834.39
485.89	2967.80
486.07	2935.03
486.25	3054.40
486.43	3141.00
486.61	3049.72
486.78	3126.96
486.96	2995.89
487.14	3066.10
487.32	3026.31
487.50	3007.59
487.68	3103.55
487.85	2848.43
488.03	2864.82
488.21	2956.10
488.39	2789.92
488.57	2733.75
488.75	2710.34
488.92	2974.82
489.10	2546.50
489.28	2520.76
489.46	2537.14
489.64	2424.80
489.81	2443.52
489.99	2385.01
490.17	2354.58
490.35	2420.11
490.53	2345.22
490.70	2363.94
490.88	2289.04
491.06	2387.35
491.24	2560.55
491.41	2722.04
491.59	2487.99
491.77	2370.96
491.95	2307.77
492.13	2157.97
492.30	2143.93
492.48	2024.56
492.66	2047.97
492.84	2054.99
493.01	1977.75
493.19	1989.46
493.37	2071.37
493.54	1928.60
493.72	1870.09
493.90	1907.54
494.08	1785.83
494.25	1865.41
494.43	1856.04
494.61	1797.53
494.79	1715.61
494.96	1640.72
495.14	1724.97
495.32	1727.32
495.49	1600.93
495.67	1619.65
495.85	1631.35
496.02	1596.25
496.20	1645.40
496.38	1593.90
496.55	1528.37
496.73	1589.22
496.91	1563.48
497.09	1416.02
497.26	1577.52
497.44	1371.55
497.62	1336.45
497.79	1357.51
497.97	1348.15
498.14	1315.38
498.32	1327.08
498.50	1188.99
498.67	1076.65
498.85	1198.35
499.03	1067.28
499.20	1142.18
499.38	1067.28
499.56	1071.97
499.73	1132.82
499.91	1055.58
500.08	1043.88
500.26	1013.45
500.44	961.96
500.61	959.62
500.79	947.92
500.97	880.04
501.14	926.85
501.32	868.34
501.49	875.36
501.67	713.86
501.84	847.27
502.02	676.41
502.20	809.83
502.37	734.93
502.55	741.95
502.72	627.26
502.90	737.27
503.07	695.14
503.25	657.69
503.43	664.71
503.60	667.05
503.78	643.65
503.95	610.88
504.13	585.13
504.30	617.90
504.48	629.60
504.65	554.71
504.83	507.90
505.01	535.98
505.18	557.05
505.36	561.73
505.53	463.43
505.71	550.03
505.88	514.92
506.06	528.96
506.23	510.24
506.41	482.15
506.58	535.98
506.76	477.47
506.93	475.13
507.11	521.94
507.28	449.38
507.46	442.36
507.63	500.87
507.81	437.68
507.98	484.49
508.16	418.96
508.33	517.26
508.50	465.77
508.68	482.15
508.85	535.98
509.03	482.15
509.20	533.64
509.38	540.66
509.55	479.81
509.73	435.34
509.90	475.13
510.08	475.13
510.25	418.96
510.42	411.93
510.60	435.34
510.77	528.96
510.95	451.72
511.12	411.93
511.30	421.30
511.47	425.98
511.64	524.28
511.82	386.19
511.99	397.89
512.17	418.96
512.34	475.13
512.51	458.74
512.69	465.77
512.86	484.49
513.04	334.70
513.21	423.64
513.38	379.17
513.56	369.80
513.73	383.85
513.90	400.23
514.08	409.59
514.25	414.27
514.43	404.91
514.60	418.96
514.77	365.12
514.95	386.19
515.12	381.51
515.29	360.44
515.47	332.36
515.64	388.53
515.81	369.80
515.99	418.96
516.16	437.68
516.33	435.34
516.51	397.89
516.68	348.74
516.85	407.25
517.03	346.40
517.20	344.06
517.37	330.02
517.54	400.23
517.72	393.21
517.89	367.46
518.06	273.84
518.24	393.21
518.41	451.72
518.58	388.53
518.75	322.99
518.93	365.12
519.10	355.76
519.27	367.46
519.45	311.29
519.62	327.68
519.79	386.19
519.96	308.95
520.14	339.38
520.31	365.12
520.48	376.83
520.65	388.53
520.83	348.74
521.00	416.62
521.17	344.06
521.34	299.59
521.52	337.04
521.69	348.74
521.86	358.10
522.03	372.15
522.20	468.11
522.38	365.12
522.55	327.68
522.72	365.12
522.89	351.08
523.07	376.83
523.24	372.15
523.41	409.59
523.58	306.61
523.75	421.30
523.92	360.44
524.10	379.17
524.27	416.62
524.44	409.59
524.61	390.87
524.78	341.72
524.96	362.78
525.13	400.23
525.30	430.66
525.47	449.38
525.64	379.17
525.81	418.96
525.98	379.17
526.16	435.34
526.33	365.12
526.50	355.76
526.67	346.40
526.84	507.90
527.01	414.27
527.18	433.00
527.36	500.87
527.53	519.60
527.70	543.00
527.87	428.32
528.04	416.62
528.21	470.45
528.38	472.79
528.55	521.94
528.72	463.43
528.89	456.40
529.07	514.92
529.24	491.51
529.41	519.60
529.58	521.94
529.75	484.49
529.92	507.90
530.09	461.09
530.26	535.98
530.43	521.94
530.60	550.03
530.77	524.28
530.94	596.84
531.11	624.92
531.28	564.07
531.46	575.77
531.63	573.43
531.80	615.56
531.97	732.59
532.14	760.67
532.31	882.38
532.48	1093.03
532.65	1207.72
532.82	1322.40
532.99	1610.29
533.16	1818.60
533.33	1895.83
533.50	1764.76
533.67	1605.61
533.84	1303.68
534.01	1200.69
534.18	1167.93
534.35	1128.14
534.52	1151.54
534.69	1149.20
534.86	1238.14
535.03	1245.16
535.20	1331.76
535.37	1270.91
535.54	1364.53
535.71	1441.77
535.88	1544.75
536.05	1605.61
536.22	1727.32
536.38	1891.15
536.55	2071.37
536.72	2319.47
536.89	2516.08
537.06	2916.31
537.23	3159.72
537.40	3396.12
537.57	3637.19
537.74	3815.07
537.91	4191.90
538.08	4142.75
538.25	4224.67
538.42	4311.27
538.59	4290.20
538.75	4468.08
538.92	4809.80
539.09	5186.63
539.26	5626.65
539.43	6445.84
539.60	7510.78
539.77	8301.88
539.94	9268.52
540.11	10289.00
540.28	11185.42
540.44	12170.79
540.61	13167.85
540.78	15157.31
540.95	18719.60
541.12	22541.70
541.29	25376.09
541.46	26576.78
541.62	26373.16
541.79	25083.52
541.96	23087.04
542.13	21427.60
542.30	20245.63
542.47	18785.14
542.63	17991.70
542.80	17415.93
542.97	16992.29
543.14	16980.59
543.31	17055.48
543.48	17205.28
543.64	17582.10
543.81	17554.02
543.98	17898.08
544.15	17511.89
544.32	17738.92
544.48	17987.02
544.65	17743.60
544.82	17331.67
544.99	17380.82
545.16	18087.66
545.32	18831.95
545.49	30490.16
545.66	54185.74
545.83	60757.97
546.00	56425.64
546.16	41743.45
546.33	30525.27
546.50	23330.46
546.67	18057.23
546.83	16145.02
547.00	15452.22
547.17	14551.11
547.34	14005.77
547.50	13444.04
547.67	12901.03
547.84	12386.12
548.00	11889.92
548.17	11681.61
548.34	11330.53
548.51	10696.25
548.67	10139.20
548.84	9390.23
549.01	9139.79
549.18	8695.09
549.34	8386.14
549.51	8177.83
549.68	7683.98
549.84	7602.06
550.01	7063.74
550.18	6944.37
550.34	6527.75
550.51	6384.98
550.68	5975.39
550.84	5652.39
551.01	5518.98
551.18	5067.26
551.34	4758.31
551.51	4575.75
551.68	4498.51
551.84	4198.92
552.01	4128.70
552.18	3899.33
552.34	3742.52
552.51	3709.75
552.68	3499.10
552.84	3295.47
553.01	3363.35
553.18	3103.55
553.34	3002.91
553.51	2972.48
553.67	2855.45
553.84	2848.43
554.01	2654.17
554.17	2427.14
554.34	2347.56
554.51	2080.74
554.67	2106.48
554.84	1912.22
555.00	1844.34
555.17	1675.82
555.33	1650.08
555.50	1696.89
555.67	1643.06
555.83	1444.11
556.00	1425.39
556.16	1584.54
556.33	1476.88
556.50	1249.85
556.66	1306.02
556.83	1259.21
556.99	1217.08
557.16	1123.46
557.32	1111.75
557.49	1020.47
557.65	1046.22
557.82	1006.43
557.98	938.55
558.15	990.05
558.32	966.64
558.48	898.77
558.65	933.87
558.81	924.51
558.98	851.96
559.14	828.55
559.31	898.77
559.47	805.14
559.64	840.25
559.80	828.55
559.97	748.97
560.13	847.27
560.30	816.85
560.46	784.08
560.63	807.48
560.79	774.72
560.96	812.17
561.12	711.52
561.29	723.23
561.45	802.80
561.61	734.93
561.78	837.91
561.94	758.33
562.11	823.87
562.27	861.32
562.44	798.12
562.60	770.04
562.77	676.41
562.93	725.57
563.10	739.61
563.26	678.76
563.42	622.58
563.59	741.95
563.75	702.16
563.92	692.80
564.08	713.86
564.24	695.14
564.41	664.71
564.57	641.31
564.74	648.33
564.90	660.03
565.07	697.48
565.23	596.84
565.39	641.31
565.56	603.86
565.72	645.99
565.88	589.82
566.05	620.24
566.21	683.44
566.38	660.03
566.54	653.01
566.70	608.54
566.87	660.03
567.03	653.01
567.19	617.90
567.36	610.88
567.52	615.56
567.68	667.05
567.85	641.31
568.01	620.24
568.17	636.63
568.34	681.10
568.50	636.63
568.66	608.54
568.83	716.20
568.99	578.11
569.15	653.01
569.32	547.69
569.48	528.96
569.64	498.53
569.81	470.45
569.97	512.58
570.13	482.15
570.30	493.85
570.46	519.60
570.62	437.68
570.78	484.49
570.95	416.62
571.11	475.13
571.27	526.62
571.43	475.13
571.60	454.06
571.76	475.13
571.92	524.28
572.09	465.77
572.25	486.83
572.41	482.15
572.57	479.81
572.74	498.53
572.90	547.69
573.06	500.87
573.22	454.06
573.38	535.98
573.55	538.32
573.71	447.04
573.87	603.86
574.03	496.19
574.20	592.16
574.36	624.92
574.52	589.82
574.68	580.45
574.84	571.09
575.01	706.84
575.17	702.16
575.33	671.73
575.49	784.08
575.65	791.10
575.82	732.59
575.98	898.77
576.14	964.30
576.30	1947.33
576.46	6134.54
576.62	11269.68
576.79	12828.48
576.95	9149.15
577.11	6031.56
577.27	4341.69
577.43	2780.56
577.59	1930.94
577.75	1458.15
577.92	1359.85
578.08	1465.18
578.24	1329.42
578.40	2190.74
578.56	5991.77
578.72	10513.69
578.88	11604.38
579.04	8847.22
579.21	5811.55
579.37	4475.10
579.53	3421.86
579.69	3253.34
579.85	3976.57
580.01	4725.54
580.17	4493.83
580.33	3887.63
580.49	3421.86
580.65	2944.39
580.82	2710.34
580.98	2647.15
581.14	2717.36
581.30	2843.75
581.46	2972.48
581.62	3274.41
581.78	3391.44
581.94	3761.24
582.10	3777.62
582.26	3950.82
582.42	4196.58
582.58	4428.29
582.74	4521.92
582.90	4496.17
583.06	4706.82
583.22	4540.64
583.38	4400.21
583.54	4657.67
583.70	4451.70
583.86	4400.21
584.02	4327.65
584.18	4243.39
584.34	4159.13
584.50	4184.88
584.66	4058.49
584.82	3997.64
584.98	3943.80
585.14	3896.99
585.30	3988.27
585.46	3730.81
585.62	3784.65
585.78	3796.35
585.94	3791.67
586.10	3810.39
586.26	4072.53
586.42	4617.88
586.58	5430.04
586.74	6647.12
586.90	8049.10
587.06	9048.51
587.22	8751.26
587.38	8039.74
587.54	6892.88
587.70	5767.08
587.86	4702.14
588.02	4161.47
588.18	3637.19
588.34	3328.24
588.49	3077.80
588.65	2771.19
588.81	2799.28
588.97	2658.85
589.13	2590.97
589.29	2569.91
589.45	2663.53
589.61	2457.56
589.77	2506.71
589.93	2560.55
590.08	2736.09
590.24	2731.41
590.40	2717.36
590.56	2750.13
590.72	3098.87
590.88	2855.45
591.04	3098.87
591.20	3283.77
591.35	3293.13
591.51	3328.24
591.67	3515.48
591.83	3908.69
591.99	4219.99
592.15	4571.07
592.31	4858.95
592.46	5373.87
592.62	5729.63
592.78	5994.11
592.94	6361.58
593.10	6242.21
593.26	5844.32
593.41	5500.26
593.57	4980.66
593.73	4322.97
593.89	3978.91
594.05	3428.88
594.20	2981.84
594.36	2930.35
594.52	2834.39
594.68	2567.57
594.84	2422.45
594.99	2366.28
595.15	2216.49
595.31	2239.89
595.47	2272.66
595.62	2260.96
595.78	2143.93
595.94	2146.27
596.10	2286.70
596.25	2319.47
596.41	2242.23
596.57	2328.83
596.73	2317.13
596.88	2146.27
597.04	2251.60
597.20	2232.87
597.36	2441.18
597.51	2321.81
597.67	2359.26
597.83	2436.50
597.99	2899.92
598.14	2904.60
598.30	2923.33
598.46	3192.49
598.61	3377.39
598.77	3442.93
598.93	3564.64
599.09	3712.09
599.24	3812.73
599.40	3852.52
599.56	3637.19
599.71	3508.46
599.87	3290.79
600.03	3173.77
600.18	2916.31
600.34	2658.85
600.50	2560.55
600.65	2338.20
600.81	2300.75
600.97	2253.94
601.12	2111.16
601.28	2078.40
601.44	1860.73
601.59	1781.15
601.75	1799.87
601.91	1736.68
602.06	1586.88
602.22	1722.63
602.37	1589.22
602.53	1542.41
602.69	1474.54
602.84	1479.22
603.00	1547.09
603.16	1521.35
603.31	1582.20
603.47	1610.29
603.62	1605.61
603.78	1776.47
603.94	1652.42
604.09	1680.50
604.25	1701.57
604.40	1767.10
604.56	1839.66
604.71	1813.92
604.87	1689.87
605.03	1830.30
605.18	1846.68
605.34	1968.39
605.49	1970.73
605.65	2033.93
605.80	2143.93
605.96	2047.97
606.12	2225.85
606.27	2338.20
606.43	2406.07
606.58	2464.58
606.74	2576.93
606.89	2747.79
607.05	2787.58
607.20	2892.90
607.36	3183.13
607.51	3258.03
607.67	3543.57
607.82	3735.50
607.98	3918.06
608.13	4367.44
608.29	4657.67
608.44	5074.28
608.60	5507.28
608.75	6092.41
608.91	6452.86
609.06	7342.26
609.22	7857.18
609.37	8812.12
609.53	9668.75
609.68	11129.25
609.84	12589.74
609.99	14295.99
610.15	17404.22
610.30	21535.27
610.46	27597.26
610.61	35637.00
610.76	44795.51
610.92	52299.27
611.07	55913.06
611.23	56622.24
611.38	55126.64
611.54	51330.29
611.69	45497.67
611.84	38031.36
612.00	31852.35
612.15	26684.45
612.31	23721.33
612.46	21235.68
612.62	19609.01
612.77	18122.77
612.92	17348.05
613.08	16020.97
613.23	15571.58
613.39	14974.75
613.54	14160.24
613.69	14162.58
613.85	14038.53
614.00	13954.27
614.15	13884.06
614.31	13699.16
614.46	13198.28
614.62	12676.34
614.77	12063.12
614.92	11538.84
615.08	10789.87
615.23	9928.55
615.38	8975.95
615.54	8315.92
615.69	7609.08
615.84	7080.12
616.00	6401.37
616.15	6015.18
616.30	5577.50
616.46	5200.67
616.61	4812.14
616.76	4683.41
616.92	4498.51
617.07	4161.47
617.22	4088.92
617.37	3808.05
617.53	3686.34
617.68	3473.36
617.83	3314.20
617.99	3346.97
618.14	3328.24
618.29	3150.36
618.45	3030.99
618.60	3075.46
618.75	2953.76
618.90	2869.50
619.06	2977.16
619.21	2789.92
619.36	2850.77
619.51	2895.24
619.67	2920.99
619.82	2813.32
619.97	2949.08
620.12	2956.10
620.28	2986.52
620.43	3150.36
620.58	3185.47
620.73	3260.37
620.89	3112.91
621.04	3138.66
621.19	3150.36
621.34	3073.12
621.49	3012.27
621.65	2965.46
621.80	2939.71
621.95	2939.71
622.10	2925.67
622.25	2965.46
622.41	3096.53
622.56	3201.85
622.71	3138.66
622.86	3108.23
623.01	3309.52
623.16	3353.99
623.32	3344.63
623.47	3386.76
623.62	3431.23
623.77	3358.67
623.92	3382.07
624.07	3262.71
624.23	3379.73
624.38	3323.56
624.53	3384.41
624.68	3494.42
624.83	3578.68
624.98	3412.50
625.13	3506.12
625.29	3426.54
625.44	3410.16
625.59	3550.59
625.74	3393.78
625.89	3473.36
626.04	3396.12
626.19	3520.17
626.34	3318.88
626.49	3389.10
626.65	3304.84
626.80	3382.07
626.95	3382.07
627.10	3269.73
627.25	3227.60
627.40	3126.96
627.55	3204.19
627.70	3138.66
627.85	3068.44
628.00	3119.93
628.15	3077.80
628.30	3117.59
628.45	2963.12
628.60	3040.36
628.76	3066.10
628.91	3084.83
629.06	3108.23
629.21	3199.51
629.36	3293.13
629.51	3396.12
629.66	3536.55
629.81	3737.84
629.96	4053.81
630.11	4456.38
630.26	4896.40
630.41	5511.96
630.56	6019.86
630.71	6492.65
630.86	6654.14
631.01	6427.11
631.16	6026.88
631.31	5317.70
631.46	4582.77
631.61	3887.63
631.76	3241.64
631.91	2935.03
632.06	2373.30
632.21	2057.33
632.36	1996.48
632.51	1680.50
632.66	1521.35
632.81	1479.22
632.96	1376.24
633.10	1268.57
633.25	1301.34
633.40	1088.35
633.55	1095.37
633.70	1060.26
633.85	1064.94
634.00	940.90
634.15	990.05
634.30	961.96
634.45	882.38
634.60	891.74
634.75	870.68
634.90	938.55
635.05	891.74
635.19	826.21
635.34	837.91
635.49	866.00
635.64	812.17
635.79	774.72
635.94	751.31
636.09	947.92
636.24	748.97
636.39	772.38
636.53	786.42
636.68	748.97
636.83	826.21
636.98	807.48
637.13	683.44
637.28	720.88
637.43	692.80
637.57	681.10
637.72	688.12
637.87	636.63
638.02	650.67
638.17	615.56
638.32	697.48
638.46	683.44
638.61	716.20
638.76	638.97
638.91	697.48
639.06	641.31
639.20	671.73
639.35	627.26
639.50	582.79
639.65	653.01
639.80	580.45
639.94	617.90
640.09	613.22
640.24	606.20
640.39	603.86
640.54	676.41
640.68	610.88
640.83	617.90
640.98	620.24
641.13	589.82
641.27	629.60
641.42	620.24
641.57	557.05
641.72	554.71
641.86	599.18
642.01	676.41
642.16	617.90
642.31	627.26
642.45	629.60
642.60	580.45
642.75	601.52
642.90	641.31
643.04	571.09
643.19	580.45
643.34	704.50
643.48	638.97
643.63	531.30
643.78	594.50
643.93	629.60
644.07	629.60
644.22	620.24
644.37	564.07
644.51	622.58
644.66	559.39
644.81	599.18
644.95	589.82
645.10	554.71
645.25	657.69
645.39	690.46
645.54	638.97
645.69	688.12
645.83	580.45
645.98	662.37
646.13	477.47
646.27	587.47
646.42	510.24
646.57	559.39
646.71	545.34
646.86	545.34
647.00	664.71
647.15	526.62
647.30	561.73
647.44	545.34
647.59	557.05
647.74	547.69
647.88	580.45
648.03	578.11
648.17	624.92
648.32	543.00
648.47	585.13
648.61	603.86
648.76	603.86
648.90	667.05
649.05	629.60
649.20	723.23
649.34	755.99
649.49	777.06
649.63	1020.47
649.78	1160.91
649.92	1207.72
650.07	1600.93
650.21	1734.34
650.36	1884.13
650.51	1879.45
650.65	1785.83
650.80	1638.38
650.94	1371.55
651.09	1343.47
651.23	1233.46
651.38	1011.11
651.52	952.60
651.67	901.11
651.81	870.68
651.96	767.70
652.10	688.12
652.25	755.99
652.39	746.63
652.54	842.59
652.68	851.96
652.83	880.04
652.97	992.39
653.12	945.58
653.26	929.19
653.41	870.68
653.55	704.50
653.70	720.88
653.84	706.84
653.99	596.84
654.13	592.16
654.27	608.54
654.42	613.22
654.56	557.05
654.71	617.90
654.85	631.94
655.00	519.60
655.14	561.73
655.29	493.85
655.43	566.41
655.57	629.60
655.72	510.24
655.86	475.13
656.01	594.50
656.15	503.22
656.30	592.16
656.44	545.34
656.58	491.51
656.73	543.00
656.87	543.00
657.01	571.09
657.16	564.07
657.30	622.58
657.45	685.78
657.59	660.03
657.73	657.69
657.88	692.80
658.02	695.14
658.16	634.29
658.31	645.99
658.45	575.77
658.60	535.98
658.74	470.45
658.88	507.90
659.03	423.64
659.17	425.98
659.31	482.15
659.46	449.38
659.60	482.15
659.74	465.77
659.89	374.49
660.03	411.93
660.17	475.13
660.32	360.44
660.46	557.05
660.60	449.38
660.74	470.45
660.89	498.53
661.03	477.47
661.17	444.70
661.32	568.75
661.46	540.66
661.60	718.54
661.74	758.33
661.89	1034.52
662.03	1095.37
662.17	1118.78
662.31	1078.99
662.46	1144.52
662.60	1111.75
662.74	973.66
662.88	877.70
663.03	739.61
663.17	737.27
663.31	704.50
663.45	599.18
663.60	540.66
663.74	500.87
663.88	540.66
664.02	526.62
664.17	428.32
664.31	449.38
664.45	418.96
664.59	395.55
664.73	510.24
664.88	407.25
665.02	365.12
665.16	358.10
665.30	456.40
665.44	395.55
665.59	402.57
665.73	456.40
665.87	360.44
666.01	397.89
666.15	404.91
666.29	318.31
666.44	428.32
666.58	468.11
666.72	411.93
666.86	489.17
667.00	433.00
667.14	386.19
667.28	395.55
667.43	442.36
667.57	433.00
667.71	440.02
667.85	470.45
667.99	383.85
668.13	442.36
668.27	407.25
668.41	528.96
668.56	306.61
668.70	362.78
668.84	409.59
668.98	395.55
669.12	313.63
669.26	367.46
669.40	407.25
669.54	421.30
669.68	374.49
669.82	341.72
669.96	339.38
670.10	362.78
670.25	320.65
670.39	313.63
670.53	353.42
670.67	386.19
670.81	346.40
670.95	337.04
671.09	433.00
671.23	428.32
671.37	425.98
671.51	297.25
671.65	383.85
671.79	332.36
671.93	374.49
672.07	482.15
672.21	409.59
672.35	287.89
672.49	313.63
672.63	332.36
672.77	351.08
672.91	308.95
673.05	376.83
673.19	301.93
673.33	299.59
673.47	411.93
673.61	421.30
673.75	297.25
673.89	304.27
674.03	297.25
674.17	348.74
674.31	304.27
674.45	330.02
674.59	234.05
674.73	322.99
674.87	332.36
675.01	341.72
675.15	360.44
675.29	346.40
675.43	423.64
675.56	320.65
675.70	341.72
675.84	308.95
675.98	280.86
676.12	290.23
676.26	320.65
676.40	337.04
676.54	278.52
676.68	255.12
676.82	278.52
676.96	245.76
677.10	330.02
677.23	271.50
677.37	299.59
677.51	346.40
677.65	416.62
677.79	362.78
677.93	358.10
678.07	234.05
678.21	283.20
678.34	259.80
678.48	287.89
678.62	294.91
678.76	252.78
678.90	348.74
679.04	369.80
679.18	315.97
679.31	325.33
679.45	252.78
679.59	306.61
679.73	273.84
679.87	367.46
680.00	353.42
680.14	304.27
680.28	280.86
680.42	250.44
680.56	358.10
680.70	344.06
680.83	337.04
680.97	334.70
681.11	285.55
681.25	358.10
681.39	365.12
681.52	299.59
681.66	358.10
681.80	287.89
681.94	337.04
682.07	318.31
682.21	365.12
682.35	299.59
682.49	255.12
682.62	334.70
682.76	294.91
682.90	276.18
683.04	313.63
683.17	325.33
683.31	308.95
683.45	297.25
683.59	376.83
683.72	299.59
683.86	264.48
684.00	203.63
684.13	271.50
684.27	241.08
684.41	297.25
684.55	257.46
684.68	285.55
684.82	280.86
684.96	264.48
685.09	266.82
685.23	276.18
685.37	285.55
685.50	311.29
685.64	346.40
685.78	313.63
685.91	374.49
686.05	409.59
686.19	346.40
686.32	360.44
686.46	440.02
686.60	351.08
686.73	475.13
686.87	461.09
687.01	498.53
687.14	491.51
687.28	507.90
687.42	566.41
687.55	650.67
687.69	702.16
687.82	617.90
687.96	648.33
688.10	720.88
688.23	617.90
688.37	540.66
688.50	444.70
688.64	468.11
688.78	477.47
688.91	423.64
689.05	290.23
689.18	407.25
689.32	351.08
689.46	273.84
689.59	322.99
689.73	360.44
689.86	278.52
690.00	330.02
690.13	262.14
690.27	271.50
690.41	299.59
690.54	327.68
690.68	299.59
690.81	273.84
690.95	255.12
691.08	231.71
691.22	255.12
691.35	248.10
691.49	138.09
691.62	168.52
691.76	212.99
691.89	182.56
692.03	205.97
692.16	175.54
692.30	257.46
692.43	208.31
692.57	215.33
692.70	184.90
692.84	255.12
692.97	259.80
693.11	341.72
693.24	337.04
693.38	390.87
693.51	437.68
693.65	613.22
693.78	645.99
693.92	510.24
694.05	486.83
694.19	353.42
694.32	339.38
694.45	337.04
694.59	252.78
694.72	224.69
694.86	259.80
694.99	266.82
695.13	194.26
695.26	215.33
695.39	177.88
695.53	313.63
695.66	222.35
695.80	198.95
695.93	119.37
696.07	154.48
696.20	154.48
696.33	238.73
696.47	229.37
696.60	264.48
696.73	238.73
696.87	208.31
697.00	196.60
697.14	154.48
697.27	229.37
697.40	241.08
697.54	138.09
697.67	168.52
697.80	194.26
697.94	112.35
698.07	163.84
698.21	105.32
698.34	128.73
698.47	222.35
698.61	166.18
698.74	105.32
698.87	198.95
699.01	105.32
699.14	175.54
699.27	220.01
699.40	250.44
699.54	222.35
699.67	184.90
699.80	170.86
699.94	250.44
700.07	184.90
700.20	119.37
700.34	163.84
700.47	126.39
700.60	149.79
700.73	124.05
700.87	201.29
701.00	224.69
701.13	102.98
701.26	182.56
701.40	159.16
701.53	152.13
701.66	170.86
701.79	215.33
701.93	170.86
702.06	189.58
702.19	156.82
702.32	257.46
702.46	147.45
702.59	234.05
702.72	166.18
702.85	231.71
702.99	212.99
703.12	180.22
703.25	250.44
703.38	241.08
703.51	227.03
703.65	187.24
703.78	229.37
703.91	264.48
704.04	273.84
704.17	238.73
704.31	264.48
704.44	276.18
704.57	142.77
704.70	273.84
704.83	304.27
704.96	315.97
705.10	330.02
705.23	308.95
>>>>>End Processed Spectral Data<<<<<
