SpectraSuite Data File
++++++++++++++++++++++++++++++++++++
Date: Fri Oct 04 11:42:21 GMT-05:00 2013
User: price-jones
Dark Spectrum Present: No
Reference Spectrum Present: No
Number of Sampled Component Spectra: 1
Spectrometers: USB2+H05261
Integration Time (usec): 100000 (USB2+H05261)
Spectra Averaged: 1 (USB2+H05261)
Boxcar Smoothing: 0 (USB2+H05261)
Correct for Electrical Dark: No (USB2+H05261)
Strobe/Lamp Enabled: No (USB2+H05261)
Correct for Detector Non-linearity: No (USB2+H05261)
Correct for Stray Light: No (USB2+H05261)
Number of Pixels in Processed Spectrum: 2048
>>>>>Begin Processed Spectral Data<<<<<
365.73	25.75
365.92	25.75
366.12	25.75
366.32	0.00
366.52	0.00
366.72	0.00
366.91	0.00
367.11	0.00
367.31	0.00
367.51	0.00
367.70	0.00
367.90	0.00
368.10	0.00
368.30	0.00
368.49	0.00
368.69	0.00
368.89	0.00
369.09	0.00
369.28	0.00
369.48	0.00
369.68	0.00
369.87	0.00
370.07	0.00
370.27	60.85
370.47	0.00
370.66	88.94
370.86	39.79
371.06	124.05
371.25	100.64
371.45	35.11
371.65	77.24
371.84	28.09
372.04	65.54
372.24	105.32
372.44	124.05
372.63	88.94
372.83	72.56
373.03	138.09
373.22	112.35
373.42	84.26
373.62	51.49
373.81	147.45
374.01	88.94
374.21	234.05
374.40	166.18
374.60	147.45
374.79	107.66
374.99	124.05
375.19	11.70
375.38	135.75
375.58	30.43
375.78	168.52
375.97	133.41
376.17	159.16
376.37	79.58
376.56	145.11
376.76	140.43
376.95	51.49
377.15	203.63
377.35	168.52
377.54	147.45
377.74	67.88
377.93	100.64
378.13	124.05
378.33	112.35
378.52	56.17
378.72	107.66
378.91	124.05
379.11	70.22
379.31	79.58
379.50	112.35
379.70	152.13
379.89	135.75
380.09	147.45
380.28	114.69
380.48	142.77
380.68	128.73
380.87	107.66
381.07	182.56
381.26	159.16
381.46	149.79
381.65	70.22
381.85	0.00
382.04	72.56
382.24	180.22
382.43	72.56
382.63	102.98
382.83	114.69
383.02	98.30
383.22	138.09
383.41	102.98
383.61	35.11
383.80	95.96
384.00	156.82
384.19	177.88
384.39	88.94
384.58	91.28
384.78	114.69
384.97	201.29
385.17	51.49
385.36	88.94
385.56	100.64
385.75	67.88
385.95	133.41
386.14	124.05
386.34	46.81
386.53	42.13
386.72	126.39
386.92	182.56
387.11	95.96
387.31	170.86
387.50	9.36
387.70	79.58
387.89	131.07
388.09	180.22
388.28	91.28
388.48	91.28
388.67	133.41
388.86	107.66
389.06	152.13
389.25	152.13
389.45	142.77
389.64	126.39
389.84	159.16
390.03	133.41
390.22	105.32
390.42	145.11
390.61	196.60
390.81	189.58
391.00	121.71
391.19	177.88
391.39	133.41
391.58	119.37
391.78	60.85
391.97	131.07
392.16	147.45
392.36	124.05
392.55	105.32
392.75	149.79
392.94	121.71
393.13	152.13
393.33	93.62
393.52	98.30
393.71	135.75
393.91	114.69
394.10	63.19
394.29	102.98
394.49	67.88
394.68	74.90
394.88	67.88
395.07	147.45
395.26	32.77
395.46	201.29
395.65	133.41
395.84	93.62
396.04	131.07
396.23	133.41
396.42	121.71
396.62	60.85
396.81	88.94
397.00	70.22
397.19	133.41
397.39	112.35
397.58	149.79
397.77	138.09
397.97	159.16
398.16	107.66
398.35	65.54
398.55	81.92
398.74	117.03
398.93	117.03
399.12	98.30
399.32	138.09
399.51	112.35
399.70	124.05
399.90	156.82
400.09	58.51
400.28	147.45
400.47	175.54
400.67	131.07
400.86	182.56
401.05	140.43
401.24	126.39
401.44	154.48
401.63	117.03
401.82	198.95
402.01	184.90
402.21	126.39
402.40	156.82
402.59	131.07
402.78	152.13
402.97	173.20
403.17	142.77
403.36	110.01
403.55	170.86
403.74	346.40
403.93	978.34
404.13	1708.59
404.32	1886.47
404.51	1577.52
404.70	880.04
404.89	435.34
405.09	243.42
405.28	173.20
405.47	119.37
405.66	166.18
405.85	159.16
406.05	156.82
406.24	110.01
406.43	138.09
406.62	170.86
406.81	264.48
407.00	229.37
407.20	351.08
407.39	365.12
407.58	334.70
407.77	280.86
407.96	184.90
408.15	156.82
408.34	102.98
408.54	156.82
408.73	88.94
408.92	203.63
409.11	175.54
409.30	154.48
409.49	135.75
409.68	121.71
409.87	100.64
410.07	74.90
410.26	168.52
410.45	91.28
410.64	70.22
410.83	180.22
411.02	163.84
411.21	154.48
411.40	196.60
411.59	189.58
411.78	140.43
411.98	140.43
412.17	147.45
412.36	124.05
412.55	152.13
412.74	124.05
412.93	138.09
413.12	93.62
413.31	77.24
413.50	149.79
413.69	95.96
413.88	191.92
414.07	163.84
414.26	70.22
414.45	126.39
414.64	154.48
414.83	180.22
415.02	182.56
415.22	194.26
415.41	196.60
415.60	212.99
415.79	74.90
415.98	177.88
416.17	135.75
416.36	98.30
416.55	124.05
416.74	124.05
416.93	182.56
417.12	133.41
417.31	163.84
417.50	161.50
417.69	152.13
417.88	187.24
418.07	194.26
418.26	173.20
418.45	145.11
418.64	243.42
418.83	161.50
419.02	135.75
419.21	217.67
419.39	156.82
419.58	198.95
419.77	149.79
419.96	163.84
420.15	234.05
420.34	191.92
420.53	227.03
420.72	229.37
420.91	201.29
421.10	142.77
421.29	152.13
421.48	177.88
421.67	177.88
421.86	131.07
422.05	196.60
422.24	191.92
422.43	222.35
422.61	173.20
422.80	191.92
422.99	149.79
423.18	168.52
423.37	210.65
423.56	154.48
423.75	212.99
423.94	147.45
424.13	156.82
424.32	149.79
424.50	173.20
424.69	175.54
424.88	126.39
425.07	220.01
425.26	154.48
425.45	250.44
425.64	81.92
425.83	170.86
426.01	196.60
426.20	212.99
426.39	234.05
426.58	191.92
426.77	180.22
426.96	201.29
427.15	180.22
427.33	124.05
427.52	182.56
427.71	191.92
427.90	175.54
428.09	198.95
428.28	170.86
428.46	170.86
428.65	203.63
428.84	266.82
429.03	191.92
429.22	135.75
429.40	201.29
429.59	170.86
429.78	220.01
429.97	170.86
430.16	210.65
430.34	241.08
430.53	168.52
430.72	208.31
430.91	210.65
431.10	161.50
431.28	166.18
431.47	241.08
431.66	229.37
431.85	135.75
432.03	248.10
432.22	320.65
432.41	215.33
432.60	159.16
432.79	238.73
432.97	297.25
433.16	250.44
433.35	276.18
433.54	315.97
433.72	299.59
433.91	290.23
434.10	374.49
434.28	369.80
434.47	358.10
434.66	456.40
434.85	559.39
435.03	1568.16
435.22	4980.66
435.41	8636.58
435.59	7939.10
435.78	5188.97
435.97	2621.40
436.16	1100.05
436.34	475.13
436.53	320.65
436.72	332.36
436.90	294.91
437.09	248.10
437.28	215.33
437.46	245.76
437.65	227.03
437.84	220.01
438.02	205.97
438.21	248.10
438.40	252.78
438.58	201.29
438.77	224.69
438.96	264.48
439.14	259.80
439.33	168.52
439.52	266.82
439.70	257.46
439.89	243.42
440.08	297.25
440.26	203.63
440.45	301.93
440.63	180.22
440.82	208.31
441.01	196.60
441.19	217.67
441.38	220.01
441.57	170.86
441.75	212.99
441.94	290.23
442.12	241.08
442.31	224.69
442.50	248.10
442.68	257.46
442.87	330.02
443.05	203.63
443.24	208.31
443.43	241.08
443.61	241.08
443.80	149.79
443.98	257.46
444.17	269.16
444.35	271.50
444.54	304.27
444.73	255.12
444.91	236.39
445.10	229.37
445.28	203.63
445.47	255.12
445.65	227.03
445.84	222.35
446.02	273.84
446.21	217.67
446.39	278.52
446.58	266.82
446.77	255.12
446.95	276.18
447.14	264.48
447.32	241.08
447.51	234.05
447.69	222.35
447.88	212.99
448.06	301.93
448.25	177.88
448.43	196.60
448.62	205.97
448.80	177.88
448.99	217.67
449.17	212.99
449.36	189.58
449.54	262.14
449.73	339.38
449.91	292.57
450.10	201.29
450.28	304.27
450.46	287.89
450.65	252.78
450.83	245.76
451.02	280.86
451.20	215.33
451.39	243.42
451.57	234.05
451.76	278.52
451.94	166.18
452.13	283.20
452.31	238.73
452.49	259.80
452.68	311.29
452.86	294.91
453.05	273.84
453.23	166.18
453.42	248.10
453.60	215.33
453.78	227.03
453.97	224.69
454.15	287.89
454.34	203.63
454.52	147.45
454.70	217.67
454.89	201.29
455.07	163.84
455.26	322.99
455.44	210.65
455.62	259.80
455.81	266.82
455.99	245.76
456.17	313.63
456.36	241.08
456.54	191.92
456.73	173.20
456.91	159.16
457.09	184.90
457.28	273.84
457.46	271.50
457.64	278.52
457.83	224.69
458.01	205.97
458.19	231.71
458.38	241.08
458.56	168.52
458.74	198.95
458.93	271.50
459.11	257.46
459.29	217.67
459.48	308.95
459.66	308.95
459.84	259.80
460.03	327.68
460.21	280.86
460.39	250.44
460.57	264.48
460.76	243.42
460.94	238.73
461.12	266.82
461.31	292.57
461.49	184.90
461.67	262.14
461.85	271.50
462.04	208.31
462.22	381.51
462.40	229.37
462.59	299.59
462.77	259.80
462.95	283.20
463.13	203.63
463.32	311.29
463.50	229.37
463.68	245.76
463.86	238.73
464.05	177.88
464.23	243.42
464.41	198.95
464.59	262.14
464.78	184.90
464.96	266.82
465.14	264.48
465.32	212.99
465.50	210.65
465.69	198.95
465.87	147.45
466.05	255.12
466.23	191.92
466.41	194.26
466.60	313.63
466.78	184.90
466.96	280.86
467.14	220.01
467.32	227.03
467.51	229.37
467.69	187.24
467.87	259.80
468.05	189.58
468.23	248.10
468.41	229.37
468.60	266.82
468.78	245.76
468.96	243.42
469.14	255.12
469.32	297.25
469.50	215.33
469.69	308.95
469.87	187.24
470.05	273.84
470.23	241.08
470.41	294.91
470.59	205.97
470.77	241.08
470.95	306.61
471.14	283.20
471.32	205.97
471.50	264.48
471.68	280.86
471.86	241.08
472.04	222.35
472.22	299.59
472.40	124.05
472.58	220.01
472.77	156.82
472.95	273.84
473.13	241.08
473.31	257.46
473.49	152.13
473.67	236.39
473.85	271.50
474.03	248.10
474.21	224.69
474.39	262.14
474.57	290.23
474.75	308.95
474.93	205.97
475.12	259.80
475.30	215.33
475.48	271.50
475.66	257.46
475.84	257.46
476.02	278.52
476.20	313.63
476.38	196.60
476.56	259.80
476.74	210.65
476.92	271.50
477.10	215.33
477.28	231.71
477.46	229.37
477.64	304.27
477.82	315.97
478.00	243.42
478.18	245.76
478.36	264.48
478.54	290.23
478.72	243.42
478.90	229.37
479.08	217.67
479.26	250.44
479.44	285.55
479.62	266.82
479.80	318.31
479.98	327.68
480.16	327.68
480.34	332.36
480.52	278.52
480.70	318.31
480.88	402.57
481.06	353.42
481.24	299.59
481.41	306.61
481.59	369.80
481.77	381.51
481.95	404.91
482.13	442.36
482.31	465.77
482.49	423.64
482.67	561.73
482.85	585.13
483.03	512.58
483.21	603.86
483.39	543.00
483.57	543.00
483.74	603.86
483.92	592.16
484.10	629.60
484.28	655.35
484.46	732.59
484.64	753.65
484.82	777.06
485.00	814.51
485.18	830.89
485.35	835.57
485.53	856.64
485.71	1032.18
485.89	952.60
486.07	910.47
486.25	1069.62
486.43	1036.86
486.61	945.58
486.78	1043.88
486.96	966.64
487.14	976.00
487.32	1022.81
487.50	1039.20
487.68	1039.20
487.85	964.30
488.03	1004.09
488.21	1041.54
488.39	912.81
488.57	924.51
488.75	952.60
488.92	1203.04
489.10	891.74
489.28	957.28
489.46	791.10
489.64	849.61
489.81	856.64
489.99	819.19
490.17	781.74
490.35	812.17
490.53	858.98
490.70	812.17
490.88	802.80
491.06	891.74
491.24	816.85
491.41	947.92
491.59	828.55
491.77	819.19
491.95	683.44
492.13	681.10
492.30	702.16
492.48	770.04
492.66	683.44
492.84	699.82
493.01	662.37
493.19	709.18
493.37	751.31
493.54	704.50
493.72	716.20
493.90	620.24
494.08	704.50
494.25	636.63
494.43	667.05
494.61	657.69
494.79	634.29
494.96	592.16
495.14	648.33
495.32	627.26
495.49	629.60
495.67	662.37
495.85	615.56
496.02	678.76
496.20	545.34
496.38	547.69
496.55	587.47
496.73	592.16
496.91	594.50
497.09	631.94
497.26	571.09
497.44	514.92
497.62	587.47
497.79	526.62
497.97	484.49
498.14	505.56
498.32	498.53
498.50	461.09
498.67	386.19
498.85	433.00
499.03	402.57
499.20	440.02
499.38	447.04
499.56	465.77
499.73	491.51
499.91	496.19
500.08	503.22
500.26	414.27
500.44	421.30
500.61	430.66
500.79	425.98
500.97	362.78
501.14	369.80
501.32	402.57
501.49	414.27
501.67	322.99
501.84	416.62
502.02	325.33
502.20	395.55
502.37	470.45
502.55	262.14
502.72	320.65
502.90	332.36
503.07	381.51
503.25	367.46
503.43	266.82
503.60	376.83
503.78	318.31
503.95	290.23
504.13	315.97
504.30	353.42
504.48	360.44
504.65	315.97
504.83	294.91
505.01	318.31
505.18	346.40
505.36	322.99
505.53	327.68
505.71	266.82
505.88	372.15
506.06	292.57
506.23	313.63
506.41	276.18
506.58	292.57
506.76	215.33
506.93	301.93
507.11	264.48
507.28	250.44
507.46	238.73
507.63	287.89
507.81	266.82
507.98	339.38
508.16	322.99
508.33	259.80
508.50	299.59
508.68	374.49
508.85	322.99
509.03	332.36
509.20	367.46
509.38	341.72
509.55	299.59
509.73	327.68
509.90	313.63
510.08	250.44
510.25	273.84
510.42	325.33
510.60	320.65
510.77	379.17
510.95	276.18
511.12	315.97
511.30	269.16
511.47	386.19
511.64	266.82
511.82	287.89
511.99	311.29
512.17	212.99
512.34	320.65
512.51	322.99
512.69	379.17
512.86	320.65
513.04	330.02
513.21	306.61
513.38	231.71
513.56	276.18
513.73	243.42
513.90	341.72
514.08	215.33
514.25	318.31
514.43	311.29
514.60	248.10
514.77	320.65
514.95	227.03
515.12	250.44
515.29	201.29
515.47	358.10
515.64	205.97
515.81	264.48
515.99	245.76
516.16	266.82
516.33	290.23
516.51	264.48
516.68	224.69
516.85	313.63
517.03	220.01
517.20	325.33
517.37	259.80
517.54	264.48
517.72	215.33
517.89	210.65
518.06	238.73
518.24	322.99
518.41	252.78
518.58	330.02
518.75	231.71
518.93	252.78
519.10	315.97
519.27	259.80
519.45	283.20
519.62	271.50
519.79	243.42
519.96	306.61
520.14	330.02
520.31	320.65
520.48	252.78
520.65	266.82
520.83	283.20
521.00	290.23
521.17	337.04
521.34	241.08
521.52	315.97
521.69	301.93
521.86	322.99
522.03	238.73
522.20	280.86
522.38	269.16
522.55	257.46
522.72	259.80
522.89	264.48
523.07	283.20
523.24	315.97
523.41	325.33
523.58	297.25
523.75	388.53
523.92	269.16
524.10	334.70
524.27	264.48
524.44	334.70
524.61	346.40
524.78	217.67
524.96	215.33
525.13	273.84
525.30	353.42
525.47	287.89
525.64	351.08
525.81	299.59
525.98	301.93
526.16	210.65
526.33	252.78
526.50	341.72
526.67	344.06
526.84	273.84
527.01	252.78
527.18	266.82
527.36	416.62
527.53	362.78
527.70	369.80
527.87	278.52
528.04	348.74
528.21	355.76
528.38	322.99
528.55	285.55
528.72	372.15
528.89	339.38
529.07	330.02
529.24	297.25
529.41	360.44
529.58	351.08
529.75	306.61
529.92	245.76
530.09	287.89
530.26	423.64
530.43	313.63
530.60	362.78
530.77	369.80
530.94	388.53
531.11	404.91
531.28	325.33
531.46	297.25
531.63	271.50
531.80	437.68
531.97	442.36
532.14	428.32
532.31	315.97
532.48	437.68
532.65	554.71
532.82	655.35
532.99	617.90
533.16	653.01
533.33	692.80
533.50	566.41
533.67	559.39
533.84	512.58
534.01	491.51
534.18	531.30
534.35	545.34
534.52	437.68
534.69	517.26
534.86	489.17
535.03	545.34
535.20	524.28
535.37	528.96
535.54	599.18
535.71	608.54
535.88	580.45
536.05	561.73
536.22	629.60
536.38	718.54
536.55	774.72
536.72	819.19
536.89	877.70
537.06	964.30
537.23	987.71
537.40	1090.69
537.57	1116.44
537.74	1240.48
537.91	1273.25
538.08	1240.48
538.25	1329.42
538.42	1343.47
538.59	1317.72
538.75	1427.73
538.92	1533.05
539.09	1607.95
539.26	1722.63
539.43	1961.37
539.60	2207.13
539.77	2427.14
539.94	2626.08
540.11	2972.48
540.28	3180.79
540.44	3424.20
540.61	3737.84
540.78	4362.76
540.95	5100.03
541.12	5982.41
541.29	6726.70
541.46	6787.55
541.62	6757.13
541.79	6511.37
541.96	6087.73
542.13	5846.66
542.30	5526.00
542.47	5123.43
542.63	4856.61
542.80	4849.59
542.97	4840.23
543.14	4788.74
543.31	4894.06
543.48	4807.46
543.64	4929.17
543.81	4912.78
543.98	4856.61
544.15	4781.71
544.32	4812.14
544.48	4833.21
544.65	4816.82
544.82	4683.41
544.99	4882.36
545.16	4744.27
545.32	5287.27
545.49	10092.39
545.66	16306.51
545.83	18562.79
546.00	14970.07
546.16	10328.78
546.33	7793.98
546.50	5818.57
546.67	4798.10
546.83	4482.13
547.00	4046.79
547.17	3744.86
547.34	3714.43
547.50	3564.64
547.67	3419.52
547.84	3234.62
548.00	3314.20
548.17	3108.23
548.34	2944.39
548.51	3035.67
548.67	2759.49
548.84	2841.41
549.01	2385.01
549.18	2445.86
549.34	2443.52
549.51	2340.54
549.68	2267.98
549.84	2129.89
550.01	2104.14
550.18	2052.65
550.34	1895.83
550.51	1839.66
550.68	1865.41
550.84	1586.88
551.01	1577.52
551.18	1530.71
551.34	1481.56
551.51	1331.76
551.68	1315.38
551.84	1406.66
552.01	1277.93
552.18	1203.04
552.34	1191.33
552.51	1174.95
552.68	1107.07
552.84	1158.57
553.01	1046.22
553.18	1046.22
553.34	987.71
553.51	973.66
553.67	1015.79
553.84	875.36
554.01	863.66
554.17	823.87
554.34	741.95
554.51	758.33
554.67	720.88
554.84	648.33
555.00	643.65
555.17	718.54
555.33	624.92
555.50	557.05
555.67	617.90
555.83	444.70
556.00	578.11
556.16	692.80
556.33	507.90
556.50	533.64
556.66	500.87
556.83	580.45
556.99	566.41
557.16	533.64
557.32	463.43
557.49	423.64
557.65	433.00
557.82	433.00
557.98	463.43
558.15	451.72
558.32	327.68
558.48	430.66
558.65	407.25
558.81	423.64
558.98	365.12
559.14	454.06
559.31	404.91
559.47	388.53
559.64	360.44
559.80	379.17
559.97	379.17
560.13	355.76
560.30	353.42
560.46	393.21
560.63	386.19
560.79	400.23
560.96	421.30
561.12	409.59
561.29	386.19
561.45	416.62
561.61	407.25
561.78	540.66
561.94	477.47
562.11	421.30
562.27	365.12
562.44	299.59
562.60	365.12
562.77	418.96
562.93	404.91
563.10	346.40
563.26	395.55
563.42	344.06
563.59	292.57
563.75	390.87
563.92	334.70
564.08	425.98
564.24	346.40
564.41	369.80
564.57	358.10
564.74	395.55
564.90	346.40
565.07	332.36
565.23	407.25
565.39	339.38
565.56	301.93
565.72	360.44
565.88	379.17
566.05	320.65
566.21	299.59
566.38	365.12
566.54	388.53
566.70	332.36
566.87	348.74
567.03	339.38
567.19	332.36
567.36	418.96
567.52	372.15
567.68	365.12
567.85	365.12
568.01	332.36
568.17	341.72
568.34	308.95
568.50	339.38
568.66	248.10
568.83	423.64
568.99	341.72
569.15	332.36
569.32	215.33
569.48	365.12
569.64	315.97
569.81	278.52
569.97	318.31
570.13	376.83
570.30	344.06
570.46	266.82
570.62	266.82
570.78	297.25
570.95	299.59
571.11	292.57
571.27	360.44
571.43	271.50
571.60	262.14
571.76	311.29
571.92	278.52
572.09	278.52
572.25	379.17
572.41	325.33
572.57	252.78
572.74	322.99
572.90	339.38
573.06	290.23
573.22	351.08
573.38	337.04
573.55	365.12
573.71	266.82
573.87	250.44
574.03	299.59
574.20	330.02
574.36	330.02
574.52	245.76
574.68	299.59
574.84	276.18
575.01	290.23
575.17	407.25
575.33	444.70
575.49	334.70
575.65	444.70
575.82	409.59
575.98	461.09
576.14	433.00
576.30	858.98
576.46	2258.62
576.62	3323.56
576.79	3227.60
576.95	2427.14
577.11	1706.25
577.27	1158.57
577.43	863.66
577.59	702.16
577.75	498.53
577.92	451.72
578.08	566.41
578.24	465.77
578.40	889.40
578.56	2143.93
578.72	2963.12
578.88	2918.65
579.04	2305.43
579.21	1614.97
579.37	1205.38
579.53	1036.86
579.69	1064.94
579.85	1324.74
580.01	1341.13
580.17	1177.29
580.33	1184.31
580.49	1057.92
580.65	922.17
580.82	868.34
580.98	894.08
581.14	896.43
581.30	922.17
581.46	978.34
581.62	1114.10
581.78	1034.52
581.94	1174.95
582.10	1172.61
582.26	1210.06
582.42	1273.25
582.58	1273.25
582.74	1383.26
582.90	1430.07
583.06	1350.49
583.22	1280.27
583.38	1277.93
583.54	1380.92
583.70	1334.11
583.86	1212.40
584.02	1238.14
584.18	1245.16
584.34	1296.66
584.50	1186.65
584.66	1296.66
584.82	1188.99
584.98	1266.23
585.14	1214.74
585.30	1203.04
585.46	1153.88
585.62	1027.50
585.78	1057.92
585.94	1137.50
586.10	1221.76
586.26	1217.08
586.42	1364.53
586.58	1638.38
586.74	2054.99
586.90	2246.91
587.06	2310.11
587.22	2237.55
587.38	2036.27
587.54	1830.30
587.70	1675.82
587.86	1401.98
588.02	1149.20
588.18	1111.75
588.34	1102.39
588.49	887.06
588.65	833.23
588.81	837.91
588.97	823.87
589.13	816.85
589.29	807.48
589.45	880.04
589.61	793.44
589.77	861.32
589.93	903.45
590.08	823.87
590.24	858.98
590.40	856.64
590.56	896.43
590.72	959.62
590.88	882.38
591.04	990.05
591.20	1018.13
591.35	1053.24
591.51	1102.39
591.67	1032.18
591.83	1172.61
591.99	1306.02
592.15	1336.45
592.31	1486.24
592.46	1521.35
592.62	1701.57
592.78	1839.66
592.94	1806.89
593.10	1706.25
593.26	1596.25
593.41	1563.48
593.57	1348.15
593.73	1249.85
593.89	1165.59
594.05	1020.47
594.20	945.58
594.36	926.85
594.52	847.27
594.68	884.72
594.84	809.83
594.99	758.33
595.15	739.61
595.31	751.31
595.47	795.78
595.62	664.71
595.78	767.70
595.94	770.04
596.10	739.61
596.25	732.59
596.41	814.51
596.57	725.57
596.73	732.59
596.88	758.33
597.04	685.78
597.20	772.38
597.36	800.46
597.51	758.33
597.67	774.72
597.83	791.10
597.99	837.91
598.14	901.11
598.30	950.26
598.46	968.98
598.61	1006.43
598.77	1142.18
598.93	1039.20
599.09	1090.69
599.24	1233.46
599.40	1081.33
599.56	1163.25
599.71	1041.54
599.87	1025.15
600.03	933.87
600.18	959.62
600.34	912.81
600.50	807.48
600.65	748.97
600.81	699.82
600.97	727.91
601.12	746.63
601.28	692.80
601.44	629.60
601.59	524.28
601.75	594.50
601.91	559.39
602.06	524.28
602.22	638.97
602.37	528.96
602.53	566.41
602.69	578.11
602.84	531.30
603.00	550.03
603.16	521.94
603.31	564.07
603.47	582.79
603.62	566.41
603.78	578.11
603.94	580.45
604.09	596.84
604.25	512.58
604.40	617.90
604.56	552.37
604.71	706.84
604.87	634.29
605.03	627.26
605.18	655.35
605.34	678.76
605.49	610.88
605.65	695.14
605.80	657.69
605.96	648.33
606.12	734.93
606.27	751.31
606.43	702.16
606.58	819.19
606.74	807.48
606.89	851.96
607.05	861.32
607.20	966.64
607.36	898.77
607.51	952.60
607.67	1137.50
607.82	1165.59
607.98	1259.21
608.13	1275.59
608.29	1254.53
608.44	1437.09
608.60	1605.61
608.75	1706.25
608.91	1856.04
609.06	1935.62
609.22	2284.36
609.37	2389.69
609.53	2651.83
609.68	2925.67
609.84	3473.36
609.99	4021.04
610.15	4575.75
610.30	5661.76
610.46	7297.79
610.61	9336.40
610.76	11889.92
610.92	14406.00
611.07	15351.57
611.23	15676.91
611.38	14682.18
611.54	13006.36
611.69	11009.88
611.84	9310.65
612.00	7726.11
612.15	6614.35
612.31	5661.76
612.46	5406.64
612.62	4931.51
612.77	4692.77
612.92	4468.08
613.08	4301.90
613.23	3812.73
613.39	3763.58
613.54	3702.73
613.69	3630.17
613.85	3606.77
614.00	3548.25
614.15	3571.66
614.31	3405.48
614.46	3517.83
614.62	3248.66
614.77	3201.85
614.92	2862.48
615.08	2848.43
615.23	2597.99
615.38	2373.30
615.54	2202.44
615.69	2071.37
615.84	1865.41
616.00	1860.73
616.15	1582.20
616.30	1575.18
616.46	1462.83
616.61	1329.42
616.76	1310.70
616.92	1301.34
617.07	1268.57
617.22	1212.40
617.37	1142.18
617.53	1095.37
617.68	985.37
617.83	1015.79
617.99	973.66
618.14	1029.84
618.29	959.62
618.45	922.17
618.60	933.87
618.75	898.77
618.90	901.11
619.06	924.51
619.21	912.81
619.36	891.74
619.51	858.98
619.67	896.43
619.82	959.62
619.97	905.79
620.12	891.74
620.28	978.34
620.43	936.21
620.58	903.45
620.73	1050.90
620.89	968.98
621.04	1029.84
621.19	992.39
621.34	961.96
621.49	929.19
621.65	940.90
621.80	866.00
621.95	922.17
622.10	924.51
622.25	924.51
622.41	837.91
622.56	980.68
622.71	1004.09
622.86	1041.54
623.01	1074.31
623.16	1018.13
623.32	1076.65
623.47	954.94
623.62	1025.15
623.77	1041.54
623.92	1011.11
624.07	1001.75
624.23	1008.77
624.38	954.94
624.53	973.66
624.68	1018.13
624.83	1125.80
624.98	1053.24
625.13	1027.50
625.29	1011.11
625.44	954.94
625.59	1062.60
625.74	1034.52
625.89	1067.28
626.04	940.90
626.19	1022.81
626.34	973.66
626.49	1027.50
626.65	950.26
626.80	959.62
626.95	924.51
627.10	898.77
627.25	889.40
627.40	894.08
627.55	980.68
627.70	952.60
627.85	933.87
628.00	858.98
628.15	912.81
628.30	976.00
628.45	873.02
628.60	884.72
628.76	851.96
628.91	854.30
629.06	933.87
629.21	938.55
629.36	936.21
629.51	938.55
629.66	1022.81
629.81	1142.18
629.96	1163.25
630.11	1259.21
630.26	1387.94
630.41	1537.73
630.56	1750.72
630.71	1785.83
630.86	1802.21
631.01	1717.95
631.16	1600.93
631.31	1516.67
631.46	1249.85
631.61	1069.62
631.76	933.87
631.91	788.76
632.06	720.88
632.21	645.99
632.36	582.79
632.51	615.56
632.66	416.62
632.81	526.62
632.96	479.81
633.10	437.68
633.25	503.22
633.40	437.68
633.55	456.40
633.70	339.38
633.85	351.08
634.00	404.91
634.15	390.87
634.30	402.57
634.45	334.70
634.60	353.42
634.75	330.02
634.90	421.30
635.05	313.63
635.19	313.63
635.34	327.68
635.49	388.53
635.64	308.95
635.79	290.23
635.94	351.08
636.09	390.87
636.24	362.78
636.39	358.10
636.53	301.93
636.68	283.20
636.83	245.76
636.98	332.36
637.13	299.59
637.28	339.38
637.43	273.84
637.57	327.68
637.72	285.55
637.87	285.55
638.02	297.25
638.17	379.17
638.32	313.63
638.46	318.31
638.61	337.04
638.76	308.95
638.91	362.78
639.06	222.35
639.20	372.15
639.35	346.40
639.50	315.97
639.65	330.02
639.80	304.27
639.94	292.57
640.09	287.89
640.24	292.57
640.39	283.20
640.54	273.84
640.68	297.25
640.83	266.82
640.98	217.67
641.13	269.16
641.27	297.25
641.42	304.27
641.57	266.82
641.72	259.80
641.86	292.57
642.01	273.84
642.16	257.46
642.31	292.57
642.45	379.17
642.60	311.29
642.75	269.16
642.90	367.46
643.04	273.84
643.19	301.93
643.34	330.02
643.48	308.95
643.63	224.69
643.78	220.01
643.93	376.83
644.07	311.29
644.22	315.97
644.37	353.42
644.51	315.97
644.66	344.06
644.81	259.80
644.95	330.02
645.10	248.10
645.25	224.69
645.39	355.76
645.54	273.84
645.69	304.27
645.83	311.29
645.98	351.08
646.13	273.84
646.27	236.39
646.42	280.86
646.57	311.29
646.71	234.05
646.86	255.12
647.00	194.26
647.15	264.48
647.30	269.16
647.44	276.18
647.59	238.73
647.74	255.12
647.88	252.78
648.03	229.37
648.17	194.26
648.32	318.31
648.47	308.95
648.61	266.82
648.76	311.29
648.90	346.40
649.05	334.70
649.20	297.25
649.34	285.55
649.49	400.23
649.63	292.57
649.78	440.02
649.92	468.11
650.07	592.16
650.21	533.64
650.36	568.75
650.51	550.03
650.65	608.54
650.80	507.90
650.94	449.38
651.09	440.02
651.23	433.00
651.38	369.80
651.52	327.68
651.67	425.98
651.81	334.70
651.96	386.19
652.10	353.42
652.25	388.53
652.39	390.87
652.54	325.33
652.68	294.91
652.83	311.29
652.97	360.44
653.12	367.46
653.26	330.02
653.41	365.12
653.55	339.38
653.70	322.99
653.84	383.85
653.99	315.97
654.13	234.05
654.27	341.72
654.42	285.55
654.56	255.12
654.71	299.59
654.85	301.93
655.00	243.42
655.14	271.50
655.29	227.03
655.43	271.50
655.57	367.46
655.72	210.65
655.86	259.80
656.01	257.46
656.15	236.39
656.30	313.63
656.44	215.33
656.58	187.24
656.73	304.27
656.87	264.48
657.01	276.18
657.16	334.70
657.30	313.63
657.45	313.63
657.59	217.67
657.73	215.33
657.88	306.61
658.02	390.87
658.16	290.23
658.31	306.61
658.45	255.12
658.60	250.44
658.74	285.55
658.88	248.10
659.03	205.97
659.17	262.14
659.31	187.24
659.46	262.14
659.60	257.46
659.74	306.61
659.89	203.63
660.03	262.14
660.17	257.46
660.32	283.20
660.46	234.05
660.60	229.37
660.74	259.80
660.89	243.42
661.03	163.84
661.17	308.95
661.32	320.65
661.46	276.18
661.60	287.89
661.74	257.46
661.89	404.91
662.03	440.02
662.17	421.30
662.31	423.64
662.46	463.43
662.60	327.68
662.74	369.80
662.88	351.08
663.03	266.82
663.17	227.03
663.31	306.61
663.45	334.70
663.60	241.08
663.74	173.20
663.88	210.65
664.02	290.23
664.17	212.99
664.31	276.18
664.45	224.69
664.59	222.35
664.73	297.25
664.88	173.20
665.02	205.97
665.16	241.08
665.30	278.52
665.44	187.24
665.59	290.23
665.73	191.92
665.87	222.35
666.01	229.37
666.15	194.26
666.29	224.69
666.44	187.24
666.58	280.86
666.72	212.99
666.86	198.95
667.00	194.26
667.14	257.46
667.28	266.82
667.43	133.41
667.57	229.37
667.71	208.31
667.85	287.89
667.99	311.29
668.13	212.99
668.27	273.84
668.41	287.89
668.56	205.97
668.70	252.78
668.84	194.26
668.98	152.13
669.12	159.16
669.26	259.80
669.40	280.86
669.54	159.16
669.68	231.71
669.82	189.58
669.96	271.50
670.10	170.86
670.25	222.35
670.39	243.42
670.53	201.29
670.67	198.95
670.81	175.54
670.95	262.14
671.09	208.31
671.23	273.84
671.37	266.82
671.51	182.56
671.65	266.82
671.79	215.33
671.93	201.29
672.07	196.60
672.21	238.73
672.35	189.58
672.49	184.90
672.63	250.44
672.77	252.78
672.91	280.86
673.05	290.23
673.19	212.99
673.33	177.88
673.47	287.89
673.61	203.63
673.75	189.58
673.89	201.29
674.03	257.46
674.17	201.29
674.31	266.82
674.45	152.13
674.59	201.29
674.73	264.48
674.87	191.92
675.01	231.71
675.15	262.14
675.29	159.16
675.43	180.22
675.56	198.95
675.70	222.35
675.84	191.92
675.98	220.01
676.12	173.20
676.26	215.33
676.40	208.31
676.54	306.61
676.68	117.03
676.82	168.52
676.96	159.16
677.10	138.09
677.23	273.84
677.37	231.71
677.51	177.88
677.65	243.42
677.79	95.96
677.93	201.29
678.07	163.84
678.21	170.86
678.34	229.37
678.48	189.58
678.62	138.09
678.76	93.62
678.90	168.52
679.04	145.11
679.18	198.95
679.31	112.35
679.45	198.95
679.59	177.88
679.73	205.97
679.87	149.79
680.00	229.37
680.14	156.82
680.28	163.84
680.42	224.69
680.56	266.82
680.70	184.90
680.83	201.29
680.97	166.18
681.11	149.79
681.25	170.86
681.39	238.73
681.52	182.56
681.66	208.31
681.80	208.31
681.94	156.82
682.07	145.11
682.21	236.39
682.35	180.22
682.49	201.29
682.62	152.13
682.76	262.14
682.90	166.18
683.04	234.05
683.17	227.03
683.31	184.90
683.45	220.01
683.59	236.39
683.72	177.88
683.86	203.63
684.00	227.03
684.13	187.24
684.27	231.71
684.41	175.54
684.55	93.62
684.68	210.65
684.82	166.18
684.96	173.20
685.09	194.26
685.23	128.73
685.37	175.54
685.50	238.73
685.64	168.52
685.78	212.99
685.91	201.29
686.05	241.08
686.19	250.44
686.32	278.52
686.46	231.71
686.60	231.71
686.73	262.14
686.87	168.52
687.01	194.26
687.14	189.58
687.28	210.65
687.42	287.89
687.55	224.69
687.69	238.73
687.82	362.78
687.96	238.73
688.10	285.55
688.23	208.31
688.37	278.52
688.50	224.69
688.64	278.52
688.78	142.77
688.91	159.16
689.05	227.03
689.18	100.64
689.32	196.60
689.46	140.43
689.59	142.77
689.73	269.16
689.86	124.05
690.00	198.95
690.13	163.84
690.27	140.43
690.41	227.03
690.54	203.63
690.68	264.48
690.81	191.92
690.95	140.43
691.08	184.90
691.22	114.69
691.35	161.50
691.49	156.82
691.62	166.18
691.76	191.92
691.89	147.45
692.03	126.39
692.16	156.82
692.30	145.11
692.43	100.64
692.57	161.50
692.70	220.01
692.84	196.60
692.97	142.77
693.11	152.13
693.24	196.60
693.38	142.77
693.51	203.63
693.65	184.90
693.78	269.16
693.92	175.54
694.05	212.99
694.19	145.11
694.32	133.41
694.45	110.01
694.59	152.13
694.72	220.01
694.86	142.77
694.99	273.84
695.13	142.77
695.26	161.50
695.39	159.16
695.53	257.46
695.66	198.95
695.80	203.63
695.93	84.26
696.07	166.18
696.20	177.88
696.33	159.16
696.47	201.29
696.60	147.45
696.73	154.48
696.87	93.62
697.00	177.88
697.14	138.09
697.27	102.98
697.40	184.90
697.54	163.84
697.67	170.86
697.80	182.56
697.94	142.77
698.07	79.58
698.21	147.45
698.34	161.50
698.47	126.39
698.61	70.22
698.74	102.98
698.87	110.01
699.01	131.07
699.14	110.01
699.27	135.75
699.40	173.20
699.54	156.82
699.67	159.16
699.80	166.18
699.94	154.48
700.07	149.79
700.20	65.54
700.34	117.03
700.47	138.09
700.60	161.50
700.73	107.66
700.87	166.18
701.00	119.37
701.13	138.09
701.26	98.30
701.40	107.66
701.53	140.43
701.66	180.22
701.79	100.64
701.93	152.13
702.06	126.39
702.19	170.86
702.32	119.37
702.46	105.32
702.59	98.30
702.72	100.64
702.85	112.35
702.99	124.05
703.12	182.56
703.25	154.48
703.38	189.58
703.51	196.60
703.65	147.45
703.78	121.71
703.91	156.82
704.04	161.50
704.17	119.37
704.31	114.69
704.44	100.64
704.57	126.39
704.70	217.67
704.83	168.52
704.96	152.13
705.10	154.48
705.23	168.52
>>>>>End Processed Spectral Data<<<<<
