SpectraSuite Data File
++++++++++++++++++++++++++++++++++++
Date: Fri Oct 04 11:41:50 GMT-05:00 2013
User: price-jones
Dark Spectrum Present: No
Reference Spectrum Present: No
Number of Sampled Component Spectra: 1
Spectrometers: USB2+H05261
Integration Time (usec): 100000 (USB2+H05261)
Spectra Averaged: 1 (USB2+H05261)
Boxcar Smoothing: 0 (USB2+H05261)
Correct for Electrical Dark: No (USB2+H05261)
Strobe/Lamp Enabled: No (USB2+H05261)
Correct for Detector Non-linearity: No (USB2+H05261)
Correct for Stray Light: No (USB2+H05261)
Number of Pixels in Processed Spectrum: 2048
>>>>>Begin Processed Spectral Data<<<<<
365.73	21.06
365.92	21.06
366.12	21.06
366.32	0.00
366.52	0.00
366.72	0.00
366.91	0.00
367.11	0.00
367.31	0.00
367.51	0.00
367.70	0.00
367.90	16.38
368.10	0.00
368.30	0.00
368.49	0.00
368.69	0.00
368.89	0.00
369.09	0.00
369.28	0.00
369.48	0.00
369.68	0.00
369.87	0.00
370.07	7.02
370.27	58.51
370.47	63.19
370.66	42.13
370.86	63.19
371.06	63.19
371.25	119.37
371.45	65.54
371.65	112.35
371.84	102.98
372.04	2.34
372.24	56.17
372.44	88.94
372.63	147.45
372.83	231.71
373.03	72.56
373.22	110.01
373.42	65.54
373.62	170.86
373.81	95.96
374.01	180.22
374.21	184.90
374.40	114.69
374.60	131.07
374.79	114.69
374.99	126.39
375.19	210.65
375.38	154.48
375.58	114.69
375.78	131.07
375.97	177.88
376.17	159.16
376.37	133.41
376.56	79.58
376.76	131.07
376.95	51.49
377.15	105.32
377.35	128.73
377.54	107.66
377.74	93.62
377.93	114.69
378.13	112.35
378.33	205.97
378.52	170.86
378.72	119.37
378.91	102.98
379.11	107.66
379.31	182.56
379.50	86.60
379.70	152.13
379.89	149.79
380.09	77.24
380.28	128.73
380.48	84.26
380.68	114.69
380.87	100.64
381.07	177.88
381.26	154.48
381.46	194.26
381.65	114.69
381.85	84.26
382.04	138.09
382.24	163.84
382.43	93.62
382.63	133.41
382.83	138.09
383.02	86.60
383.22	107.66
383.41	142.77
383.61	107.66
383.80	180.22
384.00	25.75
384.19	117.03
384.39	65.54
384.58	140.43
384.78	140.43
384.97	140.43
385.17	145.11
385.36	133.41
385.56	154.48
385.75	121.71
385.95	170.86
386.14	147.45
386.34	156.82
386.53	133.41
386.72	28.09
386.92	161.50
387.11	126.39
387.31	180.22
387.50	152.13
387.70	100.64
387.89	184.90
388.09	72.56
388.28	152.13
388.48	126.39
388.67	156.82
388.86	140.43
389.06	163.84
389.25	138.09
389.45	110.01
389.64	102.98
389.84	147.45
390.03	184.90
390.22	156.82
390.42	177.88
390.61	210.65
390.81	56.17
391.00	149.79
391.19	177.88
391.39	140.43
391.58	142.77
391.78	140.43
391.97	112.35
392.16	124.05
392.36	91.28
392.55	161.50
392.75	154.48
392.94	110.01
393.13	191.92
393.33	74.90
393.52	58.51
393.71	149.79
393.91	105.32
394.10	124.05
394.29	86.60
394.49	93.62
394.68	88.94
394.88	93.62
395.07	175.54
395.26	124.05
395.46	126.39
395.65	117.03
395.84	42.13
396.04	222.35
396.23	140.43
396.42	145.11
396.62	149.79
396.81	175.54
397.00	81.92
397.19	145.11
397.39	135.75
397.58	152.13
397.77	126.39
397.97	140.43
398.16	156.82
398.35	154.48
398.55	138.09
398.74	81.92
398.93	117.03
399.12	119.37
399.32	126.39
399.51	105.32
399.70	149.79
399.90	147.45
400.09	142.77
400.28	198.95
400.47	210.65
400.67	238.73
400.86	126.39
401.05	203.63
401.24	173.20
401.44	112.35
401.63	138.09
401.82	187.24
402.01	168.52
402.21	121.71
402.40	138.09
402.59	184.90
402.78	191.92
402.97	189.58
403.17	138.09
403.36	266.82
403.55	346.40
403.74	755.99
403.93	2282.02
404.13	5558.77
404.32	8320.60
404.51	7702.70
404.70	4774.69
404.89	1760.08
405.09	585.13
405.28	315.97
405.47	166.18
405.66	255.12
405.85	191.92
406.05	243.42
406.24	243.42
406.43	231.71
406.62	231.71
406.81	308.95
407.00	271.50
407.20	716.20
407.39	1078.99
407.58	1165.59
407.77	823.87
407.96	388.53
408.15	196.60
408.34	154.48
408.54	245.76
408.73	194.26
408.92	182.56
409.11	217.67
409.30	241.08
409.49	154.48
409.68	238.73
409.87	154.48
410.07	248.10
410.26	234.05
410.45	262.14
410.64	238.73
410.83	220.01
411.02	184.90
411.21	191.92
411.40	241.08
411.59	210.65
411.78	208.31
411.98	252.78
412.17	315.97
412.36	220.01
412.55	257.46
412.74	205.97
412.93	248.10
413.12	280.86
413.31	163.84
413.50	266.82
413.69	248.10
413.88	266.82
414.07	257.46
414.26	250.44
414.45	283.20
414.64	259.80
414.83	217.67
415.02	177.88
415.22	292.57
415.41	318.31
415.60	259.80
415.79	234.05
415.98	313.63
416.17	273.84
416.36	334.70
416.55	301.93
416.74	313.63
416.93	322.99
417.12	297.25
417.31	203.63
417.50	262.14
417.69	276.18
417.88	341.72
418.07	287.89
418.26	304.27
418.45	243.42
418.64	337.04
418.83	273.84
419.02	217.67
419.21	205.97
419.39	287.89
419.58	280.86
419.77	339.38
419.96	292.57
420.15	397.89
420.34	271.50
420.53	259.80
420.72	285.55
420.91	245.76
421.10	208.31
421.29	369.80
421.48	280.86
421.67	327.68
421.86	252.78
422.05	339.38
422.24	337.04
422.43	416.62
422.61	330.02
422.80	341.72
422.99	313.63
423.18	330.02
423.37	332.36
423.56	299.59
423.75	320.65
423.94	252.78
424.13	386.19
424.32	252.78
424.50	311.29
424.69	330.02
424.88	337.04
425.07	358.10
425.26	308.95
425.45	269.16
425.64	283.20
425.83	243.42
426.01	318.31
426.20	348.74
426.39	383.85
426.58	311.29
426.77	318.31
426.96	381.51
427.15	339.38
427.33	388.53
427.52	416.62
427.71	386.19
427.90	341.72
428.09	332.36
428.28	390.87
428.46	400.23
428.65	404.91
428.84	362.78
429.03	486.83
429.22	311.29
429.40	397.89
429.59	454.06
429.78	479.81
429.97	390.87
430.16	386.19
430.34	470.45
430.53	414.27
430.72	442.36
430.91	365.12
431.10	390.87
431.28	395.55
431.47	472.79
431.66	425.98
431.85	388.53
432.03	543.00
432.22	543.00
432.41	402.57
432.60	491.51
432.79	470.45
432.97	524.28
433.16	540.66
433.35	561.73
433.54	706.84
433.72	711.52
433.91	772.38
434.10	739.61
434.28	1020.47
434.47	1158.57
434.66	1214.74
434.85	1526.03
435.03	3583.36
435.22	13626.60
435.41	33876.91
435.59	40371.90
435.78	27164.26
435.97	13432.33
436.16	5170.24
436.34	1724.97
436.53	1020.47
436.72	777.06
436.90	690.46
437.09	643.65
437.28	571.09
437.46	662.37
437.65	568.75
437.84	601.52
438.02	550.03
438.21	608.54
438.40	517.26
438.58	582.79
438.77	589.82
438.96	557.05
439.14	496.19
439.33	489.17
439.52	503.22
439.70	507.90
439.89	510.24
440.08	538.32
440.26	463.43
440.45	472.79
440.63	379.17
440.82	463.43
441.01	568.75
441.19	521.94
441.38	552.37
441.57	489.17
441.75	540.66
441.94	491.51
442.12	564.07
442.31	486.83
442.50	500.87
442.68	538.32
442.87	512.58
443.05	503.22
443.24	507.90
443.43	566.41
443.61	599.18
443.80	454.06
443.98	479.81
444.17	482.15
444.35	571.09
444.54	554.71
444.73	624.92
444.91	557.05
445.10	514.92
445.28	533.64
445.47	463.43
445.65	507.90
445.84	456.40
446.02	510.24
446.21	505.56
446.39	416.62
446.58	477.47
446.77	540.66
446.95	463.43
447.14	510.24
447.32	503.22
447.51	517.26
447.69	465.77
447.88	517.26
448.06	461.09
448.25	512.58
448.43	521.94
448.62	479.81
448.80	465.77
448.99	435.34
449.17	440.02
449.36	456.40
449.54	479.81
449.73	545.34
449.91	514.92
450.10	507.90
450.28	650.67
450.46	554.71
450.65	491.51
450.83	594.50
451.02	440.02
451.20	533.64
451.39	493.85
451.57	514.92
451.76	510.24
451.94	521.94
452.13	533.64
452.31	475.13
452.49	451.72
452.68	517.26
452.86	503.22
453.05	559.39
453.23	491.51
453.42	521.94
453.60	496.19
453.78	524.28
453.97	428.32
454.15	505.56
454.34	493.85
454.52	496.19
454.70	423.64
454.89	543.00
455.07	465.77
455.26	451.72
455.44	580.45
455.62	447.04
455.81	505.56
455.99	533.64
456.17	512.58
456.36	444.70
456.54	489.17
456.73	543.00
456.91	521.94
457.09	531.30
457.28	500.87
457.46	493.85
457.64	613.22
457.83	510.24
458.01	477.47
458.19	550.03
458.38	454.06
458.56	535.98
458.74	514.92
458.93	531.30
459.11	554.71
459.29	510.24
459.48	526.62
459.66	554.71
459.84	484.49
460.03	507.90
460.21	510.24
460.39	470.45
460.57	465.77
460.76	461.09
460.94	458.74
461.12	507.90
461.31	444.70
461.49	500.87
461.67	486.83
461.85	554.71
462.04	447.04
462.22	978.34
462.40	491.51
462.59	528.96
462.77	482.15
462.95	442.36
463.13	383.85
463.32	503.22
463.50	465.77
463.68	418.96
463.86	449.38
464.05	461.09
464.23	489.17
464.41	503.22
464.59	521.94
464.78	440.02
464.96	454.06
465.14	519.60
465.32	423.64
465.50	493.85
465.69	440.02
465.87	470.45
466.05	535.98
466.23	514.92
466.41	571.09
466.60	545.34
466.78	496.19
466.96	561.73
467.14	503.22
467.32	561.73
467.51	533.64
467.69	566.41
467.87	526.62
468.05	451.72
468.23	472.79
468.41	447.04
468.60	400.23
468.78	447.04
468.96	437.68
469.14	418.96
469.32	440.02
469.50	489.17
469.69	496.19
469.87	521.94
470.05	442.36
470.23	479.81
470.41	479.81
470.59	454.06
470.77	409.59
470.95	491.51
471.14	477.47
471.32	409.59
471.50	503.22
471.68	470.45
471.86	461.09
472.04	454.06
472.22	489.17
472.40	451.72
472.58	465.77
472.77	430.66
472.95	543.00
473.13	547.69
473.31	493.85
473.49	442.36
473.67	463.43
473.85	596.84
474.03	442.36
474.21	505.56
474.39	493.85
474.57	390.87
474.75	498.53
474.93	543.00
475.12	421.30
475.30	461.09
475.48	416.62
475.66	449.38
475.84	479.81
476.02	468.11
476.20	484.49
476.38	479.81
476.56	514.92
476.74	477.47
476.92	531.30
477.10	461.09
477.28	528.96
477.46	526.62
477.64	526.62
477.82	454.06
478.00	493.85
478.18	491.51
478.36	524.28
478.54	524.28
478.72	540.66
478.90	566.41
479.08	592.16
479.26	603.86
479.44	608.54
479.62	603.86
479.80	589.82
479.98	594.50
480.16	617.90
480.34	727.91
480.52	739.61
480.70	718.54
480.88	786.42
481.06	779.40
481.24	884.72
481.41	828.55
481.59	938.55
481.77	971.32
481.95	1086.01
482.13	1116.44
482.31	1231.12
482.49	1317.72
482.67	1355.17
482.85	1462.83
483.03	1504.96
483.21	1605.61
483.39	1717.95
483.57	1865.41
483.74	1998.82
483.92	2218.83
484.10	2181.38
484.28	2363.94
484.46	2406.07
484.64	2555.86
484.82	2686.94
485.00	2925.67
485.18	2953.76
485.35	3183.13
485.53	3281.43
485.71	3492.08
485.89	3536.55
486.07	3707.41
486.25	3700.39
486.43	3604.42
486.61	3873.59
486.78	3847.84
486.96	3669.96
487.14	3744.86
487.32	3653.58
487.50	3574.00
487.68	3653.58
487.85	3641.87
488.03	3581.02
488.21	3487.40
488.39	3433.57
488.57	3398.46
488.75	3159.72
488.92	3522.51
489.10	3052.06
489.28	3052.06
489.46	2902.26
489.64	2867.16
489.81	2986.52
489.99	2839.07
490.17	2836.73
490.35	2916.31
490.53	2820.35
490.70	2736.09
490.88	2773.53
491.06	2885.88
491.24	3087.17
491.41	3304.84
491.59	3075.46
491.77	2892.90
491.95	2710.34
492.13	2614.38
492.30	2562.89
492.48	2499.69
492.66	2469.27
492.84	2471.61
493.01	2387.35
493.19	2314.79
493.37	2363.94
493.54	2303.09
493.72	2298.41
493.90	2214.15
494.08	2214.15
494.25	2181.38
494.43	2244.57
494.61	2193.08
494.79	2118.18
494.96	2026.90
495.14	2111.16
495.32	2024.56
495.49	1980.09
495.67	1762.42
495.85	1837.32
496.02	1949.67
496.20	1874.77
496.38	1811.57
496.55	1741.36
496.73	1729.66
496.91	1703.91
497.09	1685.19
497.26	1699.23
497.44	1720.29
497.62	1668.80
497.79	1614.97
497.97	1502.62
498.14	1469.86
498.32	1465.18
498.50	1479.22
498.67	1437.09
498.85	1380.92
499.03	1390.28
499.20	1228.78
499.38	1273.25
499.56	1249.85
499.73	1327.08
499.91	1306.02
500.08	1177.29
500.26	1109.41
500.44	1062.60
500.61	1083.67
500.79	1008.77
500.97	1074.31
501.14	1067.28
501.32	882.38
501.49	903.45
501.67	896.43
501.84	929.19
502.02	784.08
502.20	919.83
502.37	830.89
502.55	807.48
502.72	851.96
502.90	793.44
503.07	774.72
503.25	800.46
503.43	697.48
503.60	711.52
503.78	772.38
503.95	737.27
504.13	641.31
504.30	622.58
504.48	741.95
504.65	554.71
504.83	711.52
505.01	711.52
505.18	622.58
505.36	594.50
505.53	627.26
505.71	667.05
505.88	631.94
506.06	587.47
506.23	547.69
506.41	484.49
506.58	479.81
506.76	580.45
506.93	575.77
507.11	428.32
507.28	484.49
507.46	465.77
507.63	498.53
507.81	486.83
507.98	489.17
508.16	444.70
508.33	617.90
508.50	571.09
508.68	547.69
508.85	547.69
509.03	463.43
509.20	601.52
509.38	517.26
509.55	603.86
509.73	470.45
509.90	543.00
510.08	507.90
510.25	500.87
510.42	472.79
510.60	482.15
510.77	465.77
510.95	472.79
511.12	379.17
511.30	528.96
511.47	428.32
511.64	561.73
511.82	409.59
511.99	418.96
512.17	475.13
512.34	547.69
512.51	475.13
512.69	372.15
512.86	486.83
513.04	475.13
513.21	428.32
513.38	421.30
513.56	465.77
513.73	425.98
513.90	433.00
514.08	454.06
514.25	442.36
514.43	395.55
514.60	397.89
514.77	444.70
514.95	402.57
515.12	463.43
515.29	362.78
515.47	465.77
515.64	444.70
515.81	409.59
515.99	475.13
516.16	491.51
516.33	482.15
516.51	472.79
516.68	386.19
516.85	442.36
517.03	435.34
517.20	344.06
517.37	479.81
517.54	395.55
517.72	388.53
517.89	299.59
518.06	320.65
518.24	437.68
518.41	416.62
518.58	400.23
518.75	386.19
518.93	409.59
519.10	404.91
519.27	414.27
519.45	404.91
519.62	430.66
519.79	365.12
519.96	489.17
520.14	418.96
520.31	390.87
520.48	381.51
520.65	454.06
520.83	442.36
521.00	470.45
521.17	397.89
521.34	337.04
521.52	290.23
521.69	355.76
521.86	411.93
522.03	395.55
522.20	414.27
522.38	465.77
522.55	337.04
522.72	320.65
522.89	322.99
523.07	430.66
523.24	435.34
523.41	388.53
523.58	369.80
523.75	346.40
523.92	365.12
524.10	334.70
524.27	383.85
524.44	369.80
524.61	447.04
524.78	388.53
524.96	411.93
525.13	470.45
525.30	463.43
525.47	468.11
525.64	435.34
525.81	421.30
525.98	510.24
526.16	423.64
526.33	404.91
526.50	428.32
526.67	397.89
526.84	407.25
527.01	454.06
527.18	566.41
527.36	566.41
527.53	554.71
527.70	554.71
527.87	489.17
528.04	550.03
528.21	503.22
528.38	601.52
528.55	550.03
528.72	491.51
528.89	468.11
529.07	507.90
529.24	531.30
529.41	533.64
529.58	557.05
529.75	550.03
529.92	528.96
530.09	599.18
530.26	533.64
530.43	557.05
530.60	627.26
530.77	638.97
530.94	559.39
531.11	580.45
531.28	704.50
531.46	615.56
531.63	688.12
531.80	704.50
531.97	751.31
532.14	901.11
532.31	1048.56
532.48	1198.35
532.65	1282.61
532.82	1453.47
532.99	1888.81
533.16	2080.74
533.33	2296.07
533.50	2132.23
533.67	1851.36
533.84	1540.07
534.01	1420.71
534.18	1322.40
534.35	1259.21
534.52	1212.40
534.69	1348.15
534.86	1308.36
535.03	1317.72
535.20	1355.17
535.37	1591.56
535.54	1666.46
535.71	1739.02
535.88	1734.34
536.05	1900.52
536.22	2127.55
536.38	2235.21
536.55	2506.71
536.72	2792.26
536.89	3000.57
537.06	3454.63
537.23	3714.43
537.40	3995.29
537.57	4482.13
537.74	4678.73
537.91	4751.29
538.08	5036.83
538.25	5060.24
538.42	5093.01
538.59	5158.54
538.75	5369.19
538.92	5661.76
539.09	6087.73
539.26	6911.60
539.43	7707.38
539.60	8739.56
539.77	9790.46
539.94	11026.26
540.11	12046.74
540.28	13437.02
540.44	15220.50
540.61	16346.30
540.78	18321.71
540.95	22214.02
541.12	26761.69
541.29	30586.12
541.46	31859.37
541.62	31557.44
541.79	30375.47
541.96	28294.74
542.13	26288.90
542.30	24484.34
542.47	22820.22
542.63	21600.80
542.80	20919.71
542.97	20697.36
543.14	20587.35
543.31	20397.77
543.48	20500.75
543.64	21022.69
543.81	21481.44
543.98	21378.45
544.15	21806.77
544.32	21750.60
544.48	21647.61
544.65	21671.02
544.82	21448.67
544.99	21649.96
545.16	22073.59
545.32	23040.23
545.49	35229.74
545.66	57755.06
545.83	65535.00
546.00	63416.82
546.16	50724.09
546.33	38539.26
546.50	28706.67
546.67	22185.94
546.83	19878.17
547.00	18712.58
547.17	17844.24
547.34	17088.25
547.50	16074.80
547.67	15590.31
547.84	15021.56
548.00	14651.75
548.17	14171.94
548.34	13612.56
548.51	12879.97
548.67	12580.38
548.84	11578.63
549.01	11377.34
549.18	10607.31
549.34	10106.43
549.51	9816.21
549.68	9689.82
549.84	9165.54
550.01	8547.64
550.18	8383.80
550.34	8065.49
550.51	7573.97
550.68	7183.10
550.84	6768.83
551.01	6420.09
551.18	6045.60
551.34	5888.79
551.51	5692.18
551.68	5465.15
551.84	5116.41
552.01	4884.70
552.18	4683.41
552.34	4610.86
552.51	4416.59
552.68	4126.36
552.84	3990.61
553.01	3889.97
553.18	3698.05
553.34	3667.62
553.51	3681.66
553.67	3585.70
553.84	3325.90
554.01	3143.34
554.17	2834.39
554.34	2700.98
554.51	2450.54
554.67	2394.37
554.84	2256.28
555.00	2162.66
555.17	2024.56
555.33	2005.84
555.50	1879.45
555.67	1741.36
555.83	1607.95
556.00	1629.01
556.16	1678.16
556.33	1493.26
556.50	1453.47
556.66	1455.81
556.83	1474.54
556.99	1324.74
557.16	1378.58
557.32	1301.34
557.49	1196.01
557.65	1167.93
557.82	1160.91
557.98	1149.20
558.15	1142.18
558.32	1198.35
558.48	1100.05
558.65	1102.39
558.81	1060.26
558.98	943.24
559.14	1053.24
559.31	915.15
559.47	898.77
559.64	945.58
559.80	912.81
559.97	971.32
560.13	933.87
560.30	842.59
560.46	851.96
560.63	779.40
560.79	830.89
560.96	847.27
561.12	877.70
561.29	896.43
561.45	884.72
561.61	786.42
561.78	940.90
561.94	898.77
562.11	840.25
562.27	870.68
562.44	973.66
562.60	800.46
562.77	933.87
562.93	961.96
563.10	882.38
563.26	830.89
563.42	877.70
563.59	697.48
563.75	699.82
563.92	760.67
564.08	823.87
564.24	772.38
564.41	816.85
564.57	704.50
564.74	734.93
564.90	774.72
565.07	758.33
565.23	718.54
565.39	671.73
565.56	631.94
565.72	671.73
565.88	650.67
566.05	655.35
566.21	697.48
566.38	657.69
566.54	638.97
566.70	716.20
566.87	655.35
567.03	653.01
567.19	692.80
567.36	727.91
567.52	645.99
567.68	744.29
567.85	765.36
568.01	718.54
568.17	734.93
568.34	678.76
568.50	737.27
568.66	683.44
568.83	802.80
568.99	641.31
569.15	603.86
569.32	631.94
569.48	655.35
569.64	592.16
569.81	596.84
569.97	601.52
570.13	578.11
570.30	526.62
570.46	543.00
570.62	526.62
570.78	458.74
570.95	477.47
571.11	547.69
571.27	528.96
571.43	468.11
571.60	454.06
571.76	468.11
571.92	564.07
572.09	470.45
572.25	503.22
572.41	559.39
572.57	552.37
572.74	589.82
572.90	528.96
573.06	589.82
573.22	578.11
573.38	557.05
573.55	580.45
573.71	561.73
573.87	547.69
574.03	540.66
574.20	683.44
574.36	627.26
574.52	674.07
574.68	711.52
574.84	622.58
575.01	685.78
575.17	739.61
575.33	727.91
575.49	730.25
575.65	870.68
575.82	1022.81
575.98	952.60
576.14	1137.50
576.30	2062.01
576.46	6555.84
576.62	13488.51
576.79	16868.24
576.95	12011.63
577.11	7243.96
577.27	5167.90
577.43	3527.19
577.59	2207.13
577.75	1734.34
577.92	1577.52
578.08	1542.41
578.24	1600.93
578.40	2415.43
578.56	6300.72
578.72	12681.02
578.88	15007.52
579.04	10927.96
579.21	7279.07
579.37	5497.92
579.53	3988.27
579.69	3721.45
579.85	4482.13
580.01	5469.83
580.17	5444.09
580.33	4760.65
580.49	3929.76
580.65	3435.91
580.82	3229.94
580.98	3012.27
581.14	3164.40
581.30	3199.51
581.46	3543.57
581.62	3943.80
581.78	4058.49
581.94	4374.46
582.10	4760.65
582.26	4882.36
582.42	5158.54
582.58	5345.78
582.74	5479.19
582.90	5383.23
583.06	5481.53
583.22	5504.94
583.38	5397.28
583.54	5474.51
583.70	5305.99
583.86	5242.80
584.02	5041.51
584.18	5160.88
584.34	5050.88
584.50	4957.25
584.66	4915.12
584.82	4678.73
584.98	4774.69
585.14	4578.09
585.30	4493.83
585.46	4526.60
585.62	4491.49
585.78	4603.83
585.94	4524.26
586.10	4552.34
586.26	5027.47
586.42	5495.58
586.58	6497.33
586.74	7908.67
586.90	9556.41
587.06	10602.63
587.22	10626.03
587.38	9472.15
587.54	8196.56
587.70	6965.43
587.86	5692.18
588.02	4894.06
588.18	4638.94
588.34	4063.17
588.49	3599.74
588.65	3321.22
588.81	3262.71
588.97	3218.24
589.13	2977.16
589.29	3007.59
589.45	2904.60
589.61	3007.59
589.77	3021.63
589.93	3038.02
590.08	3148.02
590.24	3166.74
590.40	3391.44
590.56	3473.36
590.72	3412.50
590.88	3410.16
591.04	3662.94
591.20	3913.38
591.35	4025.72
591.51	4074.87
591.67	4318.29
591.83	4573.41
591.99	4952.57
592.15	5331.74
592.31	5874.74
592.46	6291.36
592.62	6897.56
592.78	7339.92
592.94	7691.00
593.10	7550.57
593.26	7501.42
593.41	6740.74
593.57	6141.57
593.73	5350.46
593.89	4730.22
594.05	4173.18
594.20	3693.37
594.36	3463.99
594.52	3133.98
594.68	2918.65
594.84	3002.91
594.99	2773.53
595.15	2689.28
595.31	2740.77
595.47	2649.49
595.62	2663.53
595.78	2612.04
595.94	2588.63
596.10	2745.45
596.25	2754.81
596.41	2738.43
596.57	2527.78
596.73	2799.28
596.88	2560.55
597.04	2708.00
597.20	2658.85
597.36	2782.90
597.51	2792.26
597.67	2869.50
597.83	3101.21
597.99	3164.40
598.14	3475.70
598.30	3574.00
598.46	3641.87
598.61	4025.72
598.77	4184.88
598.93	4348.72
599.09	4526.60
599.24	4716.18
599.40	4468.08
599.56	4517.23
599.71	4271.48
599.87	3983.59
600.03	3777.62
600.18	3513.14
600.34	3337.60
600.50	3033.33
600.65	2857.79
600.81	2806.30
600.97	2555.86
601.12	2403.73
601.28	2223.51
601.44	2275.00
601.59	2003.50
601.75	1926.26
601.91	1886.47
602.06	1928.60
602.22	1926.26
602.37	1870.09
602.53	1781.15
602.69	1753.06
602.84	1727.32
603.00	1746.04
603.16	1860.73
603.31	1811.57
603.47	1830.30
603.62	1863.07
603.78	1877.11
603.94	1956.69
604.09	1947.33
604.25	1944.99
604.40	2043.29
604.56	2010.52
604.71	2036.27
604.87	2076.06
605.03	2197.76
605.18	2113.50
605.34	2319.47
605.49	2370.96
605.65	2408.41
605.80	2286.70
605.96	2579.27
606.12	2562.89
606.27	2736.09
606.43	2633.10
606.58	2848.43
606.74	3150.36
606.89	3201.85
607.05	3398.46
607.20	3459.31
607.36	3702.73
607.51	3915.72
607.67	4205.94
607.82	4402.55
607.98	4767.67
608.13	5081.30
608.29	5661.76
608.44	6059.65
608.60	6539.46
608.75	7157.36
608.91	7817.39
609.06	8613.17
609.22	9554.07
609.37	10399.00
609.53	11726.08
609.68	13408.93
609.84	15410.09
609.99	17823.18
610.15	21561.02
610.30	26801.47
610.46	33275.40
610.61	42497.11
610.76	52051.17
610.92	58145.93
611.07	61792.48
611.23	62770.83
611.38	61422.68
611.54	57993.79
611.69	53291.66
611.84	46705.39
612.00	39896.77
612.15	32882.19
612.31	28711.35
612.46	25570.35
612.62	23826.65
612.77	22068.91
612.92	21427.60
613.08	19955.41
613.23	18972.38
613.39	18052.55
613.54	17554.02
613.69	17551.68
613.85	16886.97
614.00	17053.14
614.15	16650.57
614.31	16409.50
614.46	16336.94
614.62	15669.89
614.77	15047.30
614.92	14017.47
615.08	12828.48
615.23	11969.50
615.38	11169.04
615.54	10045.58
615.69	9310.65
615.84	8526.57
616.00	7627.81
616.15	7206.51
616.30	6677.55
616.46	6406.05
616.61	5980.07
616.76	5607.92
616.92	5315.36
617.07	5128.11
617.22	4669.37
617.37	4568.73
617.53	4402.55
617.68	4224.67
617.83	4037.42
617.99	3913.38
618.14	3854.86
618.29	3712.09
618.45	3815.07
618.60	3623.15
618.75	3550.59
618.90	3400.80
619.06	3466.33
619.21	3480.38
619.36	3421.86
619.51	3454.63
619.67	3501.44
619.82	3410.16
619.97	3548.25
620.12	3578.68
620.28	3623.15
620.43	3674.64
620.58	3770.60
620.73	3756.56
620.89	3688.68
621.04	3515.48
621.19	3742.52
621.34	3618.47
621.49	3595.06
621.65	3468.67
621.80	3597.40
621.95	3644.21
622.10	3508.46
622.25	3566.98
622.41	3501.44
622.56	3726.13
622.71	3789.33
622.86	3887.63
623.01	3934.44
623.16	4070.19
623.32	4002.32
623.47	4203.60
623.62	4086.58
623.77	4014.02
623.92	4091.26
624.07	4016.36
624.23	3990.61
624.38	3950.82
624.53	3971.89
624.68	4109.98
624.83	4131.05
624.98	4084.23
625.13	4042.11
625.29	4081.89
625.44	4306.59
625.59	4131.05
625.74	4072.53
625.89	4161.47
626.04	4009.34
626.19	4126.36
626.34	4166.15
626.49	4212.96
626.65	4081.89
626.80	4121.68
626.95	4098.28
627.10	3992.95
627.25	3850.18
627.40	3782.31
627.55	3798.69
627.70	3658.26
627.85	3761.24
628.00	3637.19
628.15	3590.38
628.30	3592.72
628.45	3571.66
628.60	3578.68
628.76	3627.83
628.91	3646.55
629.06	3803.37
629.21	3861.88
629.36	3861.88
629.51	3988.27
629.66	4245.73
629.81	4538.30
629.96	4837.89
630.11	5301.31
630.26	6141.57
630.41	6670.53
630.56	7260.34
630.71	8067.83
630.86	8156.77
631.01	7808.03
631.16	7426.52
631.31	6745.42
631.46	5966.03
631.61	4634.26
631.76	4067.85
631.91	3386.76
632.06	2869.50
632.21	2495.01
632.36	2239.89
632.51	1846.68
632.66	1842.00
632.81	1706.25
632.96	1460.49
633.10	1556.46
633.25	1521.35
633.40	1441.77
633.55	1425.39
633.70	1261.55
633.85	1338.79
634.00	1083.67
634.15	1240.48
634.30	1181.97
634.45	1095.37
634.60	1156.22
634.75	1018.13
634.90	1034.52
635.05	1074.31
635.19	1032.18
635.34	1001.75
635.49	1057.92
635.64	971.32
635.79	922.17
635.94	1018.13
636.09	926.85
636.24	985.37
636.39	873.02
636.53	901.11
636.68	880.04
636.83	788.76
636.98	947.92
637.13	823.87
637.28	812.17
637.43	856.64
637.57	847.27
637.72	868.34
637.87	781.74
638.02	814.51
638.17	873.02
638.32	805.14
638.46	732.59
638.61	866.00
638.76	730.25
638.91	667.05
639.06	669.39
639.20	840.25
639.35	772.38
639.50	678.76
639.65	800.46
639.80	704.50
639.94	777.06
640.09	807.48
640.24	744.29
640.39	713.86
640.54	711.52
640.68	683.44
640.83	631.94
640.98	676.41
641.13	603.86
641.27	723.23
641.42	690.46
641.57	711.52
641.72	765.36
641.86	685.78
642.01	655.35
642.16	758.33
642.31	657.69
642.45	697.48
642.60	788.76
642.75	699.82
642.90	706.84
643.04	734.93
643.19	723.23
643.34	753.65
643.48	758.33
643.63	669.39
643.78	716.20
643.93	737.27
644.07	758.33
644.22	734.93
644.37	725.57
644.51	727.91
644.66	699.82
644.81	697.48
644.95	786.42
645.10	681.10
645.25	664.71
645.39	641.31
645.54	627.26
645.69	683.44
645.83	641.31
645.98	627.26
646.13	596.84
646.27	720.88
646.42	655.35
646.57	650.67
646.71	657.69
646.86	669.39
647.00	641.31
647.15	608.54
647.30	629.60
647.44	629.60
647.59	650.67
647.74	594.50
647.88	681.10
648.03	674.07
648.17	713.86
648.32	631.94
648.47	667.05
648.61	650.67
648.76	755.99
648.90	692.80
649.05	805.14
649.20	863.66
649.34	858.98
649.49	1025.15
649.63	1146.86
649.78	1301.34
649.92	1565.82
650.07	1952.01
650.21	2073.71
650.36	2157.97
650.51	2218.83
650.65	2094.78
650.80	1905.20
650.94	1732.00
651.09	1535.39
651.23	1490.92
651.38	1191.33
651.52	1128.14
651.67	1050.90
651.81	968.98
651.96	889.40
652.10	821.53
652.25	877.70
652.39	891.74
652.54	947.92
652.68	990.05
652.83	1100.05
652.97	1100.05
653.12	1053.24
653.26	1097.71
653.41	1116.44
653.55	959.62
653.70	877.70
653.84	882.38
653.99	800.46
654.13	770.04
654.27	744.29
654.42	669.39
654.56	655.35
654.71	767.70
654.85	706.84
655.00	662.37
655.14	704.50
655.29	702.16
655.43	706.84
655.57	669.39
655.72	641.31
655.86	674.07
656.01	641.31
656.15	566.41
656.30	564.07
656.44	622.58
656.58	592.16
656.73	613.22
656.87	727.91
657.01	699.82
657.16	674.07
657.30	748.97
657.45	681.10
657.59	786.42
657.73	737.27
657.88	854.30
658.02	880.04
658.16	692.80
658.31	671.73
658.45	603.86
658.60	580.45
658.74	594.50
658.88	465.77
659.03	580.45
659.17	500.87
659.31	407.25
659.46	442.36
659.60	430.66
659.74	559.39
659.89	493.85
660.03	435.34
660.17	587.47
660.32	510.24
660.46	514.92
660.60	468.11
660.74	468.11
660.89	521.94
661.03	491.51
661.17	521.94
661.32	580.45
661.46	674.07
661.60	819.19
661.74	908.13
661.89	1114.10
662.03	1210.06
662.17	1280.27
662.31	1383.26
662.46	1399.64
662.60	1256.87
662.74	1076.65
662.88	1081.33
663.03	877.70
663.17	774.72
663.31	746.63
663.45	674.07
663.60	723.23
663.74	653.01
663.88	627.26
664.02	592.16
664.17	475.13
664.31	589.82
664.45	564.07
664.59	505.56
664.73	451.72
664.88	543.00
665.02	449.38
665.16	395.55
665.30	514.92
665.44	444.70
665.59	477.47
665.73	482.15
665.87	484.49
666.01	507.90
666.15	461.09
666.29	440.02
666.44	451.72
666.58	603.86
666.72	411.93
666.86	458.74
667.00	514.92
667.14	477.47
667.28	468.11
667.43	388.53
667.57	491.51
667.71	465.77
667.85	425.98
667.99	425.98
668.13	433.00
668.27	409.59
668.41	470.45
668.56	416.62
668.70	528.96
668.84	454.06
668.98	472.79
669.12	407.25
669.26	397.89
669.40	512.58
669.54	435.34
669.68	386.19
669.82	386.19
669.96	414.27
670.10	376.83
670.25	489.17
670.39	437.68
670.53	374.49
670.67	416.62
670.81	341.72
670.95	388.53
671.09	337.04
671.23	451.72
671.37	400.23
671.51	472.79
671.65	430.66
671.79	334.70
671.93	440.02
672.07	437.68
672.21	449.38
672.35	332.36
672.49	344.06
672.63	372.15
672.77	355.76
672.91	341.72
673.05	320.65
673.19	351.08
673.33	264.48
673.47	400.23
673.61	362.78
673.75	355.76
673.89	327.68
674.03	400.23
674.17	400.23
674.31	327.68
674.45	390.87
674.59	388.53
674.73	285.55
674.87	315.97
675.01	313.63
675.15	353.42
675.29	447.04
675.43	351.08
675.56	337.04
675.70	386.19
675.84	297.25
675.98	332.36
676.12	280.86
676.26	388.53
676.40	322.99
676.54	369.80
676.68	318.31
676.82	306.61
676.96	273.84
677.10	290.23
677.23	301.93
677.37	280.86
677.51	290.23
677.65	503.22
677.79	353.42
677.93	327.68
678.07	334.70
678.21	304.27
678.34	365.12
678.48	355.76
678.62	360.44
678.76	435.34
678.90	332.36
679.04	311.29
679.18	362.78
679.31	327.68
679.45	388.53
679.59	409.59
679.73	360.44
679.87	344.06
680.00	442.36
680.14	379.17
680.28	334.70
680.42	337.04
680.56	374.49
680.70	400.23
680.83	407.25
680.97	379.17
681.11	325.33
681.25	461.09
681.39	322.99
681.52	395.55
681.66	402.57
681.80	330.02
681.94	330.02
682.07	374.49
682.21	327.68
682.35	315.97
682.49	334.70
682.62	344.06
682.76	315.97
682.90	365.12
683.04	390.87
683.17	337.04
683.31	271.50
683.45	360.44
683.59	411.93
683.72	365.12
683.86	285.55
684.00	304.27
684.13	369.80
684.27	306.61
684.41	264.48
684.55	351.08
684.68	325.33
684.82	301.93
684.96	313.63
685.09	306.61
685.23	252.78
685.37	297.25
685.50	339.38
685.64	397.89
685.78	311.29
685.91	365.12
686.05	393.21
686.19	395.55
686.32	416.62
686.46	451.72
686.60	383.85
686.73	622.58
686.87	636.63
687.01	554.71
687.14	660.03
687.28	660.03
687.42	844.93
687.55	791.10
687.69	767.70
687.82	770.04
687.96	807.48
688.10	746.63
688.23	683.44
688.37	634.29
688.50	674.07
688.64	587.47
688.78	486.83
688.91	524.28
689.05	386.19
689.18	344.06
689.32	397.89
689.46	414.27
689.59	348.74
689.73	374.49
689.86	280.86
690.00	285.55
690.13	259.80
690.27	299.59
690.41	271.50
690.54	304.27
690.68	367.46
690.81	355.76
690.95	362.78
691.08	308.95
691.22	238.73
691.35	196.60
691.49	194.26
691.62	154.48
691.76	215.33
691.89	334.70
692.03	189.58
692.16	224.69
692.30	273.84
692.43	313.63
692.57	255.12
692.70	259.80
692.84	276.18
692.97	273.84
693.11	369.80
693.24	395.55
693.38	528.96
693.51	552.37
693.65	587.47
693.78	578.11
693.92	528.96
694.05	540.66
694.19	503.22
694.32	301.93
694.45	327.68
694.59	299.59
694.72	264.48
694.86	252.78
694.99	250.44
695.13	269.16
695.26	276.18
695.39	229.37
695.53	215.33
695.66	177.88
695.80	215.33
695.93	227.03
696.07	166.18
696.20	210.65
696.33	217.67
696.47	266.82
696.60	287.89
696.73	280.86
696.87	271.50
697.00	205.97
697.14	229.37
697.27	234.05
697.40	238.73
697.54	259.80
697.67	173.20
697.80	203.63
697.94	196.60
698.07	189.58
698.21	215.33
698.34	161.50
698.47	180.22
698.61	168.52
698.74	184.90
698.87	227.03
699.01	175.54
699.14	156.82
699.27	152.13
699.40	271.50
699.54	177.88
699.67	147.45
699.80	170.86
699.94	177.88
700.07	184.90
700.20	142.77
700.34	229.37
700.47	175.54
700.60	107.66
700.73	168.52
700.87	220.01
701.00	180.22
701.13	198.95
701.26	234.05
701.40	243.42
701.53	128.73
701.66	156.82
701.79	217.67
701.93	287.89
702.06	231.71
702.19	126.39
702.32	243.42
702.46	191.92
702.59	161.50
702.72	227.03
702.85	276.18
702.99	208.31
703.12	245.76
703.25	245.76
703.38	210.65
703.51	311.29
703.65	241.08
703.78	278.52
703.91	299.59
704.04	327.68
704.17	238.73
704.31	224.69
704.44	301.93
704.57	269.16
704.70	346.40
704.83	311.29
704.96	358.10
705.10	362.78
705.23	379.17
>>>>>End Processed Spectral Data<<<<<
