SpectraSuite Data File
++++++++++++++++++++++++++++++++++++
Date: Fri Oct 04 11:41:56 GMT-05:00 2013
User: price-jones
Dark Spectrum Present: No
Reference Spectrum Present: No
Number of Sampled Component Spectra: 1
Spectrometers: USB2+H05261
Integration Time (usec): 100000 (USB2+H05261)
Spectra Averaged: 1 (USB2+H05261)
Boxcar Smoothing: 0 (USB2+H05261)
Correct for Electrical Dark: No (USB2+H05261)
Strobe/Lamp Enabled: No (USB2+H05261)
Correct for Detector Non-linearity: No (USB2+H05261)
Correct for Stray Light: No (USB2+H05261)
Number of Pixels in Processed Spectrum: 2048
>>>>>Begin Processed Spectral Data<<<<<
365.73	70.22
365.92	70.22
366.12	70.22
366.32	0.00
366.52	0.00
366.72	0.00
366.91	0.00
367.11	0.00
367.31	0.00
367.51	0.00
367.70	0.00
367.90	0.00
368.10	0.00
368.30	0.00
368.49	0.00
368.69	0.00
368.89	0.00
369.09	0.00
369.28	0.00
369.48	0.00
369.68	0.00
369.87	0.00
370.07	0.00
370.27	67.88
370.47	2.34
370.66	25.75
370.86	0.00
371.06	74.90
371.25	117.03
371.45	95.96
371.65	173.20
371.84	112.35
372.04	95.96
372.24	60.85
372.44	105.32
372.63	74.90
372.83	145.11
373.03	180.22
373.22	70.22
373.42	135.75
373.62	124.05
373.81	119.37
374.01	112.35
374.21	152.13
374.40	121.71
374.60	140.43
374.79	105.32
374.99	72.56
375.19	135.75
375.38	98.30
375.58	67.88
375.78	154.48
375.97	161.50
376.17	131.07
376.37	163.84
376.56	201.29
376.76	100.64
376.95	194.26
377.15	142.77
377.35	166.18
377.54	112.35
377.74	117.03
377.93	147.45
378.13	74.90
378.33	177.88
378.52	79.58
378.72	173.20
378.91	161.50
379.11	142.77
379.31	105.32
379.50	88.94
379.70	163.84
379.89	170.86
380.09	100.64
380.28	91.28
380.48	147.45
380.68	175.54
380.87	37.45
381.07	191.92
381.26	126.39
381.46	187.24
381.65	114.69
381.85	72.56
382.04	107.66
382.24	142.77
382.43	88.94
382.63	93.62
382.83	159.16
383.02	107.66
383.22	159.16
383.41	131.07
383.61	152.13
383.80	147.45
384.00	65.54
384.19	117.03
384.39	95.96
384.58	168.52
384.78	147.45
384.97	110.01
385.17	39.79
385.36	112.35
385.56	135.75
385.75	152.13
385.95	140.43
386.14	119.37
386.34	46.81
386.53	149.79
386.72	177.88
386.92	117.03
387.11	152.13
387.31	159.16
387.50	110.01
387.70	84.26
387.89	135.75
388.09	154.48
388.28	102.98
388.48	135.75
388.67	194.26
388.86	105.32
389.06	74.90
389.25	191.92
389.45	142.77
389.64	131.07
389.84	110.01
390.03	189.58
390.22	189.58
390.42	98.30
390.61	110.01
390.81	154.48
391.00	112.35
391.19	119.37
391.39	105.32
391.58	114.69
391.78	102.98
391.97	121.71
392.16	65.54
392.36	177.88
392.55	175.54
392.75	198.95
392.94	149.79
393.13	196.60
393.33	58.51
393.52	128.73
393.71	105.32
393.91	114.69
394.10	107.66
394.29	131.07
394.49	140.43
394.68	79.58
394.88	156.82
395.07	212.99
395.26	121.71
395.46	259.80
395.65	124.05
395.84	124.05
396.04	212.99
396.23	84.26
396.42	194.26
396.62	112.35
396.81	128.73
397.00	152.13
397.19	175.54
397.39	95.96
397.58	140.43
397.77	124.05
397.97	126.39
398.16	180.22
398.35	231.71
398.55	210.65
398.74	163.84
398.93	198.95
399.12	121.71
399.32	121.71
399.51	210.65
399.70	191.92
399.90	159.16
400.09	133.41
400.28	198.95
400.47	154.48
400.67	147.45
400.86	135.75
401.05	133.41
401.24	152.13
401.44	215.33
401.63	170.86
401.82	259.80
402.01	156.82
402.21	168.52
402.40	215.33
402.59	205.97
402.78	217.67
402.97	201.29
403.17	264.48
403.36	255.12
403.55	433.00
403.74	683.44
403.93	2253.94
404.13	5579.84
404.32	9111.71
404.51	9245.12
404.70	5774.10
404.89	2232.87
405.09	636.63
405.28	390.87
405.47	255.12
405.66	355.76
405.85	285.55
406.05	168.52
406.24	166.18
406.43	224.69
406.62	264.48
406.81	325.33
407.00	318.31
407.20	739.61
407.39	1118.78
407.58	1315.38
407.77	901.11
407.96	538.32
408.15	187.24
408.34	271.50
408.54	175.54
408.73	203.63
408.92	156.82
409.11	205.97
409.30	243.42
409.49	152.13
409.68	140.43
409.87	198.95
410.07	145.11
410.26	154.48
410.45	266.82
410.64	166.18
410.83	264.48
411.02	227.03
411.21	243.42
411.40	236.39
411.59	283.20
411.78	341.72
411.98	224.69
412.17	180.22
412.36	161.50
412.55	215.33
412.74	264.48
412.93	287.89
413.12	208.31
413.31	205.97
413.50	220.01
413.69	266.82
413.88	210.65
414.07	198.95
414.26	243.42
414.45	236.39
414.64	257.46
414.83	297.25
415.02	315.97
415.22	205.97
415.41	205.97
415.60	330.02
415.79	304.27
415.98	255.12
416.17	262.14
416.36	257.46
416.55	257.46
416.74	264.48
416.93	280.86
417.12	344.06
417.31	325.33
417.50	294.91
417.69	337.04
417.88	266.82
418.07	229.37
418.26	285.55
418.45	294.91
418.64	322.99
418.83	376.83
419.02	372.15
419.21	301.93
419.39	241.08
419.58	287.89
419.77	266.82
419.96	353.42
420.15	306.61
420.34	367.46
420.53	297.25
420.72	337.04
420.91	348.74
421.10	365.12
421.29	351.08
421.48	360.44
421.67	393.21
421.86	248.10
422.05	355.76
422.24	280.86
422.43	388.53
422.61	273.84
422.80	358.10
422.99	362.78
423.18	327.68
423.37	339.38
423.56	301.93
423.75	360.44
423.94	313.63
424.13	358.10
424.32	327.68
424.50	348.74
424.69	369.80
424.88	315.97
425.07	290.23
425.26	404.91
425.45	332.36
425.64	339.38
425.83	390.87
426.01	444.70
426.20	416.62
426.39	344.06
426.58	402.57
426.77	287.89
426.96	418.96
427.15	435.34
427.33	330.02
427.52	395.55
427.71	344.06
427.90	273.84
428.09	379.17
428.28	301.93
428.46	381.51
428.65	414.27
428.84	414.27
429.03	475.13
429.22	367.46
429.40	348.74
429.59	404.91
429.78	428.32
429.97	395.55
430.16	390.87
430.34	428.32
430.53	430.66
430.72	393.21
430.91	390.87
431.10	414.27
431.28	418.96
431.47	533.64
431.66	411.93
431.85	510.24
432.03	531.30
432.22	554.71
432.41	486.83
432.60	550.03
432.79	484.49
432.97	550.03
433.16	608.54
433.35	660.03
433.54	739.61
433.72	819.19
433.91	791.10
434.10	812.17
434.28	1034.52
434.47	1200.69
434.66	1338.79
434.85	1687.53
435.03	3829.12
435.22	13645.32
435.41	34756.96
435.59	46527.51
435.78	32027.89
435.97	15000.49
436.16	5647.71
436.34	1907.54
436.53	1151.54
436.72	889.40
436.90	807.48
437.09	779.40
437.28	641.31
437.46	638.97
437.65	643.65
437.84	613.22
438.02	573.43
438.21	503.22
438.40	571.09
438.58	568.75
438.77	575.77
438.96	545.34
439.14	554.71
439.33	585.13
439.52	554.71
439.70	606.20
439.89	568.75
440.08	580.45
440.26	603.86
440.45	568.75
440.63	573.43
440.82	533.64
441.01	550.03
441.19	517.26
441.38	489.17
441.57	561.73
441.75	561.73
441.94	543.00
442.12	505.56
442.31	587.47
442.50	575.77
442.68	528.96
442.87	519.60
443.05	568.75
443.24	645.99
443.43	643.65
443.61	545.34
443.80	559.39
443.98	528.96
444.17	599.18
444.35	496.19
444.54	514.92
444.73	554.71
444.91	608.54
445.10	596.84
445.28	561.73
445.47	596.84
445.65	578.11
445.84	456.40
446.02	615.56
446.21	561.73
446.39	493.85
446.58	540.66
446.77	505.56
446.95	437.68
447.14	517.26
447.32	547.69
447.51	634.29
447.69	559.39
447.88	550.03
448.06	547.69
448.25	566.41
448.43	589.82
448.62	514.92
448.80	580.45
448.99	557.05
449.17	505.56
449.36	531.30
449.54	622.58
449.73	554.71
449.91	550.03
450.10	528.96
450.28	608.54
450.46	653.01
450.65	615.56
450.83	573.43
451.02	603.86
451.20	521.94
451.39	505.56
451.57	587.47
451.76	507.90
451.94	550.03
452.13	594.50
452.31	622.58
452.49	528.96
452.68	491.51
452.86	615.56
453.05	519.60
453.23	540.66
453.42	461.09
453.60	554.71
453.78	594.50
453.97	552.37
454.15	550.03
454.34	552.37
454.52	557.05
454.70	547.69
454.89	564.07
455.07	447.04
455.26	608.54
455.44	519.60
455.62	505.56
455.81	463.43
455.99	507.90
456.17	521.94
456.36	559.39
456.54	608.54
456.73	484.49
456.91	580.45
457.09	629.60
457.28	561.73
457.46	559.39
457.64	592.16
457.83	568.75
458.01	507.90
458.19	491.51
458.38	507.90
458.56	578.11
458.74	559.39
458.93	447.04
459.11	519.60
459.29	479.81
459.48	550.03
459.66	503.22
459.84	514.92
460.03	631.94
460.21	538.32
460.39	571.09
460.57	564.07
460.76	493.85
460.94	491.51
461.12	540.66
461.31	559.39
461.49	496.19
461.67	538.32
461.85	489.17
462.04	547.69
462.22	952.60
462.40	528.96
462.59	650.67
462.77	512.58
462.95	545.34
463.13	531.30
463.32	472.79
463.50	533.64
463.68	456.40
463.86	477.47
464.05	543.00
464.23	557.05
464.41	535.98
464.59	585.13
464.78	594.50
464.96	531.30
465.14	486.83
465.32	500.87
465.50	526.62
465.69	538.32
465.87	461.09
466.05	484.49
466.23	507.90
466.41	575.77
466.60	545.34
466.78	617.90
466.96	617.90
467.14	559.39
467.32	540.66
467.51	547.69
467.69	472.79
467.87	517.26
468.05	531.30
468.23	442.36
468.41	425.98
468.60	505.56
468.78	456.40
468.96	475.13
469.14	596.84
469.32	477.47
469.50	456.40
469.69	451.72
469.87	531.30
470.05	538.32
470.23	411.93
470.41	491.51
470.59	496.19
470.77	519.60
470.95	571.09
471.14	433.00
471.32	442.36
471.50	543.00
471.68	505.56
471.86	573.43
472.04	540.66
472.22	524.28
472.40	531.30
472.58	482.15
472.77	526.62
472.95	482.15
473.13	554.71
473.31	521.94
473.49	468.11
473.67	451.72
473.85	524.28
474.03	550.03
474.21	526.62
474.39	500.87
474.57	472.79
474.75	472.79
474.93	435.34
475.12	428.32
475.30	444.70
475.48	524.28
475.66	505.56
475.84	524.28
476.02	535.98
476.20	454.06
476.38	444.70
476.56	561.73
476.74	552.37
476.92	465.77
477.10	479.81
477.28	545.34
477.46	557.05
477.64	571.09
477.82	564.07
478.00	505.56
478.18	641.31
478.36	575.77
478.54	610.88
478.72	608.54
478.90	674.07
479.08	704.50
479.26	620.24
479.44	622.58
479.62	681.10
479.80	695.14
479.98	711.52
480.16	706.84
480.34	793.44
480.52	688.12
480.70	812.17
480.88	805.14
481.06	917.49
481.24	912.81
481.41	992.39
481.59	1013.45
481.77	1170.27
481.95	1149.20
482.13	1247.51
482.31	1416.02
482.49	1390.28
482.67	1544.75
482.85	1483.90
483.03	1708.59
483.21	1820.94
483.39	2033.93
483.57	1961.37
483.74	2087.76
483.92	2200.10
484.10	2246.91
484.28	2548.84
484.46	2724.38
484.64	2839.07
484.82	2848.43
485.00	3000.57
485.18	3222.92
485.35	3412.50
485.53	3744.86
485.71	3754.22
485.89	3946.14
486.07	3960.19
486.25	4060.83
486.43	4100.62
486.61	4046.79
486.78	4037.42
486.96	4112.32
487.14	4131.05
487.32	4100.62
487.50	4039.76
487.68	4245.73
487.85	3999.98
488.03	3904.01
488.21	3840.82
488.39	3700.39
488.57	3866.56
488.75	3538.89
488.92	3810.39
489.10	3524.85
489.28	3459.31
489.46	3431.23
489.64	3323.56
489.81	3372.71
489.99	3218.24
490.17	3232.28
490.35	2972.48
490.53	2963.12
490.70	3054.40
490.88	2977.16
491.06	3246.32
491.24	3428.88
491.41	3599.74
491.59	3370.37
491.77	3232.28
491.95	2944.39
492.13	2949.08
492.30	2825.03
492.48	2750.13
492.66	2789.92
492.84	2677.57
493.01	2576.93
493.19	2623.74
493.37	2775.88
493.54	2532.46
493.72	2593.31
493.90	2506.71
494.08	2347.56
494.25	2455.22
494.43	2518.42
494.61	2296.07
494.79	2303.09
494.96	2237.55
495.14	2235.21
495.32	2188.40
495.49	2221.17
495.67	2118.18
495.85	2071.37
496.02	2024.56
496.20	2045.63
496.38	2085.42
496.55	1996.48
496.73	1937.96
496.91	1956.69
497.09	1816.26
497.26	1846.68
497.44	1706.25
497.62	1846.68
497.79	1830.30
497.97	1659.44
498.14	1717.95
498.32	1708.59
498.50	1638.38
498.67	1474.54
498.85	1453.47
499.03	1453.47
499.20	1366.87
499.38	1420.71
499.56	1406.66
499.73	1383.26
499.91	1275.59
500.08	1366.87
500.26	1198.35
500.44	1167.93
500.61	1219.42
500.79	1198.35
500.97	1135.16
501.14	1041.54
501.32	1041.54
501.49	1008.77
501.67	1011.11
501.84	887.06
502.02	968.98
502.20	924.51
502.37	912.81
502.55	861.32
502.72	905.79
502.90	833.23
503.07	802.80
503.25	812.17
503.43	809.83
503.60	753.65
503.78	786.42
503.95	741.95
504.13	723.23
504.30	788.76
504.48	763.01
504.65	664.71
504.83	718.54
505.01	643.65
505.18	688.12
505.36	624.92
505.53	657.69
505.71	641.31
505.88	704.50
506.06	603.86
506.23	580.45
506.41	566.41
506.58	538.32
506.76	613.22
506.93	592.16
507.11	559.39
507.28	435.34
507.46	526.62
507.63	594.50
507.81	550.03
507.98	552.37
508.16	582.79
508.33	491.51
508.50	521.94
508.68	655.35
508.85	608.54
509.03	610.88
509.20	610.88
509.38	599.18
509.55	528.96
509.73	582.79
509.90	531.30
510.08	519.60
510.25	407.25
510.42	482.15
510.60	550.03
510.77	484.49
510.95	573.43
511.12	512.58
511.30	468.11
511.47	547.69
511.64	554.71
511.82	510.24
511.99	543.00
512.17	491.51
512.34	472.79
512.51	470.45
512.69	477.47
512.86	601.52
513.04	489.17
513.21	550.03
513.38	383.85
513.56	433.00
513.73	442.36
513.90	423.64
514.08	454.06
514.25	468.11
514.43	451.72
514.60	447.04
514.77	407.25
514.95	437.68
515.12	447.04
515.29	477.47
515.47	423.64
515.64	435.34
515.81	421.30
515.99	503.22
516.16	500.87
516.33	606.20
516.51	388.53
516.68	411.93
516.85	440.02
517.03	416.62
517.20	475.13
517.37	332.36
517.54	435.34
517.72	379.17
517.89	404.91
518.06	395.55
518.24	484.49
518.41	470.45
518.58	463.43
518.75	379.17
518.93	458.74
519.10	442.36
519.27	550.03
519.45	428.32
519.62	402.57
519.79	400.23
519.96	451.72
520.14	463.43
520.31	404.91
520.48	447.04
520.65	337.04
520.83	409.59
521.00	374.49
521.17	442.36
521.34	397.89
521.52	397.89
521.69	386.19
521.86	425.98
522.03	376.83
522.20	369.80
522.38	407.25
522.55	388.53
522.72	442.36
522.89	395.55
523.07	456.40
523.24	416.62
523.41	465.77
523.58	428.32
523.75	379.17
523.92	381.51
524.10	374.49
524.27	402.57
524.44	409.59
524.61	482.15
524.78	360.44
524.96	421.30
525.13	437.68
525.30	395.55
525.47	550.03
525.64	442.36
525.81	517.26
525.98	454.06
526.16	465.77
526.33	393.21
526.50	444.70
526.67	423.64
526.84	428.32
527.01	496.19
527.18	479.81
527.36	505.56
527.53	554.71
527.70	578.11
527.87	463.43
528.04	592.16
528.21	561.73
528.38	559.39
528.55	559.39
528.72	550.03
528.89	524.28
529.07	512.58
529.24	592.16
529.41	634.29
529.58	573.43
529.75	507.90
529.92	580.45
530.09	571.09
530.26	631.94
530.43	603.86
530.60	566.41
530.77	660.03
530.94	674.07
531.11	667.05
531.28	678.76
531.46	770.04
531.63	755.99
531.80	716.20
531.97	828.55
532.14	1011.11
532.31	1029.84
532.48	1200.69
532.65	1570.50
532.82	1797.53
532.99	1961.37
533.16	2284.36
533.33	2607.36
533.50	2258.62
533.67	2054.99
533.84	1804.55
534.01	1607.95
534.18	1385.60
534.35	1315.38
534.52	1476.88
534.69	1413.68
534.86	1542.41
535.03	1577.52
535.20	1633.69
535.37	1860.73
535.54	1717.95
535.71	1863.07
535.88	1970.73
536.05	2069.03
536.22	2291.38
536.38	2464.58
536.55	2733.75
536.72	2946.73
536.89	3239.30
537.06	3714.43
537.23	4292.54
537.40	4585.11
537.57	4868.31
537.74	5210.03
537.91	5334.08
538.08	5570.48
538.25	5584.52
538.42	5774.10
538.59	5856.02
538.75	6010.50
538.92	6132.20
539.09	7021.61
539.26	7646.53
539.43	8613.17
539.60	9699.18
539.77	11077.76
539.94	12418.88
540.11	13460.42
540.28	15136.24
540.44	16936.12
540.61	18218.73
540.78	20683.31
540.95	24926.71
541.12	29996.31
541.29	34686.74
541.46	36304.05
541.62	36238.51
541.79	34689.08
541.96	32528.77
542.13	30099.29
542.30	28128.56
542.47	26295.92
542.63	24886.92
542.80	24240.93
542.97	23271.95
543.14	23232.16
543.31	23278.97
543.48	23157.26
543.64	23529.41
543.81	24259.65
543.98	24304.12
544.15	24350.93
544.32	24233.91
544.48	24837.76
544.65	24205.82
544.82	24271.36
544.99	23634.73
545.16	24603.71
545.32	25511.84
545.49	37207.50
545.66	59238.96
545.83	65535.00
546.00	65535.00
546.16	56774.37
546.33	42504.13
546.50	32074.70
546.67	24699.67
546.83	22136.79
547.00	20919.71
547.17	20175.42
547.34	19473.26
547.50	18462.15
547.67	17954.25
547.84	16952.50
548.00	16381.41
548.17	15943.73
548.34	14750.06
548.51	14595.58
548.67	13977.68
548.84	13121.04
549.01	12533.57
549.18	11885.24
549.34	11243.93
549.51	10942.00
549.68	10649.44
549.84	10312.40
550.01	9769.40
550.18	9418.32
550.34	8856.59
550.51	8524.23
550.68	8231.66
550.84	7765.90
551.01	7286.09
551.18	6942.03
551.34	6623.72
551.51	6434.13
551.68	6043.26
551.84	5827.93
552.01	5582.18
552.18	5364.51
552.34	5018.11
552.51	4884.70
552.68	4730.22
552.84	4444.68
553.01	4402.55
553.18	4128.70
553.34	4016.36
553.51	3964.87
553.67	3810.39
553.84	3702.73
554.01	3515.48
554.17	3197.17
554.34	2991.20
554.51	2810.98
554.67	2787.58
554.84	2539.48
555.00	2394.37
555.17	2279.68
555.33	2197.76
555.50	2071.37
555.67	2047.97
555.83	1811.57
556.00	1870.09
556.16	1830.30
556.33	1750.72
556.50	1624.33
556.66	1540.07
556.83	1572.84
556.99	1486.24
557.16	1504.96
557.32	1373.89
557.49	1439.43
557.65	1350.49
557.82	1345.81
557.98	1343.47
558.15	1231.12
558.32	1179.63
558.48	1186.65
558.65	1174.95
558.81	1081.33
558.98	1055.58
559.14	1151.54
559.31	1083.67
559.47	1139.84
559.64	947.92
559.80	1111.75
559.97	1027.50
560.13	1050.90
560.30	947.92
560.46	968.98
560.63	992.39
560.79	933.87
560.96	933.87
561.12	1001.75
561.29	1013.45
561.45	938.55
561.61	961.96
561.78	1100.05
561.94	1013.45
562.11	1067.28
562.27	997.07
562.44	985.37
562.60	924.51
562.77	873.02
562.93	1074.31
563.10	877.70
563.26	823.87
563.42	842.59
563.59	961.96
563.75	884.72
563.92	903.45
564.08	772.38
564.24	791.10
564.41	812.17
564.57	781.74
564.74	737.27
564.90	826.21
565.07	781.74
565.23	833.23
565.39	692.80
565.56	767.70
565.72	685.78
565.88	730.25
566.05	685.78
566.21	681.10
566.38	669.39
566.54	664.71
566.70	772.38
566.87	716.20
567.03	800.46
567.19	695.14
567.36	765.36
567.52	734.93
567.68	737.27
567.85	744.29
568.01	763.01
568.17	718.54
568.34	800.46
568.50	748.97
568.66	777.06
568.83	868.34
568.99	706.84
569.15	795.78
569.32	653.01
569.48	645.99
569.64	566.41
569.81	620.24
569.97	690.46
570.13	566.41
570.30	580.45
570.46	557.05
570.62	580.45
570.78	521.94
570.95	596.84
571.11	557.05
571.27	512.58
571.43	533.64
571.60	599.18
571.76	505.56
571.92	535.98
572.09	601.52
572.25	589.82
572.41	580.45
572.57	578.11
572.74	592.16
572.90	533.64
573.06	587.47
573.22	578.11
573.38	653.01
573.55	594.50
573.71	585.13
573.87	589.82
574.03	713.86
574.20	669.39
574.36	709.18
574.52	688.12
574.68	641.31
574.84	678.76
575.01	828.55
575.17	793.44
575.33	908.13
575.49	887.06
575.65	1020.47
575.82	1004.09
575.98	1111.75
576.14	1228.78
576.30	2125.21
576.46	6888.20
576.62	14677.50
576.79	19616.03
576.95	13593.83
577.11	8503.17
577.27	5647.71
577.43	3784.65
577.59	2443.52
577.75	1968.39
577.92	1724.97
578.08	1722.63
578.24	1741.36
578.40	2590.97
578.56	6855.43
578.72	13813.84
578.88	17659.34
579.04	12933.80
579.21	8327.63
579.37	5940.28
579.53	4748.95
579.69	4058.49
579.85	5116.41
580.01	6258.59
580.17	6188.38
580.33	5277.91
580.49	4421.27
580.65	3915.72
580.82	3616.13
580.98	3375.05
581.14	3545.91
581.30	3595.06
581.46	3913.38
581.62	4184.88
581.78	4610.86
581.94	5025.13
582.10	5214.71
582.26	5462.81
582.42	5802.19
582.58	6026.88
582.74	6026.88
582.90	5973.05
583.06	6157.95
583.22	6120.50
583.38	6167.31
583.54	6029.22
583.70	5961.34
583.86	5863.04
584.02	5970.71
584.18	5668.78
584.34	5771.76
584.50	5530.69
584.66	5518.98
584.82	5500.26
584.98	5408.98
585.14	5235.78
585.30	5149.18
585.46	5200.67
585.62	4915.12
585.78	5020.45
585.94	5078.96
586.10	5263.86
586.26	5540.05
586.42	6225.82
586.58	7124.59
586.74	8854.25
586.90	10679.86
587.06	12065.46
587.22	12205.89
587.38	11037.97
587.54	9568.11
587.70	7962.50
587.86	6698.61
588.02	5589.20
588.18	5048.54
588.34	4437.66
588.49	3976.57
588.65	3859.54
588.81	3761.24
588.97	3426.54
589.13	3475.70
589.29	3456.97
589.45	3288.45
589.61	3232.28
589.77	3365.69
589.93	3480.38
590.08	3513.14
590.24	3545.91
590.40	3782.31
590.56	3871.25
590.72	3768.26
590.88	3976.57
591.04	4210.62
591.20	4339.35
591.35	4472.76
591.51	4491.49
591.67	4711.50
591.83	5149.18
591.99	5404.30
592.15	5909.85
592.31	6506.69
592.46	7082.46
592.62	7662.91
592.78	8191.88
592.94	8519.55
593.10	8624.87
593.26	8341.67
593.41	7590.36
593.57	6869.47
593.73	6225.82
593.89	5544.73
594.05	4737.24
594.20	4224.67
594.36	4035.08
594.52	3630.17
594.68	3440.59
594.84	3330.58
594.99	3131.64
595.15	3141.00
595.31	2935.03
595.47	3159.72
595.62	3084.83
595.78	2970.14
595.94	2984.18
596.10	3073.12
596.25	3171.43
596.41	3042.70
596.57	2986.52
596.73	2951.42
596.88	2923.33
597.04	3075.46
597.20	2937.37
597.36	3030.99
597.51	3143.34
597.67	3283.77
597.83	3382.07
597.99	3686.34
598.14	3896.99
598.30	4030.40
598.46	4259.78
598.61	4341.69
598.77	4690.43
598.93	5022.79
599.09	5062.58
599.24	5256.84
599.40	4975.98
599.56	4842.57
599.71	4816.82
599.87	4601.49
600.03	4472.76
600.18	4058.49
600.34	3866.56
600.50	3531.87
600.65	3304.84
600.81	3162.06
600.97	2860.13
601.12	2738.43
601.28	2722.04
601.44	2431.82
601.59	2284.36
601.75	2289.04
601.91	2289.04
602.06	2038.61
602.22	2111.16
602.37	2085.42
602.53	2076.06
602.69	1961.37
602.84	1975.41
603.00	1952.01
603.16	1975.41
603.31	2003.50
603.47	2036.27
603.62	2153.29
603.78	2174.36
603.94	2125.21
604.09	2155.63
604.25	2305.43
604.40	2305.43
604.56	2246.91
604.71	2328.83
604.87	2385.01
605.03	2441.18
605.18	2513.74
605.34	2511.39
605.49	2621.40
605.65	2499.69
605.80	2712.68
605.96	2815.66
606.12	2888.22
606.27	2981.84
606.43	3108.23
606.58	3251.00
606.74	3332.92
606.89	3672.30
607.05	3756.56
607.20	4018.70
607.36	4152.11
607.51	4449.36
607.67	4830.87
607.82	5060.24
607.98	5476.85
608.13	5806.87
608.29	6179.01
608.44	6867.13
608.60	7499.08
608.75	8238.69
608.91	8723.18
609.06	9853.66
609.22	10843.70
609.37	11726.08
609.53	13523.62
609.68	14883.47
609.84	17348.05
609.99	20334.57
610.15	24093.47
610.30	29322.23
610.46	36694.92
610.61	47019.02
610.76	55634.53
610.92	61509.28
611.07	65125.41
611.23	65535.00
611.38	64416.22
611.54	61497.58
611.69	57059.92
611.84	51613.49
612.00	44446.77
612.15	37663.90
612.31	32664.52
612.46	29139.67
612.62	26757.00
612.77	25509.50
612.92	24121.56
613.08	22448.08
613.23	21575.06
613.39	20702.04
613.54	19798.59
613.69	19452.19
613.85	19206.44
614.00	19346.87
614.15	19131.54
614.31	19185.37
614.46	18728.97
614.62	17888.71
614.77	17369.12
614.92	16208.21
615.08	14658.78
615.23	14008.11
615.38	12575.70
615.54	11159.67
615.69	10518.37
615.84	9900.47
616.00	9165.54
616.15	8241.03
616.30	7672.28
616.46	7293.11
616.61	6773.51
616.76	6480.94
616.92	6054.97
617.07	5858.36
617.22	5401.96
617.37	5261.52
617.53	5128.11
617.68	4851.93
617.83	4662.35
617.99	4561.70
618.14	4411.91
618.29	4379.14
618.45	4126.36
618.60	4201.26
618.75	3904.01
618.90	3887.63
619.06	3861.88
619.21	3885.29
619.36	3887.63
619.51	3815.07
619.67	3728.47
619.82	4072.53
619.97	3978.91
620.12	4072.53
620.28	4084.23
620.43	4063.17
620.58	4255.09
620.73	4227.01
620.89	4315.95
621.04	4386.16
621.19	4252.75
621.34	4077.21
621.49	4016.36
621.65	4198.92
621.80	4030.40
621.95	3976.57
622.10	4196.58
622.25	4021.04
622.41	4088.92
622.56	4187.22
622.71	4360.42
622.86	4383.82
623.01	4418.93
623.16	4582.77
623.32	4657.67
623.47	4627.24
623.62	4505.53
623.77	4547.66
623.92	4596.81
624.07	4594.47
624.23	4648.30
624.38	4734.90
624.53	4596.81
624.68	4629.58
624.83	4685.75
624.98	4713.84
625.13	4631.92
625.29	4594.47
625.44	4805.12
625.59	4723.20
625.74	4723.20
625.89	4650.64
626.04	4685.75
626.19	4681.07
626.34	4587.45
626.49	4641.28
626.65	4545.32
626.80	4662.35
626.95	4533.62
627.10	4489.15
627.25	4432.97
627.40	4332.33
627.55	4531.28
627.70	4198.92
627.85	4245.73
628.00	4173.18
628.15	4215.30
628.30	4039.76
628.45	4161.47
628.60	4079.55
628.76	4177.86
628.91	4180.20
629.06	4149.77
629.21	4423.61
629.36	4582.77
629.51	4479.79
629.66	4830.87
629.81	5132.79
629.96	5598.56
630.11	6179.01
630.26	6927.99
630.41	7698.02
630.56	8318.26
630.71	9282.56
630.86	9521.30
631.01	9455.76
631.16	8704.45
631.31	7744.83
631.46	6569.88
631.61	5596.22
631.76	4690.43
631.91	3934.44
632.06	3386.76
632.21	2913.97
632.36	2490.33
632.51	2303.09
632.66	2050.31
632.81	1895.83
632.96	1724.97
633.10	1682.85
633.25	1638.38
633.40	1521.35
633.55	1434.75
633.70	1303.68
633.85	1362.19
634.00	1259.21
634.15	1280.27
634.30	1224.10
634.45	1261.55
634.60	1214.74
634.75	1196.01
634.90	1235.80
635.05	1203.04
635.19	1188.99
635.34	1174.95
635.49	1093.03
635.64	1132.82
635.79	1090.69
635.94	1107.07
636.09	980.68
636.24	980.68
636.39	978.34
636.53	1013.45
636.68	1022.81
636.83	1067.28
636.98	950.26
637.13	875.36
637.28	933.87
637.43	1006.43
637.57	887.06
637.72	936.21
637.87	887.06
638.02	854.30
638.17	889.40
638.32	809.83
638.46	814.51
638.61	959.62
638.76	786.42
638.91	844.93
639.06	866.00
639.20	849.61
639.35	807.48
639.50	910.47
639.65	760.67
639.80	819.19
639.94	737.27
640.09	814.51
640.24	826.21
640.39	844.93
640.54	723.23
640.68	748.97
640.83	781.74
640.98	805.14
641.13	723.23
641.27	765.36
641.42	772.38
641.57	767.70
641.72	697.48
641.86	784.08
642.01	781.74
642.16	760.67
642.31	795.78
642.45	821.53
642.60	760.67
642.75	765.36
642.90	793.44
643.04	800.46
643.19	826.21
643.34	767.70
643.48	737.27
643.63	887.06
643.78	821.53
643.93	774.72
644.07	791.10
644.22	772.38
644.37	744.29
644.51	784.08
644.66	795.78
644.81	809.83
644.95	887.06
645.10	746.63
645.25	741.95
645.39	765.36
645.54	748.97
645.69	770.04
645.83	706.84
645.98	866.00
646.13	690.46
646.27	786.42
646.42	727.91
646.57	739.61
646.71	688.12
646.86	706.84
647.00	688.12
647.15	746.63
647.30	725.57
647.44	770.04
647.59	753.65
647.74	774.72
647.88	727.91
648.03	774.72
648.17	786.42
648.32	798.12
648.47	770.04
648.61	765.36
648.76	788.76
648.90	873.02
649.05	873.02
649.20	837.91
649.34	905.79
649.49	1088.35
649.63	1247.51
649.78	1404.32
649.92	1703.91
650.07	2153.29
650.21	2279.68
650.36	2476.29
650.51	2476.29
650.65	2317.13
650.80	2160.31
650.94	1914.56
651.09	1652.42
651.23	1490.92
651.38	1448.79
651.52	1322.40
651.67	1151.54
651.81	1062.60
651.96	992.39
652.10	985.37
652.25	987.71
652.39	1027.50
652.54	1118.78
652.68	1193.67
652.83	1261.55
652.97	1139.84
653.12	1205.38
653.26	1261.55
653.41	1151.54
653.55	1118.78
653.70	908.13
653.84	1029.84
653.99	919.83
654.13	931.53
654.27	830.89
654.42	889.40
654.56	781.74
654.71	858.98
654.85	772.38
655.00	671.73
655.14	716.20
655.29	737.27
655.43	669.39
655.57	678.76
655.72	613.22
655.86	746.63
656.01	772.38
656.15	690.46
656.30	713.86
656.44	688.12
656.58	629.60
656.73	723.23
656.87	655.35
657.01	772.38
657.16	720.88
657.30	767.70
657.45	922.17
657.59	856.64
657.73	875.36
657.88	777.06
658.02	936.21
658.16	748.97
658.31	690.46
658.45	734.93
658.60	653.01
658.74	571.09
658.88	545.34
659.03	667.05
659.17	547.69
659.31	557.05
659.46	564.07
659.60	524.28
659.74	559.39
659.89	615.56
660.03	496.19
660.17	512.58
660.32	528.96
660.46	578.11
660.60	461.09
660.74	514.92
660.89	531.30
661.03	557.05
661.17	557.05
661.32	585.13
661.46	695.14
661.60	877.70
661.74	931.53
661.89	1184.31
662.03	1263.89
662.17	1542.41
662.31	1659.44
662.46	1586.88
662.60	1453.47
662.74	1261.55
662.88	1205.38
663.03	950.26
663.17	985.37
663.31	861.32
663.45	910.47
663.60	713.86
663.74	788.76
663.88	697.48
664.02	793.44
664.17	655.35
664.31	638.97
664.45	559.39
664.59	603.86
664.73	564.07
664.88	573.43
665.02	435.34
665.16	482.15
665.30	585.13
665.44	540.66
665.59	440.02
665.73	571.09
665.87	507.90
666.01	489.17
666.15	463.43
666.29	592.16
666.44	592.16
666.58	571.09
666.72	514.92
666.86	519.60
667.00	498.53
667.14	454.06
667.28	428.32
667.43	533.64
667.57	477.47
667.71	465.77
667.85	493.85
667.99	482.15
668.13	519.60
668.27	526.62
668.41	440.02
668.56	566.41
668.70	493.85
668.84	484.49
668.98	449.38
669.12	496.19
669.26	498.53
669.40	561.73
669.54	451.72
669.68	484.49
669.82	400.23
669.96	486.83
670.10	418.96
670.25	437.68
670.39	423.64
670.53	386.19
670.67	514.92
670.81	440.02
670.95	477.47
671.09	400.23
671.23	500.87
671.37	479.81
671.51	451.72
671.65	486.83
671.79	479.81
671.93	468.11
672.07	514.92
672.21	477.47
672.35	486.83
672.49	348.74
672.63	433.00
672.77	395.55
672.91	425.98
673.05	421.30
673.19	344.06
673.33	400.23
673.47	423.64
673.61	414.27
673.75	451.72
673.89	388.53
674.03	411.93
674.17	395.55
674.31	339.38
674.45	351.08
674.59	362.78
674.73	400.23
674.87	311.29
675.01	369.80
675.15	308.95
675.29	421.30
675.43	409.59
675.56	433.00
675.70	355.76
675.84	313.63
675.98	379.17
676.12	330.02
676.26	315.97
676.40	369.80
676.54	379.17
676.68	383.85
676.82	365.12
676.96	339.38
677.10	306.61
677.23	365.12
677.37	273.84
677.51	285.55
677.65	348.74
677.79	334.70
677.93	351.08
678.07	290.23
678.21	395.55
678.34	372.15
678.48	362.78
678.62	400.23
678.76	362.78
678.90	418.96
679.04	395.55
679.18	344.06
679.31	290.23
679.45	318.31
679.59	353.42
679.73	379.17
679.87	372.15
680.00	330.02
680.14	404.91
680.28	447.04
680.42	367.46
680.56	423.64
680.70	433.00
680.83	362.78
680.97	411.93
681.11	510.24
681.25	496.19
681.39	362.78
681.52	383.85
681.66	393.21
681.80	388.53
681.94	325.33
682.07	269.16
682.21	372.15
682.35	397.89
682.49	348.74
682.62	334.70
682.76	301.93
682.90	299.59
683.04	376.83
683.17	332.36
683.31	365.12
683.45	334.70
683.59	365.12
683.72	437.68
683.86	372.15
684.00	322.99
684.13	358.10
684.27	304.27
684.41	355.76
684.55	397.89
684.68	353.42
684.82	250.44
684.96	358.10
685.09	276.18
685.23	294.91
685.37	308.95
685.50	386.19
685.64	489.17
685.78	404.91
685.91	400.23
686.05	472.79
686.19	447.04
686.32	454.06
686.46	430.66
686.60	514.92
686.73	589.82
686.87	613.22
687.01	592.16
687.14	788.76
687.28	699.82
687.42	851.96
687.55	912.81
687.69	903.45
687.82	800.46
687.96	847.27
688.10	858.98
688.23	828.55
688.37	751.31
688.50	737.27
688.64	643.65
688.78	557.05
688.91	470.45
689.05	554.71
689.18	463.43
689.32	383.85
689.46	435.34
689.59	379.17
689.73	367.46
689.86	294.91
690.00	365.12
690.13	259.80
690.27	367.46
690.41	248.10
690.54	381.51
690.68	428.32
690.81	437.68
690.95	421.30
691.08	344.06
691.22	271.50
691.35	276.18
691.49	248.10
691.62	220.01
691.76	173.20
691.89	248.10
692.03	194.26
692.16	220.01
692.30	313.63
692.43	280.86
692.57	290.23
692.70	304.27
692.84	355.76
692.97	280.86
693.11	315.97
693.24	500.87
693.38	531.30
693.51	713.86
693.65	760.67
693.78	718.54
693.92	718.54
694.05	650.67
694.19	547.69
694.32	512.58
694.45	404.91
694.59	332.36
694.72	301.93
694.86	334.70
694.99	280.86
695.13	241.08
695.26	264.48
695.39	220.01
695.53	255.12
695.66	224.69
695.80	191.92
695.93	250.44
696.07	222.35
696.20	203.63
696.33	210.65
696.47	297.25
696.60	264.48
696.73	273.84
696.87	205.97
697.00	278.52
697.14	210.65
697.27	266.82
697.40	283.20
697.54	110.01
697.67	184.90
697.80	180.22
697.94	187.24
698.07	224.69
698.21	191.92
698.34	140.43
698.47	119.37
698.61	217.67
698.74	198.95
698.87	194.26
699.01	198.95
699.14	184.90
699.27	170.86
699.40	245.76
699.54	170.86
699.67	173.20
699.80	175.54
699.94	259.80
700.07	224.69
700.20	210.65
700.34	224.69
700.47	205.97
700.60	180.22
700.73	271.50
700.87	212.99
701.00	119.37
701.13	210.65
701.26	245.76
701.40	201.29
701.53	191.92
701.66	126.39
701.79	191.92
701.93	166.18
702.06	255.12
702.19	203.63
702.32	243.42
702.46	128.73
702.59	262.14
702.72	231.71
702.85	208.31
702.99	152.13
703.12	283.20
703.25	227.03
703.38	283.20
703.51	266.82
703.65	262.14
703.78	262.14
703.91	290.23
704.04	395.55
704.17	351.08
704.31	325.33
704.44	287.89
704.57	257.46
704.70	344.06
704.83	397.89
704.96	351.08
705.10	395.55
705.23	400.23
>>>>>End Processed Spectral Data<<<<<
