SpectraSuite Data File
++++++++++++++++++++++++++++++++++++
Date: Fri Oct 04 11:41:57 GMT-05:00 2013
User: price-jones
Dark Spectrum Present: No
Reference Spectrum Present: No
Number of Sampled Component Spectra: 1
Spectrometers: USB2+H05261
Integration Time (usec): 100000 (USB2+H05261)
Spectra Averaged: 1 (USB2+H05261)
Boxcar Smoothing: 0 (USB2+H05261)
Correct for Electrical Dark: No (USB2+H05261)
Strobe/Lamp Enabled: No (USB2+H05261)
Correct for Detector Non-linearity: No (USB2+H05261)
Correct for Stray Light: No (USB2+H05261)
Number of Pixels in Processed Spectrum: 2048
>>>>>Begin Processed Spectral Data<<<<<
365.73	30.43
365.92	30.43
366.12	30.43
366.32	0.00
366.52	32.77
366.72	0.00
366.91	0.00
367.11	0.00
367.31	0.00
367.51	0.00
367.70	7.02
367.90	0.00
368.10	0.00
368.30	0.00
368.49	0.00
368.69	0.00
368.89	0.00
369.09	0.00
369.28	0.00
369.48	0.00
369.68	0.00
369.87	77.24
370.07	0.00
370.27	100.64
370.47	37.45
370.66	42.13
370.86	65.54
371.06	84.26
371.25	35.11
371.45	28.09
371.65	105.32
371.84	58.51
372.04	63.19
372.24	121.71
372.44	44.47
372.63	79.58
372.83	142.77
373.03	98.30
373.22	53.83
373.42	67.88
373.62	74.90
373.81	86.60
374.01	182.56
374.21	102.98
374.40	53.83
374.60	126.39
374.79	95.96
374.99	100.64
375.19	177.88
375.38	168.52
375.58	210.65
375.78	138.09
375.97	156.82
376.17	187.24
376.37	98.30
376.56	135.75
376.76	65.54
376.95	112.35
377.15	102.98
377.35	119.37
377.54	79.58
377.74	98.30
377.93	147.45
378.13	138.09
378.33	173.20
378.52	112.35
378.72	159.16
378.91	138.09
379.11	156.82
379.31	180.22
379.50	79.58
379.70	102.98
379.89	142.77
380.09	112.35
380.28	147.45
380.48	175.54
380.68	131.07
380.87	173.20
381.07	84.26
381.26	159.16
381.46	145.11
381.65	149.79
381.85	189.58
382.04	138.09
382.24	107.66
382.43	168.52
382.63	149.79
382.83	117.03
383.02	121.71
383.22	126.39
383.41	77.24
383.61	145.11
383.80	58.51
384.00	28.09
384.19	121.71
384.39	98.30
384.58	53.83
384.78	112.35
384.97	79.58
385.17	74.90
385.36	126.39
385.56	198.95
385.75	112.35
385.95	175.54
386.14	140.43
386.34	126.39
386.53	142.77
386.72	35.11
386.92	156.82
387.11	35.11
387.31	131.07
387.50	44.47
387.70	112.35
387.89	145.11
388.09	110.01
388.28	93.62
388.48	84.26
388.67	86.60
388.86	133.41
389.06	74.90
389.25	112.35
389.45	182.56
389.64	51.49
389.84	173.20
390.03	142.77
390.22	135.75
390.42	110.01
390.61	30.43
390.81	131.07
391.00	124.05
391.19	187.24
391.39	142.77
391.58	175.54
391.78	72.56
391.97	161.50
392.16	159.16
392.36	138.09
392.55	177.88
392.75	100.64
392.94	105.32
393.13	168.52
393.33	100.64
393.52	95.96
393.71	124.05
393.91	102.98
394.10	161.50
394.29	114.69
394.49	138.09
394.68	9.36
394.88	114.69
395.07	175.54
395.26	140.43
395.46	121.71
395.65	121.71
395.84	126.39
396.04	177.88
396.23	152.13
396.42	177.88
396.62	133.41
396.81	114.69
397.00	60.85
397.19	170.86
397.39	163.84
397.58	102.98
397.77	119.37
397.97	180.22
398.16	131.07
398.35	154.48
398.55	72.56
398.74	177.88
398.93	93.62
399.12	177.88
399.32	102.98
399.51	112.35
399.70	159.16
399.90	198.95
400.09	177.88
400.28	131.07
400.47	147.45
400.67	147.45
400.86	180.22
401.05	110.01
401.24	187.24
401.44	175.54
401.63	212.99
401.82	229.37
402.01	98.30
402.21	154.48
402.40	189.58
402.59	196.60
402.78	201.29
402.97	191.92
403.17	212.99
403.36	271.50
403.55	418.96
403.74	667.05
403.93	1933.28
404.13	5282.59
404.32	7585.68
404.51	7215.87
404.70	4519.57
404.89	1685.19
405.09	564.07
405.28	311.29
405.47	180.22
405.66	210.65
405.85	245.76
406.05	280.86
406.24	217.67
406.43	262.14
406.62	201.29
406.81	269.16
407.00	365.12
407.20	622.58
407.39	945.58
407.58	1055.58
407.77	894.08
407.96	482.15
408.15	255.12
408.34	198.95
408.54	142.77
408.73	222.35
408.92	229.37
409.11	205.97
409.30	149.79
409.49	163.84
409.68	210.65
409.87	189.58
410.07	131.07
410.26	182.56
410.45	131.07
410.64	149.79
410.83	229.37
411.02	180.22
411.21	271.50
411.40	231.71
411.59	255.12
411.78	227.03
411.98	152.13
412.17	189.58
412.36	145.11
412.55	243.42
412.74	189.58
412.93	257.46
413.12	154.48
413.31	294.91
413.50	227.03
413.69	266.82
413.88	205.97
414.07	229.37
414.26	257.46
414.45	210.65
414.64	201.29
414.83	208.31
415.02	224.69
415.22	252.78
415.41	294.91
415.60	224.69
415.79	276.18
415.98	210.65
416.17	175.54
416.36	248.10
416.55	297.25
416.74	264.48
416.93	189.58
417.12	194.26
417.31	201.29
417.50	222.35
417.69	320.65
417.88	297.25
418.07	283.20
418.26	198.95
418.45	292.57
418.64	287.89
418.83	348.74
419.02	299.59
419.21	257.46
419.39	264.48
419.58	229.37
419.77	203.63
419.96	245.76
420.15	339.38
420.34	245.76
420.53	262.14
420.72	322.99
420.91	173.20
421.10	280.86
421.29	290.23
421.48	315.97
421.67	313.63
421.86	311.29
422.05	315.97
422.24	203.63
422.43	280.86
422.61	322.99
422.80	248.10
422.99	294.91
423.18	285.55
423.37	360.44
423.56	271.50
423.75	372.15
423.94	315.97
424.13	330.02
424.32	299.59
424.50	306.61
424.69	308.95
424.88	341.72
425.07	353.42
425.26	322.99
425.45	360.44
425.64	374.49
425.83	292.57
426.01	414.27
426.20	369.80
426.39	339.38
426.58	318.31
426.77	360.44
426.96	318.31
427.15	407.25
427.33	285.55
427.52	285.55
427.71	306.61
427.90	330.02
428.09	411.93
428.28	304.27
428.46	355.76
428.65	367.46
428.84	369.80
429.03	367.46
429.22	330.02
429.40	313.63
429.59	362.78
429.78	325.33
429.97	325.33
430.16	344.06
430.34	386.19
430.53	348.74
430.72	381.51
430.91	463.43
431.10	465.77
431.28	409.59
431.47	433.00
431.66	458.74
431.85	355.76
432.03	395.55
432.22	521.94
432.41	514.92
432.60	547.69
432.79	514.92
432.97	468.11
433.16	486.83
433.35	599.18
433.54	702.16
433.72	664.71
433.91	734.93
434.10	758.33
434.28	936.21
434.47	980.68
434.66	1156.22
434.85	1383.26
435.03	3557.61
435.22	12823.80
435.41	31414.67
435.59	38059.45
435.78	25453.33
435.97	11777.58
436.16	4669.37
436.34	1582.20
436.53	994.73
436.72	807.48
436.90	781.74
437.09	650.67
437.28	606.20
437.46	552.37
437.65	585.13
437.84	580.45
438.02	531.30
438.21	505.56
438.40	521.94
438.58	519.60
438.77	510.24
438.96	531.30
439.14	498.53
439.33	587.47
439.52	519.60
439.70	496.19
439.89	468.11
440.08	550.03
440.26	512.58
440.45	514.92
440.63	472.79
440.82	435.34
441.01	430.66
441.19	430.66
441.38	505.56
441.57	498.53
441.75	505.56
441.94	500.87
442.12	528.96
442.31	521.94
442.50	477.47
442.68	475.13
442.87	463.43
443.05	500.87
443.24	517.26
443.43	514.92
443.61	540.66
443.80	435.34
443.98	456.40
444.17	470.45
444.35	510.24
444.54	470.45
444.73	486.83
444.91	510.24
445.10	510.24
445.28	517.26
445.47	475.13
445.65	514.92
445.84	526.62
446.02	454.06
446.21	451.72
446.39	484.49
446.58	507.90
446.77	421.30
446.95	472.79
447.14	470.45
447.32	500.87
447.51	470.45
447.69	470.45
447.88	479.81
448.06	477.47
448.25	451.72
448.43	470.45
448.62	386.19
448.80	468.11
448.99	475.13
449.17	449.38
449.36	580.45
449.54	449.38
449.73	440.02
449.91	510.24
450.10	517.26
450.28	517.26
450.46	566.41
450.65	545.34
450.83	449.38
451.02	500.87
451.20	514.92
451.39	472.79
451.57	458.74
451.76	423.64
451.94	550.03
452.13	472.79
452.31	440.02
452.49	454.06
452.68	535.98
452.86	519.60
453.05	472.79
453.23	442.36
453.42	505.56
453.60	498.53
453.78	496.19
453.97	496.19
454.15	430.66
454.34	498.53
454.52	433.00
454.70	465.77
454.89	425.98
455.07	451.72
455.26	589.82
455.44	533.64
455.62	463.43
455.81	425.98
455.99	512.58
456.17	397.89
456.36	517.26
456.54	482.15
456.73	519.60
456.91	451.72
457.09	580.45
457.28	571.09
457.46	437.68
457.64	491.51
457.83	372.15
458.01	390.87
458.19	409.59
458.38	491.51
458.56	463.43
458.74	444.70
458.93	421.30
459.11	482.15
459.29	437.68
459.48	505.56
459.66	571.09
459.84	514.92
460.03	596.84
460.21	496.19
460.39	510.24
460.57	514.92
460.76	411.93
460.94	547.69
461.12	500.87
461.31	524.28
461.49	435.34
461.67	407.25
461.85	456.40
462.04	498.53
462.22	896.43
462.40	418.96
462.59	461.09
462.77	498.53
462.95	517.26
463.13	472.79
463.32	477.47
463.50	503.22
463.68	428.32
463.86	440.02
464.05	482.15
464.23	430.66
464.41	482.15
464.59	510.24
464.78	512.58
464.96	437.68
465.14	500.87
465.32	477.47
465.50	414.27
465.69	444.70
465.87	435.34
466.05	479.81
466.23	440.02
466.41	472.79
466.60	503.22
466.78	493.85
466.96	482.15
467.14	528.96
467.32	533.64
467.51	519.60
467.69	503.22
467.87	528.96
468.05	505.56
468.23	416.62
468.41	479.81
468.60	423.64
468.78	362.78
468.96	423.64
469.14	484.49
469.32	468.11
469.50	416.62
469.69	440.02
469.87	414.27
470.05	409.59
470.23	414.27
470.41	416.62
470.59	442.36
470.77	442.36
470.95	402.57
471.14	451.72
471.32	465.77
471.50	472.79
471.68	500.87
471.86	442.36
472.04	449.38
472.22	393.21
472.40	447.04
472.58	407.25
472.77	402.57
472.95	379.17
473.13	550.03
473.31	449.38
473.49	468.11
473.67	397.89
473.85	512.58
474.03	543.00
474.21	400.23
474.39	566.41
474.57	468.11
474.75	423.64
474.93	433.00
475.12	423.64
475.30	435.34
475.48	451.72
475.66	425.98
475.84	479.81
476.02	465.77
476.20	496.19
476.38	486.83
476.56	514.92
476.74	470.45
476.92	402.57
477.10	456.40
477.28	510.24
477.46	517.26
477.64	514.92
477.82	500.87
478.00	543.00
478.18	475.13
478.36	500.87
478.54	517.26
478.72	510.24
478.90	470.45
479.08	517.26
479.26	636.63
479.44	526.62
479.62	624.92
479.80	608.54
479.98	709.18
480.16	622.58
480.34	730.25
480.52	690.46
480.70	746.63
480.88	697.48
481.06	730.25
481.24	842.59
481.41	891.74
481.59	922.17
481.77	980.68
481.95	971.32
482.13	1020.47
482.31	1004.09
482.49	1186.65
482.67	1322.40
482.85	1394.96
483.03	1486.24
483.21	1523.69
483.39	1605.61
483.57	1680.50
483.74	1893.49
483.92	1893.49
484.10	1975.41
484.28	2162.66
484.46	2307.77
484.64	2366.28
484.82	2417.77
485.00	2572.25
485.18	2682.25
485.35	2827.37
485.53	3033.33
485.71	3197.17
485.89	3325.90
486.07	3351.65
486.25	3478.04
486.43	3417.18
486.61	3471.01
486.78	3417.18
486.96	3370.37
487.14	3480.38
487.32	3335.26
487.50	3262.71
487.68	3379.73
487.85	3382.07
488.03	3356.33
488.21	3382.07
488.39	3328.24
488.57	3133.98
488.75	3035.67
488.92	3213.56
489.10	2918.65
489.28	2747.79
489.46	2895.24
489.64	2827.37
489.81	2775.88
489.99	2633.10
490.17	2609.70
490.35	2628.42
490.53	2558.21
490.70	2576.93
490.88	2698.64
491.06	2710.34
491.24	2970.14
491.41	2827.37
491.59	2757.15
491.77	2656.51
491.95	2607.36
492.13	2429.48
492.30	2359.26
492.48	2300.75
492.66	2249.25
492.84	2333.51
493.01	2230.53
493.19	2162.66
493.37	2207.13
493.54	2181.38
493.72	2129.89
493.90	2008.18
494.08	2052.65
494.25	2101.80
494.43	2062.01
494.61	2040.95
494.79	2019.88
494.96	1879.45
495.14	1898.17
495.32	1832.64
495.49	1788.17
495.67	1849.02
495.85	1776.47
496.02	1757.74
496.20	1863.07
496.38	1692.21
496.55	1732.00
496.73	1678.16
496.91	1600.93
497.09	1652.42
497.26	1626.67
497.44	1568.16
497.62	1472.20
497.79	1490.92
497.97	1516.67
498.14	1472.20
498.32	1404.32
498.50	1409.00
498.67	1242.82
498.85	1242.82
499.03	1263.89
499.20	1193.67
499.38	1163.25
499.56	1212.40
499.73	1210.06
499.91	1233.46
500.08	1167.93
500.26	983.02
500.44	1090.69
500.61	1060.26
500.79	940.90
500.97	994.73
501.14	943.24
501.32	976.00
501.49	1004.09
501.67	830.89
501.84	786.42
502.02	755.99
502.20	823.87
502.37	786.42
502.55	774.72
502.72	753.65
502.90	741.95
503.07	725.57
503.25	695.14
503.43	674.07
503.60	685.78
503.78	650.67
503.95	638.97
504.13	613.22
504.30	631.94
504.48	547.69
504.65	580.45
504.83	664.71
505.01	589.82
505.18	624.92
505.36	636.63
505.53	500.87
505.71	498.53
505.88	573.43
506.06	627.26
506.23	482.15
506.41	468.11
506.58	507.90
506.76	543.00
506.93	592.16
507.11	477.47
507.28	505.56
507.46	524.28
507.63	566.41
507.81	477.47
507.98	416.62
508.16	433.00
508.33	510.24
508.50	477.47
508.68	545.34
508.85	610.88
509.03	601.52
509.20	510.24
509.38	538.32
509.55	585.13
509.73	447.04
509.90	526.62
510.08	395.55
510.25	496.19
510.42	517.26
510.60	465.77
510.77	451.72
510.95	451.72
511.12	428.32
511.30	517.26
511.47	463.43
511.64	458.74
511.82	402.57
511.99	440.02
512.17	421.30
512.34	451.72
512.51	456.40
512.69	486.83
512.86	498.53
513.04	397.89
513.21	496.19
513.38	465.77
513.56	479.81
513.73	421.30
513.90	449.38
514.08	393.21
514.25	440.02
514.43	512.58
514.60	348.74
514.77	379.17
514.95	348.74
515.12	339.38
515.29	369.80
515.47	304.27
515.64	414.27
515.81	442.36
515.99	510.24
516.16	353.42
516.33	416.62
516.51	362.78
516.68	449.38
516.85	339.38
517.03	468.11
517.20	411.93
517.37	351.08
517.54	404.91
517.72	360.44
517.89	355.76
518.06	334.70
518.24	358.10
518.41	433.00
518.58	397.89
518.75	379.17
518.93	341.72
519.10	365.12
519.27	433.00
519.45	388.53
519.62	461.09
519.79	393.21
519.96	367.46
520.14	365.12
520.31	404.91
520.48	428.32
520.65	344.06
520.83	337.04
521.00	388.53
521.17	414.27
521.34	369.80
521.52	344.06
521.69	379.17
521.86	372.15
522.03	383.85
522.20	468.11
522.38	435.34
522.55	294.91
522.72	325.33
522.89	388.53
523.07	447.04
523.24	390.87
523.41	407.25
523.58	404.91
523.75	491.51
523.92	414.27
524.10	416.62
524.27	479.81
524.44	404.91
524.61	397.89
524.78	362.78
524.96	367.46
525.13	367.46
525.30	442.36
525.47	433.00
525.64	472.79
525.81	458.74
525.98	407.25
526.16	395.55
526.33	348.74
526.50	444.70
526.67	379.17
526.84	482.15
527.01	414.27
527.18	512.58
527.36	456.40
527.53	496.19
527.70	486.83
527.87	510.24
528.04	489.17
528.21	435.34
528.38	528.96
528.55	416.62
528.72	470.45
528.89	472.79
529.07	402.57
529.24	554.71
529.41	575.77
529.58	500.87
529.75	519.60
529.92	531.30
530.09	533.64
530.26	547.69
530.43	571.09
530.60	610.88
530.77	596.84
530.94	620.24
531.11	599.18
531.28	615.56
531.46	671.73
531.63	713.86
531.80	711.52
531.97	781.74
532.14	863.66
532.31	1046.22
532.48	1146.86
532.65	1235.80
532.82	1568.16
532.99	1746.04
533.16	2054.99
533.33	2200.10
533.50	2012.86
533.67	1722.63
533.84	1519.01
534.01	1394.96
534.18	1294.32
534.35	1217.08
534.52	1214.74
534.69	1334.11
534.86	1322.40
535.03	1322.40
535.20	1383.26
535.37	1533.05
535.54	1579.86
535.71	1591.56
535.88	1799.87
536.05	1867.75
536.22	2001.16
536.38	2094.78
536.55	2310.11
536.72	2597.99
536.89	2843.75
537.06	3124.62
537.23	3571.66
537.40	3920.40
537.57	4070.19
537.74	4332.33
537.91	4615.54
538.08	4692.77
538.25	4840.23
538.42	4676.39
538.59	4889.38
538.75	5018.11
538.92	5221.74
539.09	5699.20
539.26	6445.84
539.43	7042.67
539.60	8287.84
539.77	9371.50
539.94	10485.60
540.11	11372.66
540.28	12788.69
540.44	13525.96
540.61	15215.82
540.78	17497.84
540.95	20922.05
541.12	25523.54
541.29	29046.05
541.46	30157.80
541.62	30118.01
541.79	28753.48
541.96	26888.07
542.13	24802.66
542.30	22904.48
542.47	21783.37
542.63	20257.34
542.80	20084.14
542.97	19564.54
543.14	19475.60
543.31	19297.72
543.48	19538.79
543.64	19889.87
543.81	19782.21
543.98	19800.93
544.15	20060.73
544.32	20421.17
544.48	20428.20
544.65	19704.97
544.82	19957.75
544.99	19704.97
545.16	20095.84
545.32	21289.51
545.49	33298.80
545.66	55987.95
545.83	64685.39
546.00	61155.86
546.16	48465.47
546.33	35629.98
546.50	26623.59
546.67	20744.17
546.83	18277.24
547.00	17455.72
547.17	16596.74
547.34	16107.57
547.50	15016.88
547.67	14733.67
547.84	14012.79
548.00	13657.03
548.17	13296.58
548.34	12578.04
548.51	11964.82
548.67	11604.38
548.84	11066.05
549.01	10499.64
549.18	9893.44
549.34	9568.11
549.51	9312.99
549.68	8997.02
549.84	8444.65
550.01	8388.48
550.18	7836.11
550.34	7342.26
550.51	7016.93
550.68	6745.42
550.84	6342.85
551.01	6083.05
551.18	5750.70
551.34	5373.87
551.51	5275.57
551.68	5095.35
551.84	4910.44
552.01	4657.67
552.18	4582.77
552.34	4248.07
552.51	4053.81
552.68	3932.10
552.84	3798.69
553.01	3634.85
553.18	3473.36
553.34	3314.20
553.51	3255.69
553.67	3246.32
553.84	3087.17
554.01	2864.82
554.17	2836.73
554.34	2583.95
554.51	2382.67
554.67	2251.60
554.84	2235.21
555.00	2090.10
555.17	1853.70
555.33	1902.86
555.50	1788.17
555.67	1682.85
555.83	1621.99
556.00	1556.46
556.16	1659.44
556.33	1570.50
556.50	1446.45
556.66	1390.28
556.83	1287.29
556.99	1343.47
557.16	1184.31
557.32	1240.48
557.49	1139.84
557.65	1198.35
557.82	1160.91
557.98	1083.67
558.15	1064.94
558.32	1011.11
558.48	1076.65
558.65	1013.45
558.81	971.32
558.98	933.87
559.14	980.68
559.31	973.66
559.47	915.15
559.64	875.36
559.80	945.58
559.97	922.17
560.13	833.23
560.30	753.65
560.46	781.74
560.63	793.44
560.79	856.64
560.96	798.12
561.12	816.85
561.29	863.66
561.45	807.48
561.61	856.64
561.78	875.36
561.94	856.64
562.11	798.12
562.27	805.14
562.44	816.85
562.60	830.89
562.77	770.04
562.93	863.66
563.10	753.65
563.26	751.31
563.42	807.48
563.59	753.65
563.75	678.76
563.92	816.85
564.08	697.48
564.24	755.99
564.41	741.95
564.57	671.73
564.74	601.52
564.90	585.13
565.07	681.10
565.23	695.14
565.39	634.29
565.56	695.14
565.72	655.35
565.88	599.18
566.05	627.26
566.21	676.41
566.38	650.67
566.54	608.54
566.70	711.52
566.87	678.76
567.03	641.31
567.19	643.65
567.36	697.48
567.52	683.44
567.68	643.65
567.85	711.52
568.01	685.78
568.17	723.23
568.34	699.82
568.50	697.48
568.66	725.57
568.83	704.50
568.99	610.88
569.15	622.58
569.32	695.14
569.48	568.75
569.64	571.09
569.81	566.41
569.97	526.62
570.13	550.03
570.30	524.28
570.46	540.66
570.62	505.56
570.78	526.62
570.95	463.43
571.11	568.75
571.27	550.03
571.43	430.66
571.60	538.32
571.76	578.11
571.92	500.87
572.09	491.51
572.25	449.38
572.41	535.98
572.57	531.30
572.74	554.71
572.90	533.64
573.06	519.60
573.22	543.00
573.38	580.45
573.55	720.88
573.71	585.13
573.87	517.26
574.03	557.05
574.20	610.88
574.36	564.07
574.52	648.33
574.68	596.84
574.84	697.48
575.01	699.82
575.17	692.80
575.33	770.04
575.49	765.36
575.65	849.61
575.82	882.38
575.98	990.05
576.14	1198.35
576.30	2054.99
576.46	6644.78
576.62	13064.87
576.79	15793.94
576.95	10925.62
577.11	6850.75
577.27	4758.31
577.43	3178.45
577.59	2059.67
577.75	1748.38
577.92	1504.96
578.08	1451.13
578.24	1469.86
578.40	2324.15
578.56	6005.81
578.72	11377.34
578.88	13757.67
579.04	10307.72
579.21	6834.36
579.37	4992.36
579.53	3868.91
579.69	3529.53
579.85	4358.08
580.01	5310.68
580.17	5160.88
580.33	4376.80
580.49	3831.46
580.65	3433.57
580.82	3038.02
580.98	2993.55
581.14	3061.42
581.30	3253.34
581.46	3283.77
581.62	3548.25
581.78	3637.19
581.94	4175.52
582.10	4528.94
582.26	4704.48
582.42	4739.58
582.58	4997.04
582.74	5074.28
582.90	5254.50
583.06	5193.65
583.22	5102.37
583.38	5081.30
583.54	5109.39
583.70	5160.88
583.86	4954.91
584.02	4905.76
584.18	4910.44
584.34	4767.67
584.50	4814.48
584.66	4407.23
584.82	4620.22
584.98	4425.95
585.14	4573.41
585.30	4301.90
585.46	4362.76
585.62	4217.65
585.78	4161.47
585.94	4227.01
586.10	4292.54
586.26	4482.13
586.42	5118.75
586.58	6043.26
586.74	7337.58
586.90	9048.51
587.06	10045.58
587.22	9912.17
587.38	9043.83
587.54	8006.97
587.70	6487.96
587.86	5338.76
588.02	4631.92
588.18	4159.13
588.34	3772.94
588.49	3400.80
588.65	3220.58
588.81	3089.51
588.97	2939.71
589.13	2867.16
589.29	2818.00
589.45	2829.71
589.61	2759.49
589.77	2871.84
589.93	2780.56
590.08	2963.12
590.24	3068.44
590.40	3091.85
590.56	3171.43
590.72	3173.77
590.88	3307.18
591.04	3314.20
591.20	3700.39
591.35	3812.73
591.51	3941.46
591.67	4014.02
591.83	4355.74
591.99	4751.29
592.15	5093.01
592.31	5607.92
592.46	6038.58
592.62	6635.42
592.78	6820.32
592.94	7098.84
593.10	7185.44
593.26	6820.32
593.41	6310.08
593.57	5652.39
593.73	5069.60
593.89	4423.61
594.05	3946.14
594.20	3398.46
594.36	3342.28
594.52	3030.99
594.68	2822.69
594.84	2757.15
594.99	2595.65
595.15	2576.93
595.31	2553.52
595.47	2539.48
595.62	2478.63
595.78	2490.33
595.94	2548.84
596.10	2562.89
596.25	2541.82
596.41	2487.99
596.57	2623.74
596.73	2457.56
596.88	2466.92
597.04	2607.36
597.20	2548.84
597.36	2619.06
597.51	2647.15
597.67	2792.26
597.83	2789.92
597.99	3098.87
598.14	3227.60
598.30	3358.67
598.46	3688.68
598.61	3939.12
598.77	3873.59
598.93	4196.58
599.09	4418.93
599.24	4479.79
599.40	4245.73
599.56	4325.31
599.71	4159.13
599.87	3845.50
600.03	3461.65
600.18	3288.45
600.34	3082.49
600.50	2897.58
600.65	2864.82
600.81	2579.27
600.97	2471.61
601.12	2387.35
601.28	2197.76
601.44	2080.74
601.59	2050.31
601.75	1914.56
601.91	1865.41
602.06	1776.47
602.22	1802.21
602.37	1645.40
602.53	1687.53
602.69	1680.50
602.84	1774.13
603.00	1767.10
603.16	1748.38
603.31	1783.49
603.47	1724.97
603.62	1790.51
603.78	1879.45
603.94	1834.98
604.09	1858.39
604.25	1994.14
604.40	1825.62
604.56	1909.88
604.71	1942.64
604.87	1998.82
605.03	2094.78
605.18	2043.29
605.34	2216.49
605.49	2160.31
605.65	2225.85
605.80	2275.00
605.96	2422.45
606.12	2511.39
606.27	2642.46
606.43	2525.44
606.58	2799.28
606.74	3005.25
606.89	3112.91
607.05	3307.18
607.20	3297.81
607.36	3625.49
607.51	3854.86
607.67	4091.26
607.82	4299.56
607.98	4685.75
608.13	4851.93
608.29	5231.10
608.44	5694.52
608.60	6455.20
608.75	6703.29
608.91	7468.65
609.06	7899.31
609.22	8980.64
609.37	9919.19
609.53	10794.55
609.68	12372.07
609.84	14394.29
609.99	16699.72
610.15	20154.35
610.30	24486.68
610.46	30679.74
610.61	39885.07
610.76	50035.97
610.92	56334.35
611.07	59945.80
611.23	60587.11
611.38	59676.64
611.54	56594.15
611.69	51847.55
611.84	44322.72
612.00	36978.12
612.15	30773.36
612.31	26771.05
612.46	24065.39
612.62	22270.20
612.77	20812.04
612.92	19868.81
613.08	18642.37
613.23	17710.83
613.39	17198.26
613.54	16449.28
613.69	16346.30
613.85	16259.70
614.00	16046.71
614.15	15868.83
614.31	15569.24
614.46	15630.10
614.62	14677.50
614.77	14389.61
614.92	13291.90
615.08	12397.82
615.23	11208.83
615.38	10427.09
615.54	9633.64
615.69	8844.88
615.84	7927.39
616.00	7403.11
616.15	6883.52
616.30	6392.00
616.46	6008.16
616.61	5589.20
616.76	5430.04
616.92	5067.26
617.07	4741.93
617.22	4507.87
617.37	4327.65
617.53	4114.66
617.68	3889.97
617.83	3815.07
617.99	3754.22
618.14	3499.10
618.29	3517.83
618.45	3403.14
618.60	3396.12
618.75	3398.46
618.90	3269.73
619.06	3267.39
619.21	3361.01
619.36	3155.04
619.51	3330.58
619.67	3314.20
619.82	3248.66
619.97	3211.22
620.12	3440.59
620.28	3445.27
620.43	3501.44
620.58	3672.30
620.73	3595.06
620.89	3564.64
621.04	3534.21
621.19	3651.24
621.34	3508.46
621.49	3461.65
621.65	3346.97
621.80	3351.65
621.95	3302.50
622.10	3466.33
622.25	3473.36
622.41	3466.33
622.56	3559.95
622.71	3756.56
622.86	3749.54
623.01	3672.30
623.16	3688.68
623.32	3754.22
623.47	3896.99
623.62	3808.05
623.77	3808.05
623.92	3939.12
624.07	3700.39
624.23	3733.15
624.38	3669.96
624.53	3969.55
624.68	3880.61
624.83	3955.51
624.98	3920.40
625.13	3868.91
625.29	4018.70
625.44	4028.06
625.59	3992.95
625.74	4025.72
625.89	3892.31
626.04	3880.61
626.19	3948.48
626.34	3786.99
626.49	3885.29
626.65	3878.27
626.80	3925.08
626.95	3889.97
627.10	3714.43
627.25	3592.72
627.40	3644.21
627.55	3494.42
627.70	3393.78
627.85	3438.25
628.00	3440.59
628.15	3428.88
628.30	3508.46
628.45	3524.85
628.60	3414.84
628.76	3485.06
628.91	3510.80
629.06	3655.92
629.21	3651.24
629.36	3620.81
629.51	3819.75
629.66	4011.68
629.81	4236.37
629.96	4610.86
630.11	5025.13
630.26	5521.32
630.41	6265.61
630.56	6944.37
630.71	7496.74
630.86	7714.41
631.01	7606.74
631.16	6899.90
631.31	6043.26
631.46	5249.82
631.61	4353.40
631.76	3901.67
631.91	3251.00
632.06	2729.06
632.21	2375.64
632.36	2010.52
632.51	1902.86
632.66	1750.72
632.81	1474.54
632.96	1460.49
633.10	1411.34
633.25	1425.39
633.40	1317.72
633.55	1313.04
633.70	1212.40
633.85	1160.91
634.00	1027.50
634.15	1081.33
634.30	1111.75
634.45	1100.05
634.60	1095.37
634.75	1090.69
634.90	1013.45
635.05	973.66
635.19	971.32
635.34	1036.86
635.49	947.92
635.64	877.70
635.79	849.61
635.94	849.61
636.09	931.53
636.24	837.91
636.39	887.06
636.53	861.32
636.68	842.59
636.83	833.23
636.98	849.61
637.13	866.00
637.28	823.87
637.43	793.44
637.57	755.99
637.72	734.93
637.87	781.74
638.02	634.29
638.17	737.27
638.32	699.82
638.46	807.48
638.61	748.97
638.76	697.48
638.91	641.31
639.06	648.33
639.20	664.71
639.35	755.99
639.50	615.56
639.65	690.46
639.80	645.99
639.94	634.29
640.09	716.20
640.24	685.78
640.39	585.13
640.54	706.84
640.68	582.79
640.83	627.26
640.98	678.76
641.13	641.31
641.27	660.03
641.42	671.73
641.57	784.08
641.72	760.67
641.86	631.94
642.01	592.16
642.16	587.47
642.31	653.01
642.45	629.60
642.60	741.95
642.75	650.67
642.90	678.76
643.04	678.76
643.19	655.35
643.34	613.22
643.48	641.31
643.63	683.44
643.78	732.59
643.93	706.84
644.07	655.35
644.22	748.97
644.37	758.33
644.51	681.10
644.66	627.26
644.81	622.58
644.95	636.63
645.10	676.41
645.25	662.37
645.39	718.54
645.54	568.75
645.69	631.94
645.83	648.33
645.98	713.86
646.13	580.45
646.27	650.67
646.42	627.26
646.57	550.03
646.71	580.45
646.86	610.88
647.00	648.33
647.15	643.65
647.30	559.39
647.44	629.60
647.59	608.54
647.74	608.54
647.88	559.39
648.03	610.88
648.17	622.58
648.32	664.71
648.47	627.26
648.61	725.57
648.76	664.71
648.90	645.99
649.05	650.67
649.20	770.04
649.34	947.92
649.49	940.90
649.63	997.07
649.78	1170.27
649.92	1392.62
650.07	1699.23
650.21	1898.17
650.36	2113.50
650.51	2167.34
650.65	2012.86
650.80	1853.70
650.94	1511.99
651.09	1416.02
651.23	1294.32
651.38	1224.10
651.52	1088.35
651.67	964.30
651.81	952.60
651.96	877.70
652.10	875.36
652.25	814.51
652.39	826.21
652.54	870.68
652.68	954.94
652.83	1020.47
652.97	1036.86
653.12	1029.84
653.26	1011.11
653.41	959.62
653.55	1001.75
653.70	786.42
653.84	770.04
653.99	723.23
654.13	777.06
654.27	770.04
654.42	608.54
654.56	662.37
654.71	706.84
654.85	634.29
655.00	631.94
655.14	629.60
655.29	561.73
655.43	613.22
655.57	573.43
655.72	573.43
655.86	617.90
656.01	540.66
656.15	566.41
656.30	620.24
656.44	599.18
656.58	702.16
656.73	706.84
656.87	601.52
657.01	667.05
657.16	657.69
657.30	608.54
657.45	741.95
657.59	720.88
657.73	692.80
657.88	683.44
658.02	812.17
658.16	690.46
658.31	660.03
658.45	610.88
658.60	510.24
658.74	585.13
658.88	444.70
659.03	407.25
659.17	428.32
659.31	496.19
659.46	430.66
659.60	491.51
659.74	437.68
659.89	435.34
660.03	493.85
660.17	456.40
660.32	510.24
660.46	528.96
660.60	531.30
660.74	472.79
660.89	498.53
661.03	489.17
661.17	507.90
661.32	601.52
661.46	500.87
661.60	753.65
661.74	854.30
661.89	1043.88
662.03	1074.31
662.17	1219.42
662.31	1277.93
662.46	1226.44
662.60	1179.63
662.74	1104.73
662.88	961.96
663.03	851.96
663.17	791.10
663.31	638.97
663.45	767.70
663.60	594.50
663.74	599.18
663.88	526.62
664.02	561.73
664.17	543.00
664.31	564.07
664.45	472.79
664.59	535.98
664.73	493.85
664.88	447.04
665.02	435.34
665.16	372.15
665.30	451.72
665.44	414.27
665.59	440.02
665.73	393.21
665.87	425.98
666.01	498.53
666.15	440.02
666.29	447.04
666.44	524.28
666.58	484.49
666.72	423.64
666.86	416.62
667.00	484.49
667.14	491.51
667.28	491.51
667.43	447.04
667.57	407.25
667.71	535.98
667.85	482.15
667.99	414.27
668.13	458.74
668.27	465.77
668.41	395.55
668.56	425.98
668.70	484.49
668.84	454.06
668.98	418.96
669.12	423.64
669.26	416.62
669.40	489.17
669.54	440.02
669.68	468.11
669.82	374.49
669.96	416.62
670.10	428.32
670.25	440.02
670.39	390.87
670.53	404.91
670.67	348.74
670.81	344.06
670.95	409.59
671.09	372.15
671.23	444.70
671.37	402.57
671.51	386.19
671.65	402.57
671.79	367.46
671.93	299.59
672.07	407.25
672.21	348.74
672.35	360.44
672.49	372.15
672.63	374.49
672.77	402.57
672.91	379.17
673.05	386.19
673.19	435.34
673.33	353.42
673.47	355.76
673.61	339.38
673.75	397.89
673.89	313.63
674.03	409.59
674.17	360.44
674.31	430.66
674.45	360.44
674.59	337.04
674.73	346.40
674.87	325.33
675.01	376.83
675.15	360.44
675.29	404.91
675.43	376.83
675.56	374.49
675.70	358.10
675.84	372.15
675.98	294.91
676.12	348.74
676.26	365.12
676.40	271.50
676.54	280.86
676.68	327.68
676.82	390.87
676.96	266.82
677.10	325.33
677.23	325.33
677.37	285.55
677.51	360.44
677.65	376.83
677.79	332.36
677.93	299.59
678.07	301.93
678.21	388.53
678.34	238.73
678.48	308.95
678.62	369.80
678.76	341.72
678.90	355.76
679.04	358.10
679.18	362.78
679.31	283.20
679.45	346.40
679.59	351.08
679.73	365.12
679.87	409.59
680.00	346.40
680.14	313.63
680.28	290.23
680.42	322.99
680.56	339.38
680.70	433.00
680.83	334.70
680.97	442.36
681.11	372.15
681.25	421.30
681.39	344.06
681.52	404.91
681.66	351.08
681.80	306.61
681.94	283.20
682.07	346.40
682.21	280.86
682.35	276.18
682.49	362.78
682.62	259.80
682.76	294.91
682.90	287.89
683.04	287.89
683.17	374.49
683.31	390.87
683.45	346.40
683.59	346.40
683.72	362.78
683.86	304.27
684.00	294.91
684.13	285.55
684.27	304.27
684.41	299.59
684.55	404.91
684.68	276.18
684.82	292.57
684.96	266.82
685.09	344.06
685.23	306.61
685.37	327.68
685.50	369.80
685.64	341.72
685.78	308.95
685.91	397.89
686.05	414.27
686.19	505.56
686.32	402.57
686.46	425.98
686.60	456.40
686.73	554.71
686.87	634.29
687.01	524.28
687.14	561.73
687.28	669.39
687.42	706.84
687.55	720.88
687.69	697.48
687.82	725.57
687.96	667.05
688.10	692.80
688.23	676.41
688.37	692.80
688.50	580.45
688.64	538.32
688.78	564.07
688.91	411.93
689.05	440.02
689.18	402.57
689.32	383.85
689.46	362.78
689.59	339.38
689.73	290.23
689.86	306.61
690.00	283.20
690.13	276.18
690.27	318.31
690.41	365.12
690.54	444.70
690.68	346.40
690.81	264.48
690.95	245.76
691.08	322.99
691.22	224.69
691.35	273.84
691.49	259.80
691.62	236.39
691.76	238.73
691.89	173.20
692.03	177.88
692.16	241.08
692.30	252.78
692.43	278.52
692.57	173.20
692.70	166.18
692.84	285.55
692.97	294.91
693.11	320.65
693.24	383.85
693.38	456.40
693.51	580.45
693.65	617.90
693.78	578.11
693.92	629.60
694.05	512.58
694.19	365.12
694.32	404.91
694.45	287.89
694.59	255.12
694.72	273.84
694.86	238.73
694.99	227.03
695.13	238.73
695.26	271.50
695.39	191.92
695.53	287.89
695.66	182.56
695.80	229.37
695.93	166.18
696.07	180.22
696.20	208.31
696.33	231.71
696.47	241.08
696.60	339.38
696.73	234.05
696.87	184.90
697.00	182.56
697.14	173.20
697.27	163.84
697.40	215.33
697.54	128.73
697.67	170.86
697.80	145.11
697.94	196.60
698.07	250.44
698.21	93.62
698.34	173.20
698.47	93.62
698.61	173.20
698.74	142.77
698.87	236.39
699.01	154.48
699.14	175.54
699.27	177.88
699.40	320.65
699.54	102.98
699.67	170.86
699.80	119.37
699.94	159.16
700.07	222.35
700.20	203.63
700.34	161.50
700.47	187.24
700.60	273.84
700.73	145.11
700.87	212.99
701.00	142.77
701.13	156.82
701.26	217.67
701.40	154.48
701.53	154.48
701.66	173.20
701.79	149.79
701.93	107.66
702.06	283.20
702.19	177.88
702.32	248.10
702.46	212.99
702.59	173.20
702.72	187.24
702.85	187.24
702.99	145.11
703.12	215.33
703.25	208.31
703.38	212.99
703.51	205.97
703.65	250.44
703.78	241.08
703.91	252.78
704.04	353.42
704.17	224.69
704.31	154.48
704.44	306.61
704.57	301.93
704.70	257.46
704.83	341.72
704.96	273.84
705.10	327.68
705.23	266.82
>>>>>End Processed Spectral Data<<<<<
