SpectraSuite Data File
++++++++++++++++++++++++++++++++++++
Date: Fri Oct 04 11:41:48 GMT-05:00 2013
User: price-jones
Dark Spectrum Present: No
Reference Spectrum Present: No
Number of Sampled Component Spectra: 1
Spectrometers: USB2+H05261
Integration Time (usec): 100000 (USB2+H05261)
Spectra Averaged: 1 (USB2+H05261)
Boxcar Smoothing: 0 (USB2+H05261)
Correct for Electrical Dark: No (USB2+H05261)
Strobe/Lamp Enabled: No (USB2+H05261)
Correct for Detector Non-linearity: No (USB2+H05261)
Correct for Stray Light: No (USB2+H05261)
Number of Pixels in Processed Spectrum: 2048
>>>>>Begin Processed Spectral Data<<<<<
365.73	32.77
365.92	32.77
366.12	32.77
366.32	9.36
366.52	0.00
366.72	0.00
366.91	0.00
367.11	0.00
367.31	0.00
367.51	0.00
367.70	0.00
367.90	0.00
368.10	0.00
368.30	0.00
368.49	0.00
368.69	0.00
368.89	0.00
369.09	0.00
369.28	0.00
369.48	0.00
369.68	0.00
369.87	0.00
370.07	0.00
370.27	79.58
370.47	9.36
370.66	0.00
370.86	49.15
371.06	81.92
371.25	100.64
371.45	58.51
371.65	93.62
371.84	93.62
372.04	79.58
372.24	74.90
372.44	74.90
372.63	93.62
372.83	154.48
373.03	191.92
373.22	140.43
373.42	203.63
373.62	86.60
373.81	79.58
374.01	126.39
374.21	124.05
374.40	112.35
374.60	168.52
374.79	107.66
374.99	95.96
375.19	161.50
375.38	149.79
375.58	196.60
375.78	163.84
375.97	154.48
376.17	203.63
376.37	142.77
376.56	135.75
376.76	119.37
376.95	74.90
377.15	152.13
377.35	154.48
377.54	182.56
377.74	84.26
377.93	133.41
378.13	88.94
378.33	88.94
378.52	58.51
378.72	140.43
378.91	175.54
379.11	131.07
379.31	138.09
379.50	74.90
379.70	154.48
379.89	100.64
380.09	142.77
380.28	135.75
380.48	121.71
380.68	70.22
380.87	53.83
381.07	58.51
381.26	177.88
381.46	126.39
381.65	184.90
381.85	159.16
382.04	156.82
382.24	152.13
382.43	201.29
382.63	154.48
382.83	105.32
383.02	152.13
383.22	126.39
383.41	119.37
383.61	177.88
383.80	84.26
384.00	142.77
384.19	135.75
384.39	149.79
384.58	128.73
384.78	63.19
384.97	117.03
385.17	163.84
385.36	189.58
385.56	173.20
385.75	119.37
385.95	86.60
386.14	182.56
386.34	102.98
386.53	147.45
386.72	117.03
386.92	187.24
387.11	131.07
387.31	138.09
387.50	131.07
387.70	91.28
387.89	88.94
388.09	117.03
388.28	140.43
388.48	191.92
388.67	159.16
388.86	93.62
389.06	98.30
389.25	152.13
389.45	168.52
389.64	138.09
389.84	149.79
390.03	149.79
390.22	135.75
390.42	163.84
390.61	124.05
390.81	131.07
391.00	88.94
391.19	142.77
391.39	128.73
391.58	105.32
391.78	159.16
391.97	278.52
392.16	170.86
392.36	142.77
392.55	156.82
392.75	84.26
392.94	77.24
393.13	114.69
393.33	112.35
393.52	81.92
393.71	149.79
393.91	147.45
394.10	93.62
394.29	161.50
394.49	145.11
394.68	98.30
394.88	145.11
395.07	133.41
395.26	93.62
395.46	124.05
395.65	138.09
395.84	65.54
396.04	168.52
396.23	248.10
396.42	98.30
396.62	98.30
396.81	98.30
397.00	142.77
397.19	201.29
397.39	117.03
397.58	170.86
397.77	93.62
397.97	170.86
398.16	124.05
398.35	187.24
398.55	133.41
398.74	154.48
398.93	152.13
399.12	114.69
399.32	145.11
399.51	86.60
399.70	133.41
399.90	212.99
400.09	131.07
400.28	154.48
400.47	128.73
400.67	198.95
400.86	191.92
401.05	145.11
401.24	220.01
401.44	124.05
401.63	152.13
401.82	201.29
402.01	203.63
402.21	175.54
402.40	245.76
402.59	161.50
402.78	215.33
402.97	203.63
403.17	182.56
403.36	259.80
403.55	287.89
403.74	784.08
403.93	2324.15
404.13	5898.15
404.32	9837.27
404.51	10324.10
404.70	6499.67
404.89	2342.88
405.09	681.10
405.28	390.87
405.47	278.52
405.66	269.16
405.85	245.76
406.05	236.39
406.24	194.26
406.43	241.08
406.62	210.65
406.81	306.61
407.00	451.72
407.20	751.31
407.39	1193.67
407.58	1523.69
407.77	1167.93
407.96	662.37
408.15	257.46
408.34	271.50
408.54	205.97
408.73	187.24
408.92	194.26
409.11	184.90
409.30	198.95
409.49	198.95
409.68	259.80
409.87	210.65
410.07	182.56
410.26	224.69
410.45	222.35
410.64	231.71
410.83	283.20
411.02	248.10
411.21	208.31
411.40	210.65
411.59	283.20
411.78	187.24
411.98	180.22
412.17	222.35
412.36	245.76
412.55	212.99
412.74	304.27
412.93	304.27
413.12	259.80
413.31	257.46
413.50	205.97
413.69	278.52
413.88	320.65
414.07	250.44
414.26	215.33
414.45	285.55
414.64	205.97
414.83	252.78
415.02	285.55
415.22	358.10
415.41	369.80
415.60	332.36
415.79	297.25
415.98	325.33
416.17	220.01
416.36	241.08
416.55	283.20
416.74	358.10
416.93	320.65
417.12	351.08
417.31	325.33
417.50	294.91
417.69	304.27
417.88	262.14
418.07	287.89
418.26	248.10
418.45	322.99
418.64	337.04
418.83	283.20
419.02	390.87
419.21	301.93
419.39	339.38
419.58	327.68
419.77	362.78
419.96	241.08
420.15	351.08
420.34	313.63
420.53	330.02
420.72	407.25
420.91	313.63
421.10	379.17
421.29	360.44
421.48	388.53
421.67	369.80
421.86	365.12
422.05	348.74
422.24	276.18
422.43	449.38
422.61	287.89
422.80	365.12
422.99	374.49
423.18	348.74
423.37	437.68
423.56	365.12
423.75	353.42
423.94	315.97
424.13	369.80
424.32	311.29
424.50	430.66
424.69	414.27
424.88	376.83
425.07	437.68
425.26	315.97
425.45	421.30
425.64	346.40
425.83	390.87
426.01	418.96
426.20	409.59
426.39	428.32
426.58	400.23
426.77	402.57
426.96	383.85
427.15	418.96
427.33	360.44
427.52	402.57
427.71	435.34
427.90	440.02
428.09	421.30
428.28	435.34
428.46	428.32
428.65	430.66
428.84	440.02
429.03	468.11
429.22	353.42
429.40	404.91
429.59	461.09
429.78	451.72
429.97	482.15
430.16	493.85
430.34	489.17
430.53	381.51
430.72	524.28
430.91	465.77
431.10	444.70
431.28	468.11
431.47	547.69
431.66	540.66
431.85	521.94
432.03	545.34
432.22	631.94
432.41	491.51
432.60	564.07
432.79	587.47
432.97	620.24
433.16	554.71
433.35	657.69
433.54	812.17
433.72	842.59
433.91	898.77
434.10	926.85
434.28	1107.07
434.47	1362.19
434.66	1362.19
434.85	1739.02
435.03	3864.22
435.22	14162.58
435.41	36236.17
435.59	50328.54
435.78	38527.56
435.97	17530.61
436.16	6520.73
436.34	2202.44
436.53	1226.44
436.72	1067.28
436.90	854.30
437.09	774.72
437.28	657.69
437.46	653.01
437.65	653.01
437.84	709.18
438.02	571.09
438.21	655.35
438.40	592.16
438.58	613.22
438.77	554.71
438.96	627.26
439.14	592.16
439.33	645.99
439.52	594.50
439.70	557.05
439.89	631.94
440.08	568.75
440.26	613.22
440.45	655.35
440.63	564.07
440.82	526.62
441.01	545.34
441.19	662.37
441.38	592.16
441.57	676.41
441.75	627.26
441.94	629.60
442.12	587.47
442.31	603.86
442.50	599.18
442.68	582.79
442.87	634.29
443.05	638.97
443.24	638.97
443.43	624.92
443.61	617.90
443.80	645.99
443.98	645.99
444.17	662.37
444.35	620.24
444.54	585.13
444.73	585.13
444.91	664.71
445.10	575.77
445.28	545.34
445.47	540.66
445.65	566.41
445.84	505.56
446.02	507.90
446.21	507.90
446.39	547.69
446.58	582.79
446.77	547.69
446.95	554.71
447.14	482.15
447.32	603.86
447.51	578.11
447.69	552.37
447.88	557.05
448.06	550.03
448.25	596.84
448.43	547.69
448.62	594.50
448.80	624.92
448.99	655.35
449.17	613.22
449.36	545.34
449.54	636.63
449.73	620.24
449.91	660.03
450.10	606.20
450.28	660.03
450.46	671.73
450.65	655.35
450.83	585.13
451.02	568.75
451.20	585.13
451.39	559.39
451.57	641.31
451.76	552.37
451.94	540.66
452.13	599.18
452.31	613.22
452.49	564.07
452.68	575.77
452.86	676.41
453.05	624.92
453.23	552.37
453.42	606.20
453.60	526.62
453.78	568.75
453.97	528.96
454.15	550.03
454.34	587.47
454.52	568.75
454.70	519.60
454.89	545.34
455.07	519.60
455.26	571.09
455.44	620.24
455.62	547.69
455.81	557.05
455.99	624.92
456.17	557.05
456.36	582.79
456.54	573.43
456.73	573.43
456.91	580.45
457.09	627.26
457.28	613.22
457.46	543.00
457.64	540.66
457.83	620.24
458.01	599.18
458.19	704.50
458.38	589.82
458.56	500.87
458.74	571.09
458.93	596.84
459.11	393.21
459.29	571.09
459.48	610.88
459.66	706.84
459.84	505.56
460.03	573.43
460.21	559.39
460.39	554.71
460.57	627.26
460.76	603.86
460.94	557.05
461.12	606.20
461.31	573.43
461.49	559.39
461.67	528.96
461.85	559.39
462.04	524.28
462.22	961.96
462.40	582.79
462.59	585.13
462.77	596.84
462.95	674.07
463.13	538.32
463.32	571.09
463.50	547.69
463.68	440.02
463.86	559.39
464.05	589.82
464.23	524.28
464.41	596.84
464.59	669.39
464.78	552.37
464.96	594.50
465.14	505.56
465.32	524.28
465.50	559.39
465.69	564.07
465.87	564.07
466.05	564.07
466.23	505.56
466.41	599.18
466.60	645.99
466.78	578.11
466.96	681.10
467.14	674.07
467.32	601.52
467.51	655.35
467.69	617.90
467.87	561.73
468.05	538.32
468.23	575.77
468.41	503.22
468.60	568.75
468.78	468.11
468.96	521.94
469.14	449.38
469.32	535.98
469.50	538.32
469.69	468.11
469.87	514.92
470.05	489.17
470.23	505.56
470.41	440.02
470.59	526.62
470.77	564.07
470.95	449.38
471.14	528.96
471.32	538.32
471.50	624.92
471.68	510.24
471.86	589.82
472.04	496.19
472.22	578.11
472.40	575.77
472.58	463.43
472.77	505.56
472.95	491.51
473.13	603.86
473.31	500.87
473.49	540.66
473.67	498.53
473.85	578.11
474.03	552.37
474.21	510.24
474.39	571.09
474.57	603.86
474.75	552.37
474.93	498.53
475.12	552.37
475.30	512.58
475.48	533.64
475.66	589.82
475.84	575.77
476.02	526.62
476.20	526.62
476.38	557.05
476.56	559.39
476.74	500.87
476.92	519.60
477.10	566.41
477.28	543.00
477.46	596.84
477.64	575.77
477.82	627.26
478.00	690.46
478.18	599.18
478.36	676.41
478.54	594.50
478.72	758.33
478.90	596.84
479.08	725.57
479.26	716.20
479.44	653.01
479.62	688.12
479.80	767.70
479.98	751.31
480.16	763.01
480.34	891.74
480.52	868.34
480.70	912.81
480.88	919.83
481.06	882.38
481.24	945.58
481.41	985.37
481.59	1132.82
481.77	1233.46
481.95	1242.82
482.13	1203.04
482.31	1277.93
482.49	1399.64
482.67	1675.82
482.85	1755.40
483.03	1795.19
483.21	2033.93
483.39	2165.00
483.57	2111.16
483.74	2396.71
483.92	2403.73
484.10	2532.46
484.28	2640.12
484.46	2876.52
484.64	3042.70
484.82	3155.04
485.00	3398.46
485.18	3438.25
485.35	3784.65
485.53	3922.74
485.71	4128.70
485.89	4348.72
486.07	4304.25
486.25	4447.02
486.43	4428.29
486.61	4397.87
486.78	4428.29
486.96	4503.19
487.14	4449.36
487.32	4552.34
487.50	4526.60
487.68	4397.87
487.85	4133.39
488.03	4191.90
488.21	4187.22
488.39	4058.49
488.57	4002.32
488.75	3932.10
488.92	3915.72
489.10	3786.99
489.28	3742.52
489.46	3574.00
489.64	3503.78
489.81	3435.91
489.99	3353.99
490.17	3410.16
490.35	3431.23
490.53	3236.96
490.70	3218.24
490.88	3412.50
491.06	3522.51
491.24	3658.26
491.41	3782.31
491.59	3676.98
491.77	3344.63
491.95	3164.40
492.13	3169.09
492.30	3117.59
492.48	3049.72
492.66	2979.50
492.84	2963.12
493.01	2932.69
493.19	2897.58
493.37	2801.62
493.54	2764.17
493.72	2754.81
493.90	2616.72
494.08	2686.94
494.25	2775.88
494.43	2647.15
494.61	2588.63
494.79	2555.86
494.96	2399.05
495.14	2473.95
495.32	2258.62
495.49	2438.84
495.67	2331.17
495.85	2303.09
496.02	2239.89
496.20	2195.42
496.38	2202.44
496.55	2054.99
496.73	2036.27
496.91	2038.61
497.09	1970.73
497.26	1905.20
497.44	1970.73
497.62	1818.60
497.79	1902.86
497.97	1867.75
498.14	1760.08
498.32	1816.26
498.50	1673.48
498.67	1710.93
498.85	1579.86
499.03	1610.29
499.20	1495.60
499.38	1526.03
499.56	1500.28
499.73	1413.68
499.91	1563.48
500.08	1502.62
500.26	1322.40
500.44	1343.47
500.61	1350.49
500.79	1205.38
500.97	1184.31
501.14	1139.84
501.32	1039.20
501.49	1111.75
501.67	1015.79
501.84	926.85
502.02	1053.24
502.20	1144.52
502.37	952.60
502.55	954.94
502.72	854.30
502.90	971.32
503.07	931.53
503.25	992.39
503.43	786.42
503.60	823.87
503.78	870.68
503.95	734.93
504.13	758.33
504.30	727.91
504.48	779.40
504.65	805.14
504.83	819.19
505.01	732.59
505.18	690.46
505.36	699.82
505.53	753.65
505.71	657.69
505.88	685.78
506.06	664.71
506.23	676.41
506.41	575.77
506.58	634.29
506.76	667.05
506.93	669.39
507.11	610.88
507.28	559.39
507.46	552.37
507.63	580.45
507.81	552.37
507.98	559.39
508.16	585.13
508.33	685.78
508.50	615.56
508.68	594.50
508.85	695.14
509.03	592.16
509.20	650.67
509.38	608.54
509.55	608.54
509.73	610.88
509.90	554.71
510.08	589.82
510.25	634.29
510.42	531.30
510.60	550.03
510.77	617.90
510.95	514.92
511.12	510.24
511.30	538.32
511.47	521.94
511.64	592.16
511.82	547.69
511.99	533.64
512.17	503.22
512.34	538.32
512.51	531.30
512.69	472.79
512.86	500.87
513.04	496.19
513.21	547.69
513.38	430.66
513.56	510.24
513.73	470.45
513.90	468.11
514.08	475.13
514.25	418.96
514.43	475.13
514.60	402.57
514.77	463.43
514.95	505.56
515.12	503.22
515.29	512.58
515.47	414.27
515.64	449.38
515.81	468.11
515.99	484.49
516.16	514.92
516.33	543.00
516.51	463.43
516.68	423.64
516.85	442.36
517.03	367.46
517.20	486.83
517.37	458.74
517.54	486.83
517.72	428.32
517.89	374.49
518.06	435.34
518.24	461.09
518.41	447.04
518.58	416.62
518.75	475.13
518.93	451.72
519.10	421.30
519.27	402.57
519.45	468.11
519.62	407.25
519.79	435.34
519.96	451.72
520.14	376.83
520.31	411.93
520.48	369.80
520.65	409.59
520.83	372.15
521.00	402.57
521.17	390.87
521.34	477.47
521.52	418.96
521.69	433.00
521.86	376.83
522.03	393.21
522.20	430.66
522.38	381.51
522.55	374.49
522.72	358.10
522.89	437.68
523.07	454.06
523.24	486.83
523.41	386.19
523.58	393.21
523.75	430.66
523.92	440.02
524.10	458.74
524.27	395.55
524.44	421.30
524.61	486.83
524.78	386.19
524.96	440.02
525.13	383.85
525.30	425.98
525.47	454.06
525.64	447.04
525.81	486.83
525.98	461.09
526.16	505.56
526.33	414.27
526.50	390.87
526.67	458.74
526.84	468.11
527.01	517.26
527.18	531.30
527.36	692.80
527.53	582.79
527.70	575.77
527.87	512.58
528.04	653.01
528.21	528.96
528.38	543.00
528.55	585.13
528.72	580.45
528.89	573.43
529.07	566.41
529.24	587.47
529.41	531.30
529.58	543.00
529.75	587.47
529.92	596.84
530.09	669.39
530.26	681.10
530.43	627.26
530.60	706.84
530.77	674.07
530.94	653.01
531.11	725.57
531.28	690.46
531.46	718.54
531.63	777.06
531.80	873.02
531.97	896.43
532.14	1022.81
532.31	1158.57
532.48	1406.66
532.65	1736.68
532.82	1949.67
532.99	2209.47
533.16	2572.25
533.33	2792.26
533.50	2532.46
533.67	2010.52
533.84	1898.17
534.01	1687.53
534.18	1589.22
534.35	1563.48
534.52	1535.39
534.69	1516.67
534.86	1596.25
535.03	1678.16
535.20	1769.44
535.37	1907.54
535.54	1877.11
535.71	2101.80
535.88	2197.76
536.05	2258.62
536.22	2396.71
536.38	2684.59
536.55	2878.86
536.72	3220.58
536.89	3468.67
537.06	3929.76
537.23	4582.77
537.40	4788.74
537.57	5263.86
537.74	5767.08
537.91	6015.18
538.08	5856.02
538.25	6150.93
538.42	6244.55
538.59	6300.72
538.75	6349.87
538.92	7023.95
539.09	7503.76
539.26	8152.09
539.43	9233.41
539.60	10586.24
539.77	11889.92
539.94	13619.58
540.11	15360.94
540.28	16402.47
540.44	17666.36
540.61	19988.18
540.78	22288.92
540.95	26981.70
541.12	32704.31
541.29	37158.34
541.46	39702.51
541.62	39515.26
541.79	38459.68
541.96	35250.81
542.13	33034.32
542.30	30815.49
542.47	28479.64
542.63	26740.62
542.80	25759.94
542.97	25373.75
543.14	25149.06
543.31	25500.14
543.48	25357.36
543.64	26010.37
543.81	26073.57
543.98	26216.34
544.15	26008.03
544.32	26579.12
544.48	26487.84
544.65	26115.70
544.82	25692.06
544.99	25879.30
545.16	26204.64
545.32	27644.07
545.49	39339.72
545.66	60423.27
545.83	65535.00
546.00	65535.00
546.16	62583.58
546.33	45621.72
546.50	34969.94
546.67	27473.21
546.83	24093.47
547.00	23250.88
547.17	21823.16
547.34	21008.65
547.50	20341.60
547.67	19550.49
547.84	18457.46
548.00	17858.29
548.17	17128.04
548.34	15978.84
548.51	15889.90
548.67	15075.39
548.84	14621.33
549.01	13617.24
549.18	12837.84
549.34	12458.67
549.51	12086.53
549.68	11365.64
549.84	10916.26
550.01	10583.90
550.18	10253.89
550.34	9570.45
550.51	9067.24
550.68	8674.03
550.84	8468.06
551.01	7978.89
551.18	7412.48
551.34	7066.08
551.51	6658.82
551.68	6410.73
551.84	6370.94
552.01	6106.46
552.18	5984.75
552.34	5458.13
552.51	5205.35
552.68	4985.34
552.84	4959.60
553.01	4779.37
553.18	4603.83
553.34	4386.16
553.51	4168.49
553.67	4170.83
553.84	4154.45
554.01	3637.19
554.17	3520.17
554.34	3176.11
554.51	2944.39
554.67	2782.90
554.84	2717.36
555.00	2555.86
555.17	2441.18
555.33	2431.82
555.50	2310.11
555.67	2111.16
555.83	2146.27
556.00	1980.09
556.16	2073.71
556.33	1816.26
556.50	1760.08
556.66	1706.25
556.83	1591.56
556.99	1629.01
557.16	1582.20
557.32	1504.96
557.49	1549.43
557.65	1460.49
557.82	1376.24
557.98	1329.42
558.15	1371.55
558.32	1256.87
558.48	1224.10
558.65	1289.64
558.81	1261.55
558.98	1158.57
559.14	1186.65
559.31	1135.16
559.47	1027.50
559.64	1146.86
559.80	1036.86
559.97	1050.90
560.13	1104.73
560.30	1043.88
560.46	1090.69
560.63	1057.92
560.79	1095.37
560.96	994.73
561.12	1015.79
561.29	999.41
561.45	1043.88
561.61	1050.90
561.78	1135.16
561.94	945.58
562.11	976.00
562.27	973.66
562.44	1039.20
562.60	1088.35
562.77	964.30
562.93	992.39
563.10	1032.18
563.26	880.04
563.42	931.53
563.59	954.94
563.75	980.68
563.92	954.94
564.08	863.66
564.24	844.93
564.41	908.13
564.57	926.85
564.74	786.42
564.90	795.78
565.07	816.85
565.23	793.44
565.39	748.97
565.56	805.14
565.72	706.84
565.88	767.70
566.05	744.29
566.21	788.76
566.38	875.36
566.54	823.87
566.70	844.93
566.87	781.74
567.03	802.80
567.19	863.66
567.36	823.87
567.52	755.99
567.68	734.93
567.85	683.44
568.01	866.00
568.17	819.19
568.34	882.38
568.50	891.74
568.66	856.64
568.83	933.87
568.99	840.25
569.15	751.31
569.32	777.06
569.48	699.82
569.64	688.12
569.81	697.48
569.97	629.60
570.13	631.94
570.30	610.88
570.46	608.54
570.62	596.84
570.78	566.41
570.95	540.66
571.11	617.90
571.27	638.97
571.43	566.41
571.60	568.75
571.76	498.53
571.92	608.54
572.09	617.90
572.25	613.22
572.41	624.92
572.57	582.79
572.74	622.58
572.90	655.35
573.06	592.16
573.22	685.78
573.38	767.70
573.55	610.88
573.71	664.71
573.87	718.54
574.03	688.12
574.20	678.76
574.36	690.46
574.52	739.61
574.68	805.14
574.84	828.55
575.01	856.64
575.17	809.83
575.33	809.83
575.49	922.17
575.65	1020.47
575.82	1132.82
575.98	1165.59
576.14	1329.42
576.30	2396.71
576.46	7428.86
576.62	15468.60
576.79	21666.34
576.95	15602.01
577.11	9081.28
577.27	6174.33
577.43	3985.93
577.59	2572.25
577.75	2066.69
577.92	1792.85
578.08	1781.15
578.24	1877.11
578.40	2619.06
578.56	6946.71
578.72	14174.28
578.88	20575.65
579.04	14445.79
579.21	8772.33
579.37	6436.47
579.53	4943.21
579.69	4496.17
579.85	5418.34
580.01	6846.07
580.17	6867.13
580.33	5987.09
580.49	4823.84
580.65	4189.56
580.82	4030.40
580.98	3786.99
581.14	3833.80
581.30	3929.76
581.46	4313.61
581.62	4559.36
581.78	4908.10
581.94	5390.25
582.10	5893.47
582.26	6207.10
582.42	6141.57
582.58	6366.26
582.74	6469.24
582.90	6431.79
583.06	6752.45
583.22	6349.87
583.38	6696.27
583.54	6593.29
583.70	6483.28
583.86	6583.93
584.02	6427.11
584.18	6356.90
584.34	6230.51
584.50	6118.16
584.66	5959.00
584.82	6024.54
584.98	5692.18
585.14	5930.92
585.30	5713.25
585.46	5715.59
585.62	5535.37
585.78	5373.87
585.94	5469.83
586.10	5600.90
586.26	5851.34
586.42	6518.39
586.58	7777.60
586.74	9551.73
586.90	11714.38
587.06	13132.75
587.22	13015.72
587.38	11971.84
587.54	10333.47
587.70	8613.17
587.86	7328.22
588.02	6127.52
588.18	5544.73
588.34	4767.67
588.49	4409.57
588.65	4098.28
588.81	3882.95
588.97	3854.86
589.13	3761.24
589.29	3574.00
589.45	3658.26
589.61	3606.77
589.77	3611.45
589.93	3723.79
590.08	3742.52
590.24	3929.76
590.40	3978.91
590.56	4002.32
590.72	4212.96
590.88	4322.97
591.04	4475.10
591.20	4624.90
591.35	4849.59
591.51	4980.66
591.67	5324.72
591.83	5579.84
591.99	6160.29
592.15	6544.14
592.31	7023.95
592.46	7620.78
592.62	8411.89
592.78	9092.98
592.94	9486.19
593.10	9413.63
593.26	8891.70
593.41	8238.69
593.57	7463.97
593.73	6532.44
593.89	5902.83
594.05	5195.99
594.20	4601.49
594.36	4269.14
594.52	3875.93
594.68	3744.86
594.84	3555.27
594.99	3487.40
595.15	3239.30
595.31	3234.62
595.47	3276.75
595.62	3361.01
595.78	3297.81
595.94	3279.09
596.10	3225.26
596.25	3302.50
596.41	3330.58
596.57	3180.79
596.73	3145.68
596.88	3262.71
597.04	3283.77
597.20	3220.58
597.36	3396.12
597.51	3449.95
597.67	3503.78
597.83	3740.18
597.99	3852.52
598.14	4124.02
598.30	4374.46
598.46	4498.51
598.61	4772.35
598.77	5165.56
598.93	5401.96
599.09	5523.66
599.24	5582.18
599.40	5528.35
599.56	5507.28
599.71	5245.14
599.87	4896.40
600.03	4559.36
600.18	4313.61
600.34	4084.23
600.50	3737.84
600.65	3335.26
600.81	3307.18
600.97	3124.62
601.12	3038.02
601.28	2869.50
601.44	2722.04
601.59	2698.64
601.75	2520.76
601.91	2305.43
602.06	2221.17
602.22	2328.83
602.37	2155.63
602.53	2139.25
602.69	2143.93
602.84	2111.16
603.00	2085.42
603.16	2153.29
603.31	2239.89
603.47	2237.55
603.62	2296.07
603.78	2392.03
603.94	2382.67
604.09	2389.69
604.25	2492.67
604.40	2466.92
604.56	2520.76
604.71	2490.33
604.87	2588.63
605.03	2752.47
605.18	2675.23
605.34	2642.46
605.49	2750.13
605.65	2832.05
605.80	3009.93
605.96	2843.75
606.12	3075.46
606.27	3201.85
606.43	3389.10
606.58	3524.85
606.74	3634.85
606.89	3838.48
607.05	4032.74
607.20	4175.52
607.36	4533.62
607.51	4898.74
607.67	5060.24
607.82	5488.56
607.98	5813.89
608.13	6207.10
608.29	6707.98
608.44	7290.77
608.60	7829.09
608.75	8755.94
608.91	9427.68
609.06	10738.38
609.22	11871.20
609.37	13055.51
609.53	14326.42
609.68	16446.94
609.84	18925.57
609.99	21963.59
610.15	26043.14
610.30	31276.58
610.46	39342.06
610.61	49624.04
610.76	57411.00
610.92	63189.78
611.07	65535.00
611.23	65535.00
611.38	65535.00
611.54	64015.99
611.69	60041.76
611.84	54735.77
612.00	48413.98
612.15	41151.30
612.31	36130.85
612.46	31976.40
612.62	29546.92
612.77	27515.34
612.92	26061.87
613.08	24540.52
613.23	23372.59
613.39	22824.90
613.54	22207.00
613.69	21598.46
613.85	20566.29
614.00	20456.28
614.15	20711.40
614.31	20081.80
614.46	20463.30
614.62	19517.73
614.77	18583.85
614.92	17472.10
615.08	16372.05
615.23	15077.73
615.38	13547.02
615.54	12627.19
615.69	11690.98
615.84	10274.95
616.00	9511.94
616.15	9041.49
616.30	8362.73
616.46	7922.71
616.61	7419.50
616.76	7019.27
616.92	6738.40
617.07	6354.55
617.22	5926.24
617.37	5514.30
617.53	5371.53
617.68	5036.83
617.83	4964.28
617.99	4784.06
618.14	4702.14
618.29	4550.00
618.45	4351.06
618.60	4294.88
618.75	4376.80
618.90	4245.73
619.06	4215.30
619.21	4273.82
619.36	4002.32
619.51	4161.47
619.67	4203.60
619.82	4133.39
619.97	4379.14
620.12	4245.73
620.28	4353.40
620.43	4557.02
620.58	4531.28
620.73	4645.96
620.89	4594.47
621.04	4496.17
621.19	4636.60
621.34	4362.76
621.49	4201.26
621.65	4404.89
621.80	4400.21
621.95	4339.35
622.10	4290.20
622.25	4477.44
622.41	4374.46
622.56	4704.48
622.71	4535.96
622.86	4882.36
623.01	4802.78
623.16	5043.85
623.32	4889.38
623.47	5118.75
623.62	4945.55
623.77	4819.16
623.92	4898.74
624.07	4957.25
624.23	4833.21
624.38	4931.51
624.53	5020.45
624.68	4919.81
624.83	5048.54
624.98	5144.50
625.13	4999.38
625.29	5144.50
625.44	5170.24
625.59	5128.11
625.74	5097.69
625.89	5029.81
626.04	5149.18
626.19	5221.74
626.34	5050.88
626.49	5036.83
626.65	5018.11
626.80	5081.30
626.95	4910.44
627.10	4922.15
627.25	4779.37
627.40	4730.22
627.55	4720.86
627.70	4559.36
627.85	4620.22
628.00	4685.75
628.15	4514.89
628.30	4428.29
628.45	4402.55
628.60	4498.51
628.76	4475.10
628.91	4505.53
629.06	4617.88
629.21	4456.38
629.36	4638.94
629.51	4795.76
629.66	5238.12
629.81	5497.92
629.96	5879.43
630.11	6480.94
630.26	7183.10
630.41	8208.26
630.56	9013.40
630.71	9565.77
630.86	10303.04
631.01	9792.80
631.16	9291.93
631.31	8271.45
631.46	6963.09
631.61	6029.22
631.76	5160.88
631.91	4367.44
632.06	3625.49
632.21	3171.43
632.36	2703.32
632.51	2305.43
632.66	2270.32
632.81	2078.40
632.96	1980.09
633.10	1898.17
633.25	1739.02
633.40	1645.40
633.55	1617.31
633.70	1528.37
633.85	1413.68
634.00	1343.47
634.15	1425.39
634.30	1336.45
634.45	1451.13
634.60	1226.44
634.75	1336.45
634.90	1277.93
635.05	1261.55
635.19	1240.48
635.34	1207.72
635.49	1184.31
635.64	1186.65
635.79	1137.50
635.94	1144.52
636.09	1181.97
636.24	1130.48
636.39	1109.41
636.53	1111.75
636.68	1137.50
636.83	1050.90
636.98	1018.13
637.13	938.55
637.28	973.66
637.43	1149.20
637.57	1102.39
637.72	964.30
637.87	973.66
638.02	908.13
638.17	863.66
638.32	854.30
638.46	866.00
638.61	851.96
638.76	891.74
638.91	889.40
639.06	926.85
639.20	891.74
639.35	924.51
639.50	823.87
639.65	896.43
639.80	826.21
639.94	875.36
640.09	837.91
640.24	887.06
640.39	814.51
640.54	835.57
640.68	856.64
640.83	786.42
640.98	828.55
641.13	739.61
641.27	858.98
641.42	777.06
641.57	858.98
641.72	844.93
641.86	732.59
642.01	812.17
642.16	844.93
642.31	873.02
642.45	793.44
642.60	833.23
642.75	812.17
642.90	800.46
643.04	858.98
643.19	807.48
643.34	851.96
643.48	828.55
643.63	891.74
643.78	830.89
643.93	910.47
644.07	884.72
644.22	814.51
644.37	758.33
644.51	809.83
644.66	851.96
644.81	828.55
644.95	938.55
645.10	800.46
645.25	763.01
645.39	828.55
645.54	842.59
645.69	849.61
645.83	854.30
645.98	866.00
646.13	699.82
646.27	720.88
646.42	716.20
646.57	744.29
646.71	734.93
646.86	713.86
647.00	823.87
647.15	763.01
647.30	706.84
647.44	781.74
647.59	812.17
647.74	758.33
647.88	837.91
648.03	779.40
648.17	887.06
648.32	798.12
648.47	830.89
648.61	828.55
648.76	847.27
648.90	894.08
649.05	889.40
649.20	983.02
649.34	1060.26
649.49	1107.07
649.63	1338.79
649.78	1638.38
649.92	1851.36
650.07	2230.53
650.21	2635.44
650.36	2829.71
650.51	2696.30
650.65	2583.95
650.80	2310.11
650.94	2047.97
651.09	1895.83
651.23	1671.14
651.38	1511.99
651.52	1455.81
651.67	1284.95
651.81	1130.48
651.96	1055.58
652.10	1025.15
652.25	1139.84
652.39	1062.60
652.54	1125.80
652.68	1273.25
652.83	1252.19
652.97	1401.98
653.12	1282.61
653.26	1322.40
653.41	1320.06
653.55	1172.61
653.70	1135.16
653.84	978.34
653.99	1055.58
654.13	901.11
654.27	861.32
654.42	854.30
654.56	912.81
654.71	723.23
654.85	851.96
655.00	760.67
655.14	781.74
655.29	709.18
655.43	760.67
655.57	800.46
655.72	727.91
655.86	657.69
656.01	678.76
656.15	667.05
656.30	739.61
656.44	720.88
656.58	655.35
656.73	688.12
656.87	699.82
657.01	863.66
657.16	933.87
657.30	922.17
657.45	880.04
657.59	901.11
657.73	957.28
657.88	961.96
658.02	926.85
658.16	793.44
658.31	770.04
658.45	692.80
658.60	678.76
658.74	629.60
658.88	634.29
659.03	634.29
659.17	660.03
659.31	578.11
659.46	606.20
659.60	592.16
659.74	491.51
659.89	575.77
660.03	491.51
660.17	608.54
660.32	692.80
660.46	545.34
660.60	582.79
660.74	662.37
660.89	559.39
661.03	624.92
661.17	657.69
661.32	681.10
661.46	814.51
661.60	873.02
661.74	1078.99
661.89	1263.89
662.03	1373.89
662.17	1617.31
662.31	1650.08
662.46	1645.40
662.60	1479.22
662.74	1401.98
662.88	1270.91
663.03	1167.93
663.17	997.07
663.31	875.36
663.45	793.44
663.60	802.80
663.74	788.76
663.88	697.48
664.02	720.88
664.17	674.07
664.31	660.03
664.45	528.96
664.59	674.07
664.73	557.05
664.88	645.99
665.02	592.16
665.16	526.62
665.30	592.16
665.44	603.86
665.59	580.45
665.73	425.98
665.87	524.28
666.01	505.56
666.15	519.60
666.29	524.28
666.44	554.71
666.58	589.82
666.72	552.37
666.86	533.64
667.00	543.00
667.14	559.39
667.28	566.41
667.43	578.11
667.57	564.07
667.71	573.43
667.85	512.58
667.99	638.97
668.13	573.43
668.27	543.00
668.41	540.66
668.56	491.51
668.70	533.64
668.84	561.73
668.98	468.11
669.12	489.17
669.26	409.59
669.40	528.96
669.54	416.62
669.68	496.19
669.82	402.57
669.96	440.02
670.10	470.45
670.25	500.87
670.39	505.56
670.53	479.81
670.67	470.45
670.81	418.96
670.95	526.62
671.09	500.87
671.23	533.64
671.37	451.72
671.51	461.09
671.65	486.83
671.79	463.43
671.93	411.93
672.07	477.47
672.21	465.77
672.35	524.28
672.49	468.11
672.63	512.58
672.77	463.43
672.91	395.55
673.05	454.06
673.19	437.68
673.33	400.23
673.47	498.53
673.61	433.00
673.75	437.68
673.89	372.15
674.03	421.30
674.17	428.32
674.31	512.58
674.45	498.53
674.59	395.55
674.73	386.19
674.87	433.00
675.01	510.24
675.15	344.06
675.29	421.30
675.43	397.89
675.56	449.38
675.70	433.00
675.84	482.15
675.98	463.43
676.12	393.21
676.26	423.64
676.40	348.74
676.54	414.27
676.68	355.76
676.82	311.29
676.96	360.44
677.10	353.42
677.23	320.65
677.37	418.96
677.51	297.25
677.65	353.42
677.79	358.10
677.93	355.76
678.07	433.00
678.21	308.95
678.34	318.31
678.48	311.29
678.62	372.15
678.76	362.78
678.90	397.89
679.04	390.87
679.18	386.19
679.31	360.44
679.45	383.85
679.59	430.66
679.73	416.62
679.87	360.44
680.00	510.24
680.14	484.49
680.28	411.93
680.42	397.89
680.56	437.68
680.70	423.64
680.83	458.74
680.97	496.19
681.11	369.80
681.25	400.23
681.39	447.04
681.52	376.83
681.66	430.66
681.80	468.11
681.94	423.64
682.07	346.40
682.21	418.96
682.35	367.46
682.49	353.42
682.62	388.53
682.76	346.40
682.90	341.72
683.04	369.80
683.17	306.61
683.31	341.72
683.45	447.04
683.59	477.47
683.72	409.59
683.86	344.06
684.00	355.76
684.13	423.64
684.27	388.53
684.41	341.72
684.55	369.80
684.68	322.99
684.82	416.62
684.96	376.83
685.09	297.25
685.23	449.38
685.37	327.68
685.50	491.51
685.64	507.90
685.78	437.68
685.91	397.89
686.05	395.55
686.19	470.45
686.32	442.36
686.46	489.17
686.60	496.19
686.73	800.46
686.87	709.18
687.01	678.76
687.14	784.08
687.28	844.93
687.42	844.93
687.55	868.34
687.69	1043.88
687.82	936.21
687.96	936.21
688.10	947.92
688.23	940.90
688.37	802.80
688.50	788.76
688.64	641.31
688.78	596.84
688.91	540.66
689.05	496.19
689.18	479.81
689.32	400.23
689.46	465.77
689.59	451.72
689.73	339.38
689.86	290.23
690.00	379.17
690.13	224.69
690.27	290.23
690.41	313.63
690.54	395.55
690.68	447.04
690.81	440.02
690.95	313.63
691.08	301.93
691.22	271.50
691.35	252.78
691.49	325.33
691.62	266.82
691.76	191.92
691.89	184.90
692.03	245.76
692.16	334.70
692.30	306.61
692.43	276.18
692.57	220.01
692.70	344.06
692.84	425.98
692.97	379.17
693.11	411.93
693.24	475.13
693.38	543.00
693.51	734.93
693.65	816.85
693.78	770.04
693.92	851.96
694.05	674.07
694.19	528.96
694.32	517.26
694.45	409.59
694.59	479.81
694.72	334.70
694.86	397.89
694.99	334.70
695.13	241.08
695.26	217.67
695.39	224.69
695.53	334.70
695.66	201.29
695.80	294.91
695.93	191.92
696.07	297.25
696.20	217.67
696.33	311.29
696.47	266.82
696.60	313.63
696.73	255.12
696.87	294.91
697.00	243.42
697.14	238.73
697.27	201.29
697.40	215.33
697.54	161.50
697.67	191.92
697.80	222.35
697.94	168.52
698.07	227.03
698.21	215.33
698.34	227.03
698.47	212.99
698.61	184.90
698.74	177.88
698.87	184.90
699.01	245.76
699.14	201.29
699.27	210.65
699.40	189.58
699.54	182.56
699.67	210.65
699.80	117.03
699.94	177.88
700.07	217.67
700.20	166.18
700.34	187.24
700.47	203.63
700.60	126.39
700.73	189.58
700.87	301.93
701.00	133.41
701.13	182.56
701.26	283.20
701.40	163.84
701.53	205.97
701.66	191.92
701.79	250.44
701.93	194.26
702.06	243.42
702.19	196.60
702.32	255.12
702.46	187.24
702.59	191.92
702.72	234.05
702.85	212.99
702.99	191.92
703.12	276.18
703.25	257.46
703.38	294.91
703.51	238.73
703.65	283.20
703.78	222.35
703.91	276.18
704.04	283.20
704.17	355.76
704.31	304.27
704.44	334.70
704.57	299.59
704.70	273.84
704.83	315.97
704.96	360.44
705.10	273.84
705.23	414.27
>>>>>End Processed Spectral Data<<<<<
