SpectraSuite Data File
++++++++++++++++++++++++++++++++++++
Date: Fri Oct 04 11:41:48 GMT-05:00 2013
User: price-jones
Dark Spectrum Present: No
Reference Spectrum Present: No
Number of Sampled Component Spectra: 1
Spectrometers: USB2+H05261
Integration Time (usec): 100000 (USB2+H05261)
Spectra Averaged: 1 (USB2+H05261)
Boxcar Smoothing: 0 (USB2+H05261)
Correct for Electrical Dark: No (USB2+H05261)
Strobe/Lamp Enabled: No (USB2+H05261)
Correct for Detector Non-linearity: No (USB2+H05261)
Correct for Stray Light: No (USB2+H05261)
Number of Pixels in Processed Spectrum: 2048
>>>>>Begin Processed Spectral Data<<<<<
365.73	25.75
365.92	25.75
366.12	25.75
366.32	0.00
366.52	0.00
366.72	4.68
366.91	0.00
367.11	0.00
367.31	0.00
367.51	0.00
367.70	0.00
367.90	0.00
368.10	0.00
368.30	0.00
368.49	0.00
368.69	14.04
368.89	0.00
369.09	0.00
369.28	0.00
369.48	0.00
369.68	0.00
369.87	0.00
370.07	0.00
370.27	35.11
370.47	0.00
370.66	4.68
370.86	63.19
371.06	140.43
371.25	133.41
371.45	32.77
371.65	30.43
371.84	86.60
372.04	86.60
372.24	86.60
372.44	58.51
372.63	93.62
372.83	126.39
373.03	159.16
373.22	149.79
373.42	152.13
373.62	138.09
373.81	198.95
374.01	182.56
374.21	135.75
374.40	100.64
374.60	124.05
374.79	128.73
374.99	79.58
375.19	161.50
375.38	170.86
375.58	135.75
375.78	95.96
375.97	149.79
376.17	140.43
376.37	163.84
376.56	131.07
376.76	163.84
376.95	86.60
377.15	88.94
377.35	138.09
377.54	189.58
377.74	37.45
377.93	117.03
378.13	166.18
378.33	154.48
378.52	74.90
378.72	138.09
378.91	124.05
379.11	154.48
379.31	121.71
379.50	105.32
379.70	84.26
379.89	152.13
380.09	124.05
380.28	142.77
380.48	145.11
380.68	51.49
380.87	180.22
381.07	149.79
381.26	74.90
381.46	42.13
381.65	72.56
381.85	100.64
382.04	105.32
382.24	117.03
382.43	119.37
382.63	154.48
382.83	100.64
383.02	95.96
383.22	81.92
383.41	70.22
383.61	152.13
383.80	156.82
384.00	77.24
384.19	138.09
384.39	138.09
384.58	124.05
384.78	152.13
384.97	46.81
385.17	154.48
385.36	91.28
385.56	114.69
385.75	112.35
385.95	98.30
386.14	95.96
386.34	95.96
386.53	126.39
386.72	107.66
386.92	177.88
387.11	107.66
387.31	184.90
387.50	72.56
387.70	105.32
387.89	74.90
388.09	163.84
388.28	72.56
388.48	126.39
388.67	149.79
388.86	135.75
389.06	149.79
389.25	79.58
389.45	88.94
389.64	86.60
389.84	117.03
390.03	173.20
390.22	138.09
390.42	149.79
390.61	70.22
390.81	86.60
391.00	23.41
391.19	166.18
391.39	138.09
391.58	168.52
391.78	81.92
391.97	93.62
392.16	95.96
392.36	201.29
392.55	135.75
392.75	227.03
392.94	166.18
393.13	119.37
393.33	102.98
393.52	170.86
393.71	182.56
393.91	124.05
394.10	98.30
394.29	107.66
394.49	175.54
394.68	177.88
394.88	98.30
395.07	170.86
395.26	124.05
395.46	128.73
395.65	159.16
395.84	166.18
396.04	208.31
396.23	138.09
396.42	182.56
396.62	173.20
396.81	128.73
397.00	67.88
397.19	35.11
397.39	138.09
397.58	133.41
397.77	107.66
397.97	131.07
398.16	124.05
398.35	161.50
398.55	121.71
398.74	72.56
398.93	114.69
399.12	154.48
399.32	154.48
399.51	168.52
399.70	166.18
399.90	105.32
400.09	161.50
400.28	93.62
400.47	161.50
400.67	191.92
400.86	152.13
401.05	161.50
401.24	166.18
401.44	255.12
401.63	107.66
401.82	203.63
402.01	133.41
402.21	252.78
402.40	191.92
402.59	208.31
402.78	231.71
402.97	205.97
403.17	285.55
403.36	262.14
403.55	301.93
403.74	685.78
403.93	2015.20
404.13	5294.29
404.32	7578.65
404.51	6654.14
404.70	4070.19
404.89	1568.16
405.09	599.18
405.28	269.16
405.47	262.14
405.66	177.88
405.85	224.69
406.05	234.05
406.24	163.84
406.43	191.92
406.62	142.77
406.81	252.78
407.00	334.70
407.20	617.90
407.39	1022.81
407.58	1055.58
407.77	786.42
407.96	430.66
408.15	259.80
408.34	262.14
408.54	210.65
408.73	297.25
408.92	191.92
409.11	173.20
409.30	248.10
409.49	138.09
409.68	182.56
409.87	168.52
410.07	177.88
410.26	212.99
410.45	180.22
410.64	163.84
410.83	170.86
411.02	231.71
411.21	278.52
411.40	217.67
411.59	189.58
411.78	201.29
411.98	238.73
412.17	175.54
412.36	182.56
412.55	224.69
412.74	257.46
412.93	198.95
413.12	212.99
413.31	252.78
413.50	245.76
413.69	224.69
413.88	313.63
414.07	280.86
414.26	238.73
414.45	229.37
414.64	238.73
414.83	184.90
415.02	238.73
415.22	231.71
415.41	264.48
415.60	175.54
415.79	220.01
415.98	269.16
416.17	330.02
416.36	259.80
416.55	262.14
416.74	187.24
416.93	285.55
417.12	217.67
417.31	208.31
417.50	290.23
417.69	320.65
417.88	276.18
418.07	290.23
418.26	177.88
418.45	259.80
418.64	337.04
418.83	278.52
419.02	299.59
419.21	283.20
419.39	191.92
419.58	269.16
419.77	248.10
419.96	341.72
420.15	269.16
420.34	175.54
420.53	271.50
420.72	280.86
420.91	330.02
421.10	259.80
421.29	322.99
421.48	276.18
421.67	278.52
421.86	276.18
422.05	318.31
422.24	294.91
422.43	280.86
422.61	271.50
422.80	320.65
422.99	313.63
423.18	269.16
423.37	285.55
423.56	351.08
423.75	353.42
423.94	271.50
424.13	294.91
424.32	337.04
424.50	297.25
424.69	304.27
424.88	393.21
425.07	245.76
425.26	374.49
425.45	280.86
425.64	330.02
425.83	276.18
426.01	278.52
426.20	304.27
426.39	327.68
426.58	262.14
426.77	285.55
426.96	449.38
427.15	341.72
427.33	304.27
427.52	234.05
427.71	332.36
427.90	374.49
428.09	355.76
428.28	332.36
428.46	337.04
428.65	348.74
428.84	327.68
429.03	402.57
429.22	294.91
429.40	346.40
429.59	374.49
429.78	468.11
429.97	388.53
430.16	383.85
430.34	407.25
430.53	388.53
430.72	402.57
430.91	332.36
431.10	358.10
431.28	440.02
431.47	388.53
431.66	400.23
431.85	381.51
432.03	435.34
432.22	489.17
432.41	468.11
432.60	468.11
432.79	486.83
432.97	486.83
433.16	468.11
433.35	603.86
433.54	620.24
433.72	585.13
433.91	643.65
434.10	720.88
434.28	873.02
434.47	959.62
434.66	978.34
434.85	1385.60
435.03	3473.36
435.22	12912.74
435.41	31208.70
435.59	35386.56
435.78	22939.59
435.97	11424.15
436.16	4404.89
436.34	1526.03
436.53	961.96
436.72	711.52
436.90	608.54
437.09	638.97
437.28	589.82
437.46	507.90
437.65	594.50
437.84	496.19
438.02	561.73
438.21	540.66
438.40	447.04
438.58	512.58
438.77	482.15
438.96	351.08
439.14	500.87
439.33	486.83
439.52	425.98
439.70	538.32
439.89	489.17
440.08	526.62
440.26	461.09
440.45	435.34
440.63	482.15
440.82	503.22
441.01	444.70
441.19	498.53
441.38	475.13
441.57	430.66
441.75	451.72
441.94	493.85
442.12	479.81
442.31	479.81
442.50	517.26
442.68	458.74
442.87	514.92
443.05	498.53
443.24	463.43
443.43	489.17
443.61	566.41
443.80	433.00
443.98	512.58
444.17	491.51
444.35	500.87
444.54	461.09
444.73	423.64
444.91	521.94
445.10	543.00
445.28	418.96
445.47	472.79
445.65	505.56
445.84	383.85
446.02	411.93
446.21	461.09
446.39	491.51
446.58	414.27
446.77	376.83
446.95	479.81
447.14	479.81
447.32	514.92
447.51	496.19
447.69	543.00
447.88	421.30
448.06	482.15
448.25	489.17
448.43	498.53
448.62	484.49
448.80	463.43
448.99	456.40
449.17	552.37
449.36	477.47
449.54	454.06
449.73	404.91
449.91	533.64
450.10	531.30
450.28	540.66
450.46	521.94
450.65	524.28
450.83	433.00
451.02	503.22
451.20	540.66
451.39	521.94
451.57	402.57
451.76	493.85
451.94	444.70
452.13	507.90
452.31	526.62
452.49	517.26
452.68	519.60
452.86	421.30
453.05	491.51
453.23	461.09
453.42	486.83
453.60	493.85
453.78	404.91
453.97	454.06
454.15	348.74
454.34	409.59
454.52	514.92
454.70	489.17
454.89	451.72
455.07	456.40
455.26	500.87
455.44	486.83
455.62	468.11
455.81	477.47
455.99	521.94
456.17	444.70
456.36	491.51
456.54	470.45
456.73	489.17
456.91	458.74
457.09	388.53
457.28	507.90
457.46	376.83
457.64	449.38
457.83	428.32
458.01	390.87
458.19	404.91
458.38	454.06
458.56	400.23
458.74	428.32
458.93	442.36
459.11	409.59
459.29	482.15
459.48	386.19
459.66	440.02
459.84	411.93
460.03	543.00
460.21	456.40
460.39	519.60
460.57	451.72
460.76	383.85
460.94	395.55
461.12	491.51
461.31	500.87
461.49	479.81
461.67	451.72
461.85	472.79
462.04	425.98
462.22	919.83
462.40	489.17
462.59	353.42
462.77	397.89
462.95	395.55
463.13	465.77
463.32	463.43
463.50	442.36
463.68	472.79
463.86	472.79
464.05	430.66
464.23	493.85
464.41	489.17
464.59	524.28
464.78	538.32
464.96	433.00
465.14	381.51
465.32	510.24
465.50	470.45
465.69	479.81
465.87	447.04
466.05	524.28
466.23	430.66
466.41	454.06
466.60	479.81
466.78	465.77
466.96	533.64
467.14	475.13
467.32	507.90
467.51	498.53
467.69	449.38
467.87	435.34
468.05	411.93
468.23	397.89
468.41	379.17
468.60	489.17
468.78	393.21
468.96	468.11
469.14	449.38
469.32	435.34
469.50	334.70
469.69	395.55
469.87	372.15
470.05	428.32
470.23	486.83
470.41	360.44
470.59	402.57
470.77	416.62
470.95	341.72
471.14	430.66
471.32	437.68
471.50	468.11
471.68	447.04
471.86	442.36
472.04	491.51
472.22	461.09
472.40	421.30
472.58	454.06
472.77	535.98
472.95	414.27
473.13	517.26
473.31	470.45
473.49	395.55
473.67	414.27
473.85	503.22
474.03	416.62
474.21	442.36
474.39	484.49
474.57	475.13
474.75	372.15
474.93	472.79
475.12	407.25
475.30	470.45
475.48	528.96
475.66	442.36
475.84	437.68
476.02	482.15
476.20	404.91
476.38	447.04
476.56	543.00
476.74	505.56
476.92	421.30
477.10	435.34
477.28	472.79
477.46	435.34
477.64	461.09
477.82	514.92
478.00	468.11
478.18	617.90
478.36	475.13
478.54	484.49
478.72	468.11
478.90	564.07
479.08	500.87
479.26	519.60
479.44	636.63
479.62	608.54
479.80	566.41
479.98	643.65
480.16	610.88
480.34	727.91
480.52	660.03
480.70	643.65
480.88	660.03
481.06	788.76
481.24	730.25
481.41	786.42
481.59	861.32
481.77	908.13
481.95	896.43
482.13	1027.50
482.31	1039.20
482.49	1174.95
482.67	1217.08
482.85	1310.70
483.03	1331.76
483.21	1486.24
483.39	1458.15
483.57	1624.33
483.74	1785.83
483.92	1661.78
484.10	1895.83
484.28	2129.89
484.46	2134.57
484.64	2267.98
484.82	2347.56
485.00	2377.98
485.18	2576.93
485.35	2731.41
485.53	2876.52
485.71	3054.40
485.89	2993.55
486.07	3061.42
486.25	3087.17
486.43	3325.90
486.61	3220.58
486.78	3309.52
486.96	3199.51
487.14	3279.09
487.32	3187.81
487.50	3115.25
487.68	3145.68
487.85	3204.19
488.03	3211.22
488.21	3138.66
488.39	3021.63
488.57	2869.50
488.75	2785.24
488.92	3002.91
489.10	2733.75
489.28	2693.96
489.46	2665.87
489.64	2499.69
489.81	2609.70
489.99	2516.08
490.17	2471.61
490.35	2490.33
490.53	2429.48
490.70	2499.69
490.88	2462.24
491.06	2672.89
491.24	2796.94
491.41	2766.51
491.59	2654.17
491.77	2499.69
491.95	2277.34
492.13	2258.62
492.30	2392.03
492.48	2204.78
492.66	2190.74
492.84	2181.38
493.01	2216.49
493.19	2024.56
493.37	2113.50
493.54	2017.54
493.72	1886.47
493.90	1935.62
494.08	1998.82
494.25	1912.22
494.43	1900.52
494.61	1790.51
494.79	1933.28
494.96	1774.13
495.14	1804.55
495.32	1802.21
495.49	1678.16
495.67	1647.74
495.85	1673.48
496.02	1657.10
496.20	1638.38
496.38	1633.69
496.55	1537.73
496.73	1544.75
496.91	1526.03
497.09	1516.67
497.26	1460.49
497.44	1530.71
497.62	1364.53
497.79	1313.04
497.97	1270.91
498.14	1385.60
498.32	1397.30
498.50	1245.16
498.67	1263.89
498.85	1139.84
499.03	1277.93
499.20	1146.86
499.38	1177.29
499.56	1067.28
499.73	1191.33
499.91	1093.03
500.08	1064.94
500.26	1043.88
500.44	954.94
500.61	987.71
500.79	868.34
500.97	917.49
501.14	943.24
501.32	814.51
501.49	835.57
501.67	884.72
501.84	777.06
502.02	751.31
502.20	770.04
502.37	809.83
502.55	697.48
502.72	725.57
502.90	795.78
503.07	704.50
503.25	660.03
503.43	615.56
503.60	688.12
503.78	739.61
503.95	608.54
504.13	606.20
504.30	620.24
504.48	641.31
504.65	620.24
504.83	610.88
505.01	547.69
505.18	606.20
505.36	610.88
505.53	575.77
505.71	479.81
505.88	507.90
506.06	540.66
506.23	521.94
506.41	561.73
506.58	500.87
506.76	404.91
506.93	496.19
507.11	451.72
507.28	456.40
507.46	416.62
507.63	559.39
507.81	510.24
507.98	437.68
508.16	454.06
508.33	475.13
508.50	521.94
508.68	573.43
508.85	533.64
509.03	482.15
509.20	458.74
509.38	543.00
509.55	582.79
509.73	468.11
509.90	454.06
510.08	440.02
510.25	477.47
510.42	404.91
510.60	400.23
510.77	421.30
510.95	425.98
511.12	416.62
511.30	447.04
511.47	416.62
511.64	440.02
511.82	440.02
511.99	397.89
512.17	454.06
512.34	482.15
512.51	411.93
512.69	449.38
512.86	454.06
513.04	444.70
513.21	395.55
513.38	400.23
513.56	365.12
513.73	475.13
513.90	332.36
514.08	393.21
514.25	418.96
514.43	440.02
514.60	381.51
514.77	386.19
514.95	337.04
515.12	327.68
515.29	315.97
515.47	430.66
515.64	447.04
515.81	402.57
515.99	451.72
516.16	428.32
516.33	430.66
516.51	421.30
516.68	344.06
516.85	372.15
517.03	482.15
517.20	358.10
517.37	407.25
517.54	418.96
517.72	369.80
517.89	393.21
518.06	341.72
518.24	421.30
518.41	454.06
518.58	390.87
518.75	367.46
518.93	351.08
519.10	397.89
519.27	325.33
519.45	320.65
519.62	425.98
519.79	386.19
519.96	367.46
520.14	381.51
520.31	416.62
520.48	322.99
520.65	376.83
520.83	381.51
521.00	409.59
521.17	351.08
521.34	369.80
521.52	393.21
521.69	351.08
521.86	358.10
522.03	430.66
522.20	339.38
522.38	365.12
522.55	299.59
522.72	322.99
522.89	400.23
523.07	437.68
523.24	322.99
523.41	397.89
523.58	334.70
523.75	414.27
523.92	344.06
524.10	337.04
524.27	367.46
524.44	355.76
524.61	369.80
524.78	400.23
524.96	428.32
525.13	416.62
525.30	369.80
525.47	379.17
525.64	425.98
525.81	425.98
525.98	344.06
526.16	388.53
526.33	383.85
526.50	404.91
526.67	390.87
526.84	416.62
527.01	440.02
527.18	468.11
527.36	519.60
527.53	444.70
527.70	435.34
527.87	390.87
528.04	554.71
528.21	397.89
528.38	463.43
528.55	440.02
528.72	547.69
528.89	500.87
529.07	486.83
529.24	430.66
529.41	521.94
529.58	475.13
529.75	545.34
529.92	519.60
530.09	566.41
530.26	653.01
530.43	557.05
530.60	557.05
530.77	524.28
530.94	575.77
531.11	547.69
531.28	559.39
531.46	592.16
531.63	690.46
531.80	610.88
531.97	681.10
532.14	798.12
532.31	898.77
532.48	1111.75
532.65	1268.57
532.82	1423.05
532.99	1610.29
533.16	1849.02
533.33	1977.75
533.50	1886.47
533.67	1575.18
533.84	1282.61
534.01	1240.48
534.18	1086.01
534.35	1083.67
534.52	1203.04
534.69	1212.40
534.86	1212.40
535.03	1221.76
535.20	1263.89
535.37	1324.74
535.54	1479.22
535.71	1458.15
535.88	1654.76
536.05	1703.91
536.22	1797.53
536.38	1949.67
536.55	2092.44
536.72	2354.58
536.89	2574.59
537.06	2970.14
537.23	3300.16
537.40	3538.89
537.57	3843.16
537.74	4081.89
537.91	4297.22
538.08	4414.25
538.25	4416.59
538.42	4575.75
538.59	4540.64
538.75	4723.20
538.92	4992.36
539.09	5373.87
539.26	5977.73
539.43	6843.73
539.60	7705.04
539.77	8638.92
539.94	9886.42
540.11	10794.55
540.28	11719.06
540.44	13121.04
540.61	14197.69
540.78	16374.39
540.95	19632.41
541.12	23531.75
541.29	26953.61
541.46	28058.34
541.62	27784.50
541.79	26476.14
541.96	24664.57
542.13	22890.44
542.30	21502.50
542.47	20079.46
542.63	18963.02
542.80	18340.44
542.97	18326.39
543.14	18153.20
543.31	18225.75
543.48	18066.60
543.64	18310.01
543.81	18548.75
543.98	18635.35
544.15	18813.23
544.32	19037.92
544.48	18850.67
544.65	18799.18
544.82	18317.03
544.99	18396.61
545.16	18892.80
545.32	19758.80
545.49	31044.87
545.66	55281.11
545.83	62382.30
546.00	58012.52
546.16	43934.20
546.33	32100.45
546.50	23868.78
546.67	19005.15
546.83	17008.67
547.00	16154.38
547.17	15520.09
547.34	14494.94
547.50	13991.72
547.67	13692.13
547.84	13158.49
548.00	12512.50
548.17	12187.17
548.34	11419.47
548.51	11548.20
548.67	10719.65
548.84	10113.45
549.01	9565.77
549.18	9284.91
549.34	9046.17
549.51	8585.08
549.68	8344.01
549.84	7913.35
550.01	7669.94
550.18	7150.34
550.34	6864.79
550.51	6384.98
550.68	6274.98
550.84	5954.32
551.01	5607.92
551.18	5315.36
551.34	4964.28
551.51	4884.70
551.68	4751.29
551.84	4599.15
552.01	4222.33
552.18	4161.47
552.34	4014.02
552.51	3920.40
552.68	3726.13
552.84	3445.27
553.01	3517.83
553.18	3236.96
553.34	3150.36
553.51	3002.91
553.67	3091.85
553.84	2942.05
554.01	2801.62
554.17	2576.93
554.34	2335.85
554.51	2193.08
554.67	2118.18
554.84	1933.28
555.00	1879.45
555.17	1741.36
555.33	1757.74
555.50	1689.87
555.67	1579.86
555.83	1521.35
556.00	1420.71
556.16	1549.43
556.33	1432.41
556.50	1306.02
556.66	1277.93
556.83	1214.74
556.99	1242.82
557.16	1214.74
557.32	1252.19
557.49	1076.65
557.65	1104.73
557.82	1011.11
557.98	1013.45
558.15	1043.88
558.32	990.05
558.48	968.98
558.65	919.83
558.81	926.85
558.98	966.64
559.14	938.55
559.31	943.24
559.47	912.81
559.64	877.70
559.80	823.87
559.97	795.78
560.13	814.51
560.30	809.83
560.46	807.48
560.63	683.44
560.79	779.40
560.96	812.17
561.12	795.78
561.29	723.23
561.45	791.10
561.61	898.77
561.78	842.59
561.94	887.06
562.11	734.93
562.27	734.93
562.44	695.14
562.60	788.76
562.77	781.74
562.93	730.25
563.10	758.33
563.26	741.95
563.42	774.72
563.59	753.65
563.75	697.48
563.92	802.80
564.08	667.05
564.24	755.99
564.41	734.93
564.57	648.33
564.74	641.31
564.90	681.10
565.07	744.29
565.23	664.71
565.39	608.54
565.56	650.67
565.72	620.24
565.88	580.45
566.05	634.29
566.21	561.73
566.38	589.82
566.54	648.33
566.70	650.67
566.87	655.35
567.03	587.47
567.19	620.24
567.36	685.78
567.52	655.35
567.68	650.67
567.85	636.63
568.01	638.97
568.17	594.50
568.34	695.14
568.50	645.99
568.66	685.78
568.83	697.48
568.99	667.05
569.15	631.94
569.32	596.84
569.48	547.69
569.64	606.20
569.81	500.87
569.97	517.26
570.13	535.98
570.30	486.83
570.46	482.15
570.62	545.34
570.78	512.58
570.95	411.93
571.11	543.00
571.27	517.26
571.43	433.00
571.60	505.56
571.76	505.56
571.92	496.19
572.09	521.94
572.25	561.73
572.41	510.24
572.57	512.58
572.74	512.58
572.90	543.00
573.06	496.19
573.22	470.45
573.38	484.49
573.55	521.94
573.71	571.09
573.87	540.66
574.03	540.66
574.20	587.47
574.36	538.32
574.52	573.43
574.68	631.94
574.84	580.45
575.01	603.86
575.17	587.47
575.33	631.94
575.49	800.46
575.65	833.23
575.82	873.02
575.98	1004.09
576.14	1029.84
576.30	2141.59
576.46	6354.55
576.62	12402.50
576.79	13334.03
576.95	9509.60
577.11	6043.26
577.27	4383.82
577.43	2981.84
577.59	1839.66
577.75	1556.46
577.92	1366.87
578.08	1446.45
578.24	1355.17
578.40	2197.76
578.56	5982.41
578.72	11309.47
578.88	12641.23
579.04	9254.48
579.21	6317.11
579.37	4631.92
579.53	3634.85
579.69	3438.25
579.85	4191.90
580.01	4786.40
580.17	4697.46
580.33	3974.23
580.49	3571.66
580.65	3082.49
580.82	2843.75
580.98	2771.19
581.14	2796.94
581.30	2967.80
581.46	3145.68
581.62	3391.44
581.78	3550.59
581.94	4018.70
582.10	4044.45
582.26	4325.31
582.42	4451.70
582.58	4702.14
582.74	4819.16
582.90	4704.48
583.06	4779.37
583.22	4550.00
583.38	4678.73
583.54	4674.05
583.70	4837.89
583.86	4592.13
584.02	4669.37
584.18	4503.19
584.34	4423.61
584.50	4374.46
584.66	4257.43
584.82	4234.03
584.98	4173.18
585.14	4088.92
585.30	4016.36
585.46	4142.75
585.62	3901.67
585.78	3934.44
585.94	3981.25
586.10	4077.21
586.26	4297.22
586.42	4805.12
586.58	5701.54
586.74	6972.46
586.90	8299.54
587.06	9179.58
587.22	8713.81
587.38	8023.36
587.54	7229.91
587.70	5968.37
587.86	5193.65
588.02	4297.22
588.18	3742.52
588.34	3531.87
588.49	3239.30
588.65	2923.33
588.81	2810.98
588.97	2644.81
589.13	2705.66
589.29	2665.87
589.45	2621.40
589.61	2590.97
589.77	2637.78
589.93	2614.38
590.08	2708.00
590.24	2876.52
590.40	2881.20
590.56	3021.63
590.72	2995.89
590.88	3108.23
591.04	3335.26
591.20	3438.25
591.35	3473.36
591.51	3726.13
591.67	3915.72
591.83	3939.12
591.99	4500.85
592.15	4592.13
592.31	5022.79
592.46	5518.98
592.62	6085.39
592.78	6392.00
592.94	6623.72
593.10	6520.73
593.26	6307.74
593.41	5820.91
593.57	5219.39
593.73	4631.92
593.89	4053.81
594.05	3581.02
594.20	3267.39
594.36	3061.42
594.52	2810.98
594.68	2612.04
594.84	2558.21
594.99	2495.01
595.15	2490.33
595.31	2352.24
595.47	2429.48
595.62	2260.96
595.78	2263.30
595.94	2363.94
596.10	2483.31
596.25	2335.85
596.41	2382.67
596.57	2352.24
596.73	2340.54
596.88	2305.43
597.04	2307.77
597.20	2511.39
597.36	2581.61
597.51	2438.84
597.67	2527.78
597.83	2675.23
597.99	2862.48
598.14	2935.03
598.30	3218.24
598.46	3328.24
598.61	3566.98
598.77	3770.60
598.93	3871.25
599.09	3859.54
599.24	4098.28
599.40	3960.19
599.56	3770.60
599.71	3667.62
599.87	3501.44
600.03	3295.47
600.18	2981.84
600.34	2991.20
600.50	2677.57
600.65	2612.04
600.81	2303.09
600.97	2260.96
601.12	2157.97
601.28	2118.18
601.44	1952.01
601.59	1935.62
601.75	1809.23
601.91	1657.10
602.06	1607.95
602.22	1685.19
602.37	1572.84
602.53	1549.43
602.69	1549.43
602.84	1533.05
603.00	1596.25
603.16	1577.52
603.31	1678.16
603.47	1666.46
603.62	1682.85
603.78	1689.87
603.94	1767.10
604.09	1823.28
604.25	1891.15
604.40	1849.02
604.56	1746.04
604.71	1935.62
604.87	1893.49
605.03	1980.09
605.18	1977.75
605.34	2017.54
605.49	2010.52
605.65	2134.57
605.80	2162.66
605.96	2190.74
606.12	2258.62
606.27	2373.30
606.43	2363.94
606.58	2670.55
606.74	2808.64
606.89	2881.20
607.05	3054.40
607.20	3103.55
607.36	3342.28
607.51	3557.61
607.67	3742.52
607.82	3925.08
607.98	4299.56
608.13	4615.54
608.29	4889.38
608.44	5287.27
608.60	5689.84
608.75	6221.14
608.91	6815.64
609.06	7557.59
609.22	8484.44
609.37	9202.99
609.53	10492.62
609.68	11613.74
609.84	13221.69
609.99	15538.82
610.15	18745.35
610.30	22782.77
610.46	29125.63
610.61	37347.93
610.76	47112.64
610.92	54321.49
611.07	58059.33
611.23	58199.76
611.38	56666.71
611.54	53530.39
611.69	47826.51
611.84	41057.68
612.00	34195.23
612.15	28589.64
612.31	24767.55
612.46	22302.96
612.62	20783.96
612.77	19269.63
612.92	18284.26
613.08	17067.19
613.23	16299.49
613.39	15662.86
613.54	15073.05
613.69	14736.01
613.85	14937.30
614.00	14647.07
614.15	14684.52
614.31	14363.87
614.46	13930.87
614.62	13460.42
614.77	12943.16
614.92	11978.86
615.08	11583.31
615.23	10551.14
615.38	9535.34
615.54	8652.96
615.69	7824.41
615.84	7321.20
616.00	6691.59
616.15	6417.75
616.30	5834.96
616.46	5357.49
616.61	5083.64
616.76	4865.97
616.92	4699.80
617.07	4404.89
617.22	4198.92
617.37	4011.68
617.53	3854.86
617.68	3726.13
617.83	3545.91
617.99	3496.76
618.14	3365.69
618.29	3166.74
618.45	3159.72
618.60	3040.36
618.75	3150.36
618.90	3026.31
619.06	3164.40
619.21	3073.12
619.36	3040.36
619.51	2979.50
619.67	3108.23
619.82	3155.04
619.97	3176.11
620.12	3173.77
620.28	3145.68
620.43	3215.90
620.58	3131.64
620.73	3272.07
620.89	3283.77
621.04	3412.50
621.19	3265.05
621.34	3164.40
621.49	3045.04
621.65	3239.30
621.80	3194.83
621.95	3133.98
622.10	3126.96
622.25	3143.34
622.41	3169.09
622.56	3159.72
622.71	3281.43
622.86	3435.91
623.01	3529.53
623.16	3513.14
623.32	3431.23
623.47	3438.25
623.62	3499.10
623.77	3660.60
623.92	3564.64
624.07	3613.79
624.23	3531.87
624.38	3445.27
624.53	3536.55
624.68	3632.51
624.83	3613.79
624.98	3676.98
625.13	3637.19
625.29	3693.37
625.44	3644.21
625.59	3691.02
625.74	3693.37
625.89	3770.60
626.04	3658.26
626.19	3805.71
626.34	3684.00
626.49	3730.81
626.65	3660.60
626.80	3648.90
626.95	3527.19
627.10	3454.63
627.25	3433.57
627.40	3370.37
627.55	3276.75
627.70	3243.98
627.85	3314.20
628.00	3351.65
628.15	3311.86
628.30	3201.85
628.45	3229.94
628.60	3267.39
628.76	3353.99
628.91	3241.64
629.06	3159.72
629.21	3220.58
629.36	3335.26
629.51	3480.38
629.66	3836.14
629.81	3815.07
629.96	4196.58
630.11	4734.90
630.26	5446.43
630.41	5900.49
630.56	6443.49
630.71	6904.58
630.86	7185.44
631.01	6813.30
631.16	6499.67
631.31	5767.08
631.46	4903.42
631.61	4329.99
631.76	3564.64
631.91	3021.63
632.06	2583.95
632.21	2143.93
632.36	1994.14
632.51	1701.57
632.66	1554.12
632.81	1406.66
632.96	1418.36
633.10	1261.55
633.25	1247.51
633.40	1224.10
633.55	1071.97
633.70	1160.91
633.85	1001.75
634.00	1046.22
634.15	1015.79
634.30	926.85
634.45	1006.43
634.60	1046.22
634.75	992.39
634.90	968.98
635.05	933.87
635.19	938.55
635.34	910.47
635.49	875.36
635.64	905.79
635.79	896.43
635.94	908.13
636.09	786.42
636.24	798.12
636.39	823.87
636.53	758.33
636.68	739.61
636.83	816.85
636.98	730.25
637.13	765.36
637.28	737.27
637.43	697.48
637.57	685.78
637.72	709.18
637.87	641.31
638.02	697.48
638.17	760.67
638.32	669.39
638.46	678.76
638.61	650.67
638.76	657.69
638.91	681.10
639.06	638.97
639.20	725.57
639.35	657.69
639.50	543.00
639.65	615.56
639.80	557.05
639.94	704.50
640.09	725.57
640.24	636.63
640.39	669.39
640.54	636.63
640.68	575.77
640.83	669.39
640.98	655.35
641.13	660.03
641.27	645.99
641.42	648.33
641.57	667.05
641.72	606.20
641.86	674.07
642.01	650.67
642.16	629.60
642.31	547.69
642.45	592.16
642.60	720.88
642.75	650.67
642.90	692.80
643.04	587.47
643.19	748.97
643.34	711.52
643.48	624.92
643.63	720.88
643.78	720.88
643.93	641.31
644.07	704.50
644.22	601.52
644.37	636.63
644.51	730.25
644.66	601.52
644.81	582.79
644.95	683.44
645.10	589.82
645.25	624.92
645.39	713.86
645.54	585.13
645.69	587.47
645.83	664.71
645.98	636.63
646.13	540.66
646.27	634.29
646.42	622.58
646.57	552.37
646.71	662.37
646.86	578.11
647.00	645.99
647.15	627.26
647.30	596.84
647.44	592.16
647.59	550.03
647.74	533.64
647.88	599.18
648.03	571.09
648.17	580.45
648.32	564.07
648.47	636.63
648.61	552.37
648.76	650.67
648.90	685.78
649.05	688.12
649.20	674.07
649.34	758.33
649.49	880.04
649.63	983.02
649.78	1217.08
649.92	1465.18
650.07	1647.74
650.21	1858.39
650.36	2022.22
650.51	1905.20
650.65	1846.68
650.80	1617.31
650.94	1427.73
651.09	1411.34
651.23	1167.93
651.38	1076.65
651.52	973.66
651.67	870.68
651.81	870.68
651.96	828.55
652.10	896.43
652.25	765.36
652.39	788.76
652.54	851.96
652.68	891.74
652.83	964.30
652.97	1032.18
653.12	1081.33
653.26	940.90
653.41	924.51
653.55	917.49
653.70	758.33
653.84	739.61
653.99	753.65
654.13	690.46
654.27	636.63
654.42	585.13
654.56	596.84
654.71	648.33
654.85	554.71
655.00	571.09
655.14	535.98
655.29	615.56
655.43	608.54
655.57	550.03
655.72	533.64
655.86	557.05
656.01	538.32
656.15	573.43
656.30	608.54
656.44	519.60
656.58	503.22
656.73	643.65
656.87	589.82
657.01	580.45
657.16	641.31
657.30	622.58
657.45	734.93
657.59	681.10
657.73	704.50
657.88	786.42
658.02	774.72
658.16	648.33
658.31	550.03
658.45	559.39
658.60	472.79
658.74	559.39
658.88	589.82
659.03	505.56
659.17	411.93
659.31	491.51
659.46	442.36
659.60	477.47
659.74	470.45
659.89	344.06
660.03	507.90
660.17	456.40
660.32	454.06
660.46	433.00
660.60	423.64
660.74	512.58
660.89	470.45
661.03	468.11
661.17	486.83
661.32	564.07
661.46	638.97
661.60	720.88
661.74	851.96
661.89	938.55
662.03	1013.45
662.17	1212.40
662.31	1210.06
662.46	1139.84
662.60	1050.90
662.74	936.21
662.88	940.90
663.03	882.38
663.17	741.95
663.31	660.03
663.45	599.18
663.60	582.79
663.74	638.97
663.88	559.39
664.02	524.28
664.17	524.28
664.31	550.03
664.45	475.13
664.59	444.70
664.73	479.81
664.88	482.15
665.02	470.45
665.16	362.78
665.30	388.53
665.44	414.27
665.59	430.66
665.73	409.59
665.87	514.92
666.01	456.40
666.15	500.87
666.29	337.04
666.44	397.89
666.58	456.40
666.72	465.77
666.86	409.59
667.00	461.09
667.14	486.83
667.28	428.32
667.43	423.64
667.57	447.04
667.71	482.15
667.85	461.09
667.99	397.89
668.13	353.42
668.27	425.98
668.41	463.43
668.56	386.19
668.70	486.83
668.84	393.21
668.98	463.43
669.12	320.65
669.26	372.15
669.40	395.55
669.54	365.12
669.68	458.74
669.82	374.49
669.96	404.91
670.10	414.27
670.25	355.76
670.39	381.51
670.53	404.91
670.67	390.87
670.81	365.12
670.95	381.51
671.09	400.23
671.23	428.32
671.37	468.11
671.51	451.72
671.65	421.30
671.79	367.46
671.93	388.53
672.07	395.55
672.21	386.19
672.35	369.80
672.49	304.27
672.63	393.21
672.77	332.36
672.91	318.31
673.05	376.83
673.19	362.78
673.33	308.95
673.47	348.74
673.61	383.85
673.75	339.38
673.89	299.59
674.03	367.46
674.17	341.72
674.31	411.93
674.45	332.36
674.59	320.65
674.73	327.68
674.87	334.70
675.01	367.46
675.15	346.40
675.29	334.70
675.43	355.76
675.56	339.38
675.70	358.10
675.84	334.70
675.98	318.31
676.12	386.19
676.26	262.14
676.40	292.57
676.54	330.02
676.68	327.68
676.82	360.44
676.96	297.25
677.10	367.46
677.23	322.99
677.37	308.95
677.51	320.65
677.65	388.53
677.79	320.65
677.93	299.59
678.07	393.21
678.21	238.73
678.34	341.72
678.48	287.89
678.62	257.46
678.76	184.90
678.90	325.33
679.04	257.46
679.18	234.05
679.31	358.10
679.45	318.31
679.59	360.44
679.73	332.36
679.87	339.38
680.00	294.91
680.14	416.62
680.28	383.85
680.42	308.95
680.56	353.42
680.70	273.84
680.83	365.12
680.97	318.31
681.11	360.44
681.25	397.89
681.39	325.33
681.52	266.82
681.66	393.21
681.80	325.33
681.94	297.25
682.07	369.80
682.21	304.27
682.35	248.10
682.49	313.63
682.62	315.97
682.76	299.59
682.90	224.69
683.04	257.46
683.17	367.46
683.31	358.10
683.45	287.89
683.59	339.38
683.72	383.85
683.86	276.18
684.00	210.65
684.13	313.63
684.27	320.65
684.41	304.27
684.55	327.68
684.68	212.99
684.82	346.40
684.96	400.23
685.09	271.50
685.23	212.99
685.37	283.20
685.50	301.93
685.64	437.68
685.78	372.15
685.91	393.21
686.05	423.64
686.19	386.19
686.32	360.44
686.46	449.38
686.60	388.53
686.73	491.51
686.87	493.85
687.01	514.92
687.14	479.81
687.28	582.79
687.42	610.88
687.55	603.86
687.69	706.84
687.82	650.67
687.96	617.90
688.10	734.93
688.23	660.03
688.37	589.82
688.50	585.13
688.64	411.93
688.78	535.98
688.91	409.59
689.05	383.85
689.18	250.44
689.32	318.31
689.46	311.29
689.59	287.89
689.73	255.12
689.86	248.10
690.00	257.46
690.13	252.78
690.27	259.80
690.41	290.23
690.54	322.99
690.68	292.57
690.81	301.93
690.95	285.55
691.08	290.23
691.22	266.82
691.35	198.95
691.49	238.73
691.62	196.60
691.76	182.56
691.89	198.95
692.03	245.76
692.16	163.84
692.30	210.65
692.43	243.42
692.57	212.99
692.70	259.80
692.84	205.97
692.97	266.82
693.11	322.99
693.24	376.83
693.38	421.30
693.51	538.32
693.65	627.26
693.78	463.43
693.92	608.54
694.05	477.47
694.19	411.93
694.32	411.93
694.45	264.48
694.59	358.10
694.72	187.24
694.86	238.73
694.99	234.05
695.13	168.52
695.26	191.92
695.39	110.01
695.53	205.97
695.66	152.13
695.80	248.10
695.93	180.22
696.07	189.58
696.20	227.03
696.33	236.39
696.47	287.89
696.60	229.37
696.73	348.74
696.87	173.20
697.00	231.71
697.14	222.35
697.27	269.16
697.40	255.12
697.54	210.65
697.67	215.33
697.80	121.71
697.94	138.09
698.07	229.37
698.21	191.92
698.34	135.75
698.47	149.79
698.61	152.13
698.74	168.52
698.87	227.03
699.01	201.29
699.14	114.69
699.27	196.60
699.40	259.80
699.54	170.86
699.67	168.52
699.80	112.35
699.94	173.20
700.07	145.11
700.20	142.77
700.34	161.50
700.47	152.13
700.60	163.84
700.73	229.37
700.87	168.52
701.00	187.24
701.13	182.56
701.26	135.75
701.40	217.67
701.53	276.18
701.66	217.67
701.79	177.88
701.93	234.05
702.06	264.48
702.19	173.20
702.32	243.42
702.46	198.95
702.59	156.82
702.72	140.43
702.85	201.29
702.99	231.71
703.12	236.39
703.25	215.33
703.38	215.33
703.51	224.69
703.65	245.76
703.78	285.55
703.91	259.80
704.04	292.57
704.17	255.12
704.31	255.12
704.44	315.97
704.57	313.63
704.70	276.18
704.83	301.93
704.96	306.61
705.10	365.12
705.23	339.38
>>>>>End Processed Spectral Data<<<<<
