SpectraSuite Data File
++++++++++++++++++++++++++++++++++++
Date: Fri Oct 04 11:41:43 GMT-05:00 2013
User: price-jones
Dark Spectrum Present: No
Reference Spectrum Present: No
Number of Sampled Component Spectra: 1
Spectrometers: USB2+H05261
Integration Time (usec): 100000 (USB2+H05261)
Spectra Averaged: 1 (USB2+H05261)
Boxcar Smoothing: 0 (USB2+H05261)
Correct for Electrical Dark: No (USB2+H05261)
Strobe/Lamp Enabled: No (USB2+H05261)
Correct for Detector Non-linearity: No (USB2+H05261)
Correct for Stray Light: No (USB2+H05261)
Number of Pixels in Processed Spectrum: 2048
>>>>>Begin Processed Spectral Data<<<<<
365.73	72.56
365.92	72.56
366.12	72.56
366.32	0.00
366.52	0.00
366.72	0.00
366.91	0.00
367.11	0.00
367.31	0.00
367.51	0.00
367.70	0.00
367.90	0.00
368.10	0.00
368.30	0.00
368.49	0.00
368.69	0.00
368.89	0.00
369.09	0.00
369.28	0.00
369.48	0.00
369.68	0.00
369.87	32.77
370.07	0.00
370.27	9.36
370.47	51.49
370.66	14.04
370.86	70.22
371.06	63.19
371.25	135.75
371.45	74.90
371.65	152.13
371.84	56.17
372.04	65.54
372.24	70.22
372.44	124.05
372.63	131.07
372.83	119.37
373.03	156.82
373.22	110.01
373.42	142.77
373.62	126.39
373.81	112.35
374.01	191.92
374.21	182.56
374.40	194.26
374.60	124.05
374.79	159.16
374.99	88.94
375.19	124.05
375.38	145.11
375.58	138.09
375.78	140.43
375.97	184.90
376.17	203.63
376.37	161.50
376.56	131.07
376.76	110.01
376.95	210.65
377.15	168.52
377.35	81.92
377.54	182.56
377.74	128.73
377.93	163.84
378.13	161.50
378.33	163.84
378.52	180.22
378.72	98.30
378.91	159.16
379.11	65.54
379.31	112.35
379.50	105.32
379.70	210.65
379.89	187.24
380.09	107.66
380.28	126.39
380.48	152.13
380.68	39.79
380.87	149.79
381.07	147.45
381.26	91.28
381.46	145.11
381.65	175.54
381.85	67.88
382.04	93.62
382.24	201.29
382.43	166.18
382.63	112.35
382.83	91.28
383.02	166.18
383.22	194.26
383.41	175.54
383.61	138.09
383.80	105.32
384.00	138.09
384.19	110.01
384.39	107.66
384.58	152.13
384.78	117.03
384.97	114.69
385.17	140.43
385.36	46.81
385.56	107.66
385.75	65.54
385.95	98.30
386.14	95.96
386.34	65.54
386.53	145.11
386.72	93.62
386.92	194.26
387.11	121.71
387.31	191.92
387.50	133.41
387.70	81.92
387.89	220.01
388.09	133.41
388.28	110.01
388.48	95.96
388.67	173.20
388.86	98.30
389.06	124.05
389.25	184.90
389.45	133.41
389.64	154.48
389.84	117.03
390.03	154.48
390.22	105.32
390.42	91.28
390.61	140.43
390.81	131.07
391.00	93.62
391.19	135.75
391.39	135.75
391.58	215.33
391.78	70.22
391.97	163.84
392.16	117.03
392.36	126.39
392.55	147.45
392.75	161.50
392.94	86.60
393.13	133.41
393.33	121.71
393.52	100.64
393.71	177.88
393.91	147.45
394.10	119.37
394.29	152.13
394.49	126.39
394.68	210.65
394.88	166.18
395.07	154.48
395.26	121.71
395.46	117.03
395.65	173.20
395.84	161.50
396.04	156.82
396.23	88.94
396.42	74.90
396.62	126.39
396.81	189.58
397.00	119.37
397.19	170.86
397.39	95.96
397.58	210.65
397.77	198.95
397.97	112.35
398.16	135.75
398.35	124.05
398.55	163.84
398.74	217.67
398.93	156.82
399.12	194.26
399.32	212.99
399.51	159.16
399.70	177.88
399.90	201.29
400.09	173.20
400.28	128.73
400.47	182.56
400.67	124.05
400.86	133.41
401.05	205.97
401.24	189.58
401.44	173.20
401.63	189.58
401.82	266.82
402.01	168.52
402.21	196.60
402.40	203.63
402.59	180.22
402.78	168.52
402.97	205.97
403.17	245.76
403.36	287.89
403.55	449.38
403.74	772.38
403.93	2352.24
404.13	6106.46
404.32	10539.43
404.51	11445.22
404.70	7398.43
404.89	2703.32
405.09	718.54
405.28	383.85
405.47	330.02
405.66	285.55
405.85	273.84
406.05	367.46
406.24	299.59
406.43	292.57
406.62	243.42
406.81	327.68
407.00	435.34
407.20	772.38
407.39	1341.13
407.58	1774.13
407.77	1233.46
407.96	660.03
408.15	344.06
408.34	248.10
408.54	198.95
408.73	285.55
408.92	227.03
409.11	166.18
409.30	259.80
409.49	177.88
409.68	189.58
409.87	189.58
410.07	264.48
410.26	208.31
410.45	217.67
410.64	205.97
410.83	203.63
411.02	224.69
411.21	269.16
411.40	231.71
411.59	315.97
411.78	205.97
411.98	257.46
412.17	238.73
412.36	182.56
412.55	203.63
412.74	201.29
412.93	297.25
413.12	248.10
413.31	299.59
413.50	292.57
413.69	227.03
413.88	166.18
414.07	243.42
414.26	290.23
414.45	203.63
414.64	337.04
414.83	381.51
415.02	299.59
415.22	341.72
415.41	308.95
415.60	283.20
415.79	299.59
415.98	318.31
416.17	325.33
416.36	292.57
416.55	292.57
416.74	339.38
416.93	313.63
417.12	278.52
417.31	301.93
417.50	339.38
417.69	421.30
417.88	358.10
418.07	376.83
418.26	241.08
418.45	290.23
418.64	381.51
418.83	339.38
419.02	269.16
419.21	255.12
419.39	351.08
419.58	304.27
419.77	353.42
419.96	395.55
420.15	374.49
420.34	369.80
420.53	362.78
420.72	393.21
420.91	318.31
421.10	276.18
421.29	379.17
421.48	358.10
421.67	407.25
421.86	362.78
422.05	397.89
422.24	318.31
422.43	358.10
422.61	440.02
422.80	376.83
422.99	332.36
423.18	379.17
423.37	388.53
423.56	374.49
423.75	437.68
423.94	409.59
424.13	360.44
424.32	400.23
424.50	397.89
424.69	454.06
424.88	428.32
425.07	407.25
425.26	430.66
425.45	365.12
425.64	390.87
425.83	416.62
426.01	440.02
426.20	407.25
426.39	416.62
426.58	341.72
426.77	418.96
426.96	503.22
427.15	451.72
427.33	430.66
427.52	344.06
427.71	381.51
427.90	468.11
428.09	440.02
428.28	500.87
428.46	362.78
428.65	444.70
428.84	479.81
429.03	456.40
429.22	479.81
429.40	500.87
429.59	465.77
429.78	491.51
429.97	451.72
430.16	463.43
430.34	416.62
430.53	510.24
430.72	489.17
430.91	498.53
431.10	465.77
431.28	564.07
431.47	575.77
431.66	608.54
431.85	510.24
432.03	531.30
432.22	620.24
432.41	514.92
432.60	685.78
432.79	582.79
432.97	554.71
433.16	592.16
433.35	706.84
433.54	854.30
433.72	889.40
433.91	938.55
434.10	964.30
434.28	1116.44
434.47	1315.38
434.66	1591.56
434.85	1769.44
435.03	4257.43
435.22	14654.09
435.41	37291.76
435.59	52685.46
435.78	44343.79
435.97	19058.98
436.16	7129.27
436.34	2267.98
436.53	1238.14
436.72	1039.20
436.90	823.87
437.09	830.89
437.28	713.86
437.46	678.76
437.65	704.50
437.84	704.50
438.02	702.16
438.21	727.91
438.40	624.92
438.58	664.71
438.77	643.65
438.96	587.47
439.14	641.31
439.33	645.99
439.52	601.52
439.70	627.26
439.89	580.45
440.08	709.18
440.26	620.24
440.45	650.67
440.63	531.30
440.82	645.99
441.01	596.84
441.19	610.88
441.38	561.73
441.57	709.18
441.75	610.88
441.94	725.57
442.12	676.41
442.31	585.13
442.50	594.50
442.68	606.20
442.87	645.99
443.05	660.03
443.24	624.92
443.43	683.44
443.61	683.44
443.80	624.92
443.98	629.60
444.17	587.47
444.35	676.41
444.54	667.05
444.73	587.47
444.91	627.26
445.10	580.45
445.28	627.26
445.47	592.16
445.65	667.05
445.84	657.69
446.02	645.99
446.21	617.90
446.39	582.79
446.58	699.82
446.77	636.63
446.95	657.69
447.14	578.11
447.32	643.65
447.51	629.60
447.69	599.18
447.88	599.18
448.06	699.82
448.25	641.31
448.43	638.97
448.62	566.41
448.80	702.16
448.99	589.82
449.17	547.69
449.36	517.26
449.54	552.37
449.73	613.22
449.91	711.52
450.10	582.79
450.28	653.01
450.46	648.33
450.65	678.76
450.83	660.03
451.02	608.54
451.20	603.86
451.39	564.07
451.57	599.18
451.76	638.97
451.94	550.03
452.13	641.31
452.31	631.94
452.49	636.63
452.68	634.29
452.86	645.99
453.05	699.82
453.23	571.09
453.42	601.52
453.60	538.32
453.78	608.54
453.97	566.41
454.15	594.50
454.34	599.18
454.52	589.82
454.70	601.52
454.89	596.84
455.07	704.50
455.26	648.33
455.44	660.03
455.62	526.62
455.81	575.77
455.99	655.35
456.17	702.16
456.36	601.52
456.54	606.20
456.73	592.16
456.91	592.16
457.09	573.43
457.28	627.26
457.46	624.92
457.64	615.56
457.83	603.86
458.01	599.18
458.19	589.82
458.38	566.41
458.56	624.92
458.74	557.05
458.93	624.92
459.11	653.01
459.29	613.22
459.48	648.33
459.66	582.79
459.84	608.54
460.03	685.78
460.21	585.13
460.39	624.92
460.57	624.92
460.76	589.82
460.94	580.45
461.12	638.97
461.31	638.97
461.49	580.45
461.67	505.56
461.85	610.88
462.04	592.16
462.22	723.23
462.40	580.45
462.59	578.11
462.77	601.52
462.95	606.20
463.13	571.09
463.32	622.58
463.50	566.41
463.68	603.86
463.86	580.45
464.05	538.32
464.23	629.60
464.41	606.20
464.59	594.50
464.78	585.13
464.96	580.45
465.14	545.34
465.32	641.31
465.50	559.39
465.69	610.88
465.87	559.39
466.05	533.64
466.23	538.32
466.41	641.31
466.60	610.88
466.78	645.99
466.96	636.63
467.14	603.86
467.32	718.54
467.51	681.10
467.69	606.20
467.87	631.94
468.05	550.03
468.23	533.64
468.41	538.32
468.60	538.32
468.78	533.64
468.96	528.96
469.14	592.16
469.32	496.19
469.50	503.22
469.69	641.31
469.87	547.69
470.05	540.66
470.23	491.51
470.41	592.16
470.59	547.69
470.77	603.86
470.95	482.15
471.14	578.11
471.32	545.34
471.50	622.58
471.68	582.79
471.86	568.75
472.04	566.41
472.22	596.84
472.40	486.83
472.58	554.71
472.77	519.60
472.95	550.03
473.13	636.63
473.31	564.07
473.49	629.60
473.67	636.63
473.85	568.75
474.03	526.62
474.21	521.94
474.39	582.79
474.57	606.20
474.75	582.79
474.93	631.94
475.12	557.05
475.30	510.24
475.48	531.30
475.66	538.32
475.84	543.00
476.02	524.28
476.20	557.05
476.38	519.60
476.56	571.09
476.74	587.47
476.92	557.05
477.10	505.56
477.28	587.47
477.46	669.39
477.64	617.90
477.82	564.07
478.00	585.13
478.18	636.63
478.36	564.07
478.54	655.35
478.72	676.41
478.90	678.76
479.08	741.95
479.26	720.88
479.44	779.40
479.62	767.70
479.80	751.31
479.98	814.51
480.16	854.30
480.34	880.04
480.52	894.08
480.70	940.90
480.88	971.32
481.06	964.30
481.24	1015.79
481.41	1142.18
481.59	1184.31
481.77	1369.21
481.95	1308.36
482.13	1451.13
482.31	1437.09
482.49	1591.56
482.67	1706.25
482.85	1907.54
483.03	1963.71
483.21	2010.52
483.39	2289.04
483.57	2340.54
483.74	2457.56
483.92	2710.34
484.10	2654.17
484.28	2958.44
484.46	3159.72
484.64	3208.87
484.82	3365.69
485.00	3513.14
485.18	3927.42
485.35	3988.27
485.53	4187.22
485.71	4610.86
485.89	4568.73
486.07	4755.97
486.25	4835.55
486.43	4947.89
486.61	4830.87
486.78	4791.08
486.96	4896.40
487.14	4671.71
487.32	4924.49
487.50	4814.48
487.68	4758.31
487.85	4812.14
488.03	4891.72
488.21	4652.98
488.39	4470.42
488.57	4498.51
488.75	4250.41
488.92	4498.51
489.10	4121.68
489.28	4077.21
489.46	3925.08
489.64	3768.26
489.81	3927.42
489.99	3794.01
490.17	3817.41
490.35	3716.77
490.53	3548.25
490.70	3658.26
490.88	3524.85
491.06	3819.75
491.24	4007.00
491.41	4173.18
491.59	4081.89
491.77	3772.94
491.95	3368.03
492.13	3468.67
492.30	3375.05
492.48	3396.12
492.66	3295.47
492.84	3236.96
493.01	3260.37
493.19	3131.64
493.37	3136.32
493.54	3016.95
493.72	2808.64
493.90	2773.53
494.08	2890.56
494.25	2740.77
494.43	2792.26
494.61	2810.98
494.79	2733.75
494.96	2518.42
495.14	2539.48
495.32	2642.46
495.49	2490.33
495.67	2438.84
495.85	2459.90
496.02	2553.52
496.20	2382.67
496.38	2293.72
496.55	2312.45
496.73	2333.51
496.91	2228.19
497.09	2183.72
497.26	2214.15
497.44	2083.08
497.62	2099.46
497.79	1914.56
497.97	1940.30
498.14	1879.45
498.32	1933.28
498.50	1907.54
498.67	1792.85
498.85	1659.44
499.03	1659.44
499.20	1739.02
499.38	1537.73
499.56	1640.72
499.73	1652.42
499.91	1638.38
500.08	1598.59
500.26	1504.96
500.44	1406.66
500.61	1256.87
500.79	1345.81
500.97	1291.98
501.14	1203.04
501.32	1167.93
501.49	1212.40
501.67	1210.06
501.84	1057.92
502.02	1071.97
502.20	1064.94
502.37	1046.22
502.55	1027.50
502.72	940.90
502.90	947.92
503.07	940.90
503.25	917.49
503.43	868.34
503.60	828.55
503.78	844.93
503.95	961.96
504.13	814.51
504.30	924.51
504.48	751.31
504.65	802.80
504.83	711.52
505.01	772.38
505.18	725.57
505.36	655.35
505.53	716.20
505.71	702.16
505.88	795.78
506.06	627.26
506.23	772.38
506.41	641.31
506.58	678.76
506.76	697.48
506.93	594.50
507.11	676.41
507.28	610.88
507.46	643.65
507.63	594.50
507.81	543.00
507.98	575.77
508.16	587.47
508.33	561.73
508.50	617.90
508.68	688.12
508.85	617.90
509.03	716.20
509.20	620.24
509.38	671.73
509.55	697.48
509.73	657.69
509.90	664.71
510.08	620.24
510.25	517.26
510.42	561.73
510.60	615.56
510.77	552.37
510.95	559.39
511.12	578.11
511.30	573.43
511.47	535.98
511.64	610.88
511.82	559.39
511.99	580.45
512.17	517.26
512.34	505.56
512.51	514.92
512.69	564.07
512.86	585.13
513.04	500.87
513.21	566.41
513.38	528.96
513.56	543.00
513.73	491.51
513.90	531.30
514.08	606.20
514.25	465.77
514.43	461.09
514.60	414.27
514.77	388.53
514.95	524.28
515.12	395.55
515.29	447.04
515.47	465.77
515.64	433.00
515.81	486.83
515.99	489.17
516.16	472.79
516.33	519.60
516.51	500.87
516.68	538.32
516.85	486.83
517.03	491.51
517.20	489.17
517.37	433.00
517.54	393.21
517.72	454.06
517.89	318.31
518.06	411.93
518.24	451.72
518.41	489.17
518.58	465.77
518.75	477.47
518.93	454.06
519.10	440.02
519.27	489.17
519.45	418.96
519.62	470.45
519.79	496.19
519.96	390.87
520.14	493.85
520.31	437.68
520.48	435.34
520.65	411.93
520.83	472.79
521.00	454.06
521.17	500.87
521.34	433.00
521.52	451.72
521.69	376.83
521.86	458.74
522.03	458.74
522.20	465.77
522.38	461.09
522.55	475.13
522.72	379.17
522.89	533.64
523.07	505.56
523.24	482.15
523.41	411.93
523.58	463.43
523.75	444.70
523.92	402.57
524.10	463.43
524.27	440.02
524.44	435.34
524.61	554.71
524.78	461.09
524.96	437.68
525.13	449.38
525.30	468.11
525.47	512.58
525.64	554.71
525.81	514.92
525.98	463.43
526.16	379.17
526.33	524.28
526.50	421.30
526.67	528.96
526.84	507.90
527.01	491.51
527.18	601.52
527.36	688.12
527.53	636.63
527.70	617.90
527.87	557.05
528.04	671.73
528.21	559.39
528.38	566.41
528.55	540.66
528.72	573.43
528.89	615.56
529.07	578.11
529.24	571.09
529.41	620.24
529.58	629.60
529.75	552.37
529.92	622.58
530.09	662.37
530.26	667.05
530.43	763.01
530.60	713.86
530.77	667.05
530.94	751.31
531.11	751.31
531.28	683.44
531.46	835.57
531.63	861.32
531.80	905.79
531.97	1020.47
532.14	1081.33
532.31	1165.59
532.48	1472.20
532.65	1657.10
532.82	2001.16
532.99	2307.77
533.16	2801.62
533.33	2956.10
533.50	2712.68
533.67	2298.41
533.84	1984.77
534.01	1703.91
534.18	1607.95
534.35	1638.38
534.52	1593.90
534.69	1675.82
534.86	1741.36
535.03	1652.42
535.20	1830.30
535.37	1973.07
535.54	2132.23
535.71	2136.91
535.88	2200.10
536.05	2317.13
536.22	2574.59
536.38	2911.63
536.55	3049.72
536.72	3426.54
536.89	3819.75
537.06	4287.86
537.23	4739.58
537.40	5327.06
537.57	5753.04
537.74	5905.17
537.91	6406.05
538.08	6452.86
538.25	6642.44
538.42	6647.12
538.59	6799.26
538.75	7035.65
538.92	7382.05
539.09	7955.48
539.26	8901.06
539.43	9989.41
539.60	11337.56
539.77	13338.71
539.94	14553.45
540.11	16074.80
540.28	17975.31
540.44	19557.52
540.61	21593.78
540.78	24566.26
540.95	29216.91
541.12	35063.57
541.29	41067.04
541.46	43290.55
541.62	43009.68
541.79	41352.58
541.96	38504.15
542.13	35482.52
542.30	33053.05
542.47	31213.38
542.63	29514.16
542.80	28505.38
542.97	28009.19
543.14	27723.65
543.31	28044.30
543.48	27882.80
543.64	27917.91
543.81	28603.69
543.98	28566.24
544.15	29048.39
544.32	29275.42
544.48	28793.27
544.65	28423.47
544.82	28496.02
544.99	28072.39
545.16	28730.08
545.32	29874.60
545.49	43033.09
545.66	61450.77
545.83	65535.00
546.00	65535.00
546.16	64109.61
546.33	48222.06
546.50	37191.11
546.67	29441.60
546.83	25996.33
547.00	24748.82
547.17	23896.87
547.34	22829.59
547.50	22281.90
547.67	20917.37
547.84	20245.63
548.00	19534.11
548.17	18829.61
548.34	17916.80
548.51	17399.54
548.67	16819.09
548.84	15674.57
549.01	15002.83
549.18	14398.98
549.34	13664.05
549.51	13053.17
549.68	12435.27
549.84	12093.55
550.01	11686.29
550.18	11087.12
550.34	10431.77
550.51	10195.37
550.68	9572.79
550.84	9064.89
551.01	8451.67
551.18	8170.81
551.34	7693.34
551.51	7293.11
551.68	7138.63
551.84	6848.41
552.01	6551.16
552.18	6279.66
552.34	6153.27
552.51	5933.26
552.68	5556.43
552.84	5200.67
553.01	5181.95
553.18	4929.17
553.34	4741.93
553.51	4573.41
553.67	4554.68
553.84	4194.24
554.01	4016.36
554.17	3861.88
554.34	3574.00
554.51	3356.33
554.67	3152.70
554.84	2993.55
555.00	2808.64
555.17	2597.99
555.33	2609.70
555.50	2410.75
555.67	2298.41
555.83	2174.36
556.00	2097.12
556.16	2307.77
556.33	1994.14
556.50	1902.86
556.66	1675.82
556.83	1748.38
556.99	1703.91
557.16	1629.01
557.32	1652.42
557.49	1600.93
557.65	1413.68
557.82	1561.14
557.98	1439.43
558.15	1441.77
558.32	1359.85
558.48	1423.05
558.65	1336.45
558.81	1320.06
558.98	1270.91
559.14	1270.91
559.31	1172.61
559.47	1207.72
559.64	1128.14
559.80	1128.14
559.97	1046.22
560.13	1069.62
560.30	1158.57
560.46	1135.16
560.63	1142.18
560.79	1104.73
560.96	1057.92
561.12	1057.92
561.29	1104.73
561.45	1090.69
561.61	973.66
561.78	1125.80
561.94	1123.46
562.11	1107.07
562.27	1118.78
562.44	1053.24
562.60	999.41
562.77	1100.05
562.93	1125.80
563.10	1015.79
563.26	961.96
563.42	961.96
563.59	1013.45
563.75	947.92
563.92	1029.84
564.08	849.61
564.24	985.37
564.41	924.51
564.57	903.45
564.74	957.28
564.90	908.13
565.07	798.12
565.23	837.91
565.39	882.38
565.56	849.61
565.72	739.61
565.88	807.48
566.05	821.53
566.21	788.76
566.38	823.87
566.54	896.43
566.70	847.27
566.87	777.06
567.03	805.14
567.19	802.80
567.36	795.78
567.52	896.43
567.68	807.48
567.85	802.80
568.01	814.51
568.17	938.55
568.34	880.04
568.50	936.21
568.66	858.98
568.83	903.45
568.99	868.34
569.15	882.38
569.32	870.68
569.48	802.80
569.64	716.20
569.81	779.40
569.97	620.24
570.13	678.76
570.30	650.67
570.46	653.01
570.62	561.73
570.78	592.16
570.95	638.97
571.11	674.07
571.27	664.71
571.43	575.77
571.60	636.63
571.76	585.13
571.92	580.45
572.09	587.47
572.25	571.09
572.41	606.20
572.57	571.09
572.74	631.94
572.90	638.97
573.06	660.03
573.22	638.97
573.38	690.46
573.55	678.76
573.71	648.33
573.87	678.76
574.03	674.07
574.20	697.48
574.36	798.12
574.52	748.97
574.68	755.99
574.84	809.83
575.01	863.66
575.17	954.94
575.33	856.64
575.49	990.05
575.65	1121.12
575.82	1207.72
575.98	1373.89
576.14	1411.34
576.30	2466.92
576.46	7983.57
576.62	16196.51
576.79	24655.20
576.95	16915.05
577.11	9870.04
577.27	6574.56
577.43	4369.78
577.59	2916.31
577.75	2228.19
577.92	1998.82
578.08	2012.86
578.24	1996.48
578.40	2965.46
578.56	7119.91
578.72	14972.41
578.88	22782.77
579.04	15908.62
579.21	9533.00
579.37	6827.34
579.53	5193.65
579.69	4891.72
579.85	5785.80
580.01	7562.27
580.17	7660.57
580.33	6282.00
580.49	5177.26
580.65	4491.49
580.82	4133.39
580.98	4058.49
581.14	4009.34
581.30	4320.63
581.46	4664.69
581.62	4877.68
581.78	5343.44
581.94	5675.80
582.10	5975.39
582.26	6527.75
582.42	6775.85
582.58	7016.93
582.74	6988.84
582.90	7307.15
583.06	7183.10
583.22	7339.92
583.38	7037.99
583.54	7155.02
583.70	7115.23
583.86	7136.29
584.02	7056.72
584.18	6707.98
584.34	6686.91
584.50	6509.03
584.66	6420.09
584.82	6464.56
584.98	6464.56
585.14	6162.63
585.30	6097.10
585.46	5870.06
585.62	5802.19
585.78	5961.34
585.94	5919.21
586.10	6179.01
586.26	6370.94
586.42	7183.10
586.58	8416.57
586.74	10286.65
586.90	12774.64
587.06	14317.06
587.22	14951.34
587.38	13041.46
587.54	11265.00
587.70	9432.36
587.86	7831.43
588.02	6602.65
588.18	5834.96
588.34	5191.31
588.49	4631.92
588.65	4542.98
588.81	4369.78
588.97	4121.68
589.13	4102.96
589.29	3992.95
589.45	3887.63
589.61	3765.92
589.77	3866.56
589.93	3971.89
590.08	4037.42
590.24	4187.22
590.40	4238.71
590.56	4547.66
590.72	4601.49
590.88	4615.54
591.04	4858.95
591.20	5015.77
591.35	5301.31
591.51	5540.05
591.67	5685.16
591.83	5928.58
591.99	6544.14
592.15	7143.32
592.31	7693.34
592.46	8262.09
592.62	9193.62
592.78	9919.19
592.94	10237.50
593.10	10162.61
593.26	9799.82
593.41	9039.15
593.57	8124.00
593.73	7232.26
593.89	6263.27
594.05	5799.85
594.20	5071.94
594.36	4528.94
594.52	4182.54
594.68	3953.16
594.84	3859.54
594.99	3698.05
595.15	3522.51
595.31	3557.61
595.47	3576.34
595.62	3545.91
595.78	3487.40
595.94	3569.32
596.10	3559.95
596.25	3559.95
596.41	3529.53
596.57	3433.57
596.73	3611.45
596.88	3419.52
597.04	3501.44
597.20	3559.95
597.36	3653.58
597.51	3723.79
597.67	3892.31
597.83	4067.85
597.99	4126.36
598.14	4437.66
598.30	4671.71
598.46	4931.51
598.61	5416.00
598.77	5659.42
598.93	5778.78
599.09	6061.99
599.24	6036.24
599.40	6188.38
599.56	5767.08
599.71	5673.46
599.87	5483.88
600.03	4915.12
600.18	4631.92
600.34	4409.57
600.50	4145.09
600.65	3709.75
600.81	3726.13
600.97	3452.29
601.12	3112.91
601.28	3087.17
601.44	2974.82
601.59	2715.02
601.75	2729.06
601.91	2612.04
602.06	2459.90
602.22	2518.42
602.37	2305.43
602.53	2363.94
602.69	2197.76
602.84	2363.94
603.00	2244.57
603.16	2349.90
603.31	2373.30
603.47	2373.30
603.62	2413.09
603.78	2408.41
603.94	2466.92
604.09	2497.35
604.25	2633.10
604.40	2743.11
604.56	2729.06
604.71	2736.09
604.87	2853.11
605.03	2810.98
605.18	2808.64
605.34	3033.33
605.49	3009.93
605.65	3150.36
605.80	3028.65
605.96	3180.79
606.12	3314.20
606.27	3534.21
606.43	3695.71
606.58	3953.16
606.74	3971.89
606.89	4203.60
607.05	4388.50
607.20	4629.58
607.36	4940.87
607.51	5327.06
607.67	5420.68
607.82	5804.53
607.98	6296.04
608.13	6698.61
608.29	7276.73
608.44	7885.26
608.60	8594.45
608.75	9312.99
608.91	10387.30
609.06	11365.64
609.22	12905.71
609.37	14129.81
609.53	15747.12
609.68	17593.81
609.84	20514.80
609.99	23941.34
610.15	27885.14
610.30	34501.84
610.46	43239.06
610.61	52552.05
610.76	59922.40
610.92	65319.67
611.07	65535.00
611.23	65535.00
611.38	65535.00
611.54	65535.00
611.69	63028.29
611.84	57085.67
612.00	51594.77
612.15	44210.38
612.31	38660.97
612.46	34176.50
612.62	32266.63
612.77	30345.05
612.92	29450.96
613.08	26979.36
613.23	25998.67
613.39	24404.77
613.54	23782.18
613.69	23805.59
613.85	23391.31
614.00	23051.94
614.15	22731.28
614.31	22630.64
614.46	22064.23
614.62	21188.87
614.77	20496.07
614.92	19283.67
615.08	17748.28
615.23	16154.38
615.38	14923.26
615.54	13666.39
615.69	12329.94
615.84	11363.30
616.00	10553.48
616.15	9982.38
616.30	9184.26
616.46	8659.98
616.61	8063.15
616.76	7735.47
616.92	7232.26
617.07	6892.88
617.22	6396.68
617.37	6099.44
617.53	5804.53
617.68	5549.41
617.83	5430.04
617.99	5235.78
618.14	5156.20
618.29	5083.64
618.45	4807.46
618.60	4744.27
618.75	4662.35
618.90	4716.18
619.06	4580.43
619.21	4470.42
619.36	4540.64
619.51	4500.85
619.67	4629.58
619.82	4507.87
619.97	4652.98
620.12	4622.56
620.28	4922.15
620.43	4971.30
620.58	4950.23
620.73	5097.69
620.89	5053.22
621.04	4929.17
621.19	4952.57
621.34	4884.70
621.49	4737.24
621.65	4880.02
621.80	4737.24
621.95	4681.07
622.10	4660.01
622.25	4760.65
622.41	4772.35
622.56	4826.18
622.71	5004.07
622.86	5170.24
623.01	5207.69
623.16	5423.02
623.32	5277.91
623.47	5291.95
623.62	5322.38
623.77	5460.47
623.92	5303.65
624.07	5238.12
624.23	5207.69
624.38	5296.63
624.53	5472.17
624.68	5408.98
624.83	5645.37
624.98	5507.28
625.13	5497.92
625.29	5664.10
625.44	5659.42
625.59	5579.84
625.74	5614.95
625.89	5561.11
626.04	5455.79
626.19	5579.84
626.34	5734.31
626.49	5652.39
626.65	5474.51
626.80	5455.79
626.95	5275.57
627.10	5331.74
627.25	5165.56
627.40	5205.35
627.55	5036.83
627.70	4915.12
627.85	4863.63
628.00	4788.74
628.15	4985.34
628.30	4847.25
628.45	4840.23
628.60	4994.70
628.76	4922.15
628.91	4870.65
629.06	4999.38
629.21	4947.89
629.36	5334.08
629.51	5420.68
629.66	5664.10
629.81	5860.70
629.96	6352.21
630.11	7232.26
630.26	8009.31
630.41	9039.15
630.56	9764.72
630.71	10616.67
630.86	11070.73
631.01	10794.55
631.16	10090.05
631.31	9261.50
631.46	7901.65
631.61	6518.39
631.76	5350.46
631.91	4678.73
632.06	3831.46
632.21	3173.77
632.36	2916.31
632.51	2565.23
632.66	2476.29
632.81	2197.76
632.96	2069.03
633.10	1818.60
633.25	1809.23
633.40	1701.57
633.55	1673.48
633.70	1629.01
633.85	1495.60
634.00	1519.01
634.15	1554.12
634.30	1547.09
634.45	1455.81
634.60	1495.60
634.75	1369.21
634.90	1355.17
635.05	1390.28
635.19	1352.83
635.34	1425.39
635.49	1425.39
635.64	1338.79
635.79	1282.61
635.94	1217.08
636.09	1191.33
636.24	1221.76
636.39	1095.37
636.53	1151.54
636.68	1217.08
636.83	1153.88
636.98	1144.52
637.13	1116.44
637.28	1046.22
637.43	1088.35
637.57	1048.56
637.72	1088.35
637.87	1104.73
638.02	940.90
638.17	978.34
638.32	966.64
638.46	866.00
638.61	950.26
638.76	863.66
638.91	882.38
639.06	905.79
639.20	870.68
639.35	922.17
639.50	847.27
639.65	936.21
639.80	905.79
639.94	917.49
640.09	870.68
640.24	919.83
640.39	849.61
640.54	887.06
640.68	908.13
640.83	858.98
640.98	910.47
641.13	889.40
641.27	800.46
641.42	821.53
641.57	950.26
641.72	826.21
641.86	896.43
642.01	837.91
642.16	936.21
642.31	898.77
642.45	823.87
642.60	856.64
642.75	884.72
642.90	915.15
643.04	835.57
643.19	875.36
643.34	917.49
643.48	866.00
643.63	844.93
643.78	980.68
643.93	940.90
644.07	912.81
644.22	805.14
644.37	861.32
644.51	877.70
644.66	849.61
644.81	854.30
644.95	990.05
645.10	926.85
645.25	858.98
645.39	898.77
645.54	753.65
645.69	858.98
645.83	798.12
645.98	891.74
646.13	868.34
646.27	866.00
646.42	788.76
646.57	821.53
646.71	894.08
646.86	814.51
647.00	734.93
647.15	861.32
647.30	770.04
647.44	791.10
647.59	746.63
647.74	800.46
647.88	861.32
648.03	760.67
648.17	952.60
648.32	873.02
648.47	819.19
648.61	931.53
648.76	908.13
648.90	929.19
649.05	1032.18
649.20	1062.60
649.34	1130.48
649.49	1228.78
649.63	1439.43
649.78	1664.12
649.92	2033.93
650.07	2413.09
650.21	2829.71
650.36	3059.08
650.51	2960.78
650.65	2841.41
650.80	2590.97
650.94	2200.10
651.09	2059.67
651.23	1820.94
651.38	1650.08
651.52	1495.60
651.67	1277.93
651.81	1224.10
651.96	1158.57
652.10	1081.33
652.25	1160.91
652.39	1254.53
652.54	1221.76
652.68	1294.32
652.83	1446.45
652.97	1455.81
653.12	1458.15
653.26	1364.53
653.41	1359.85
653.55	1245.16
653.70	1193.67
653.84	1104.73
653.99	896.43
654.13	1015.79
654.27	1013.45
654.42	994.73
654.56	891.74
654.71	936.21
654.85	866.00
655.00	870.68
655.14	814.51
655.29	793.44
655.43	847.27
655.57	763.01
655.72	631.94
655.86	805.14
656.01	744.29
656.15	692.80
656.30	777.06
656.44	669.39
656.58	744.29
656.73	774.72
656.87	809.83
657.01	821.53
657.16	987.71
657.30	950.26
657.45	894.08
657.59	990.05
657.73	992.39
657.88	954.94
658.02	1114.10
658.16	950.26
658.31	858.98
658.45	791.10
658.60	767.70
658.74	730.25
658.88	638.97
659.03	629.60
659.17	697.48
659.31	566.41
659.46	533.64
659.60	594.50
659.74	578.11
659.89	624.92
660.03	599.18
660.17	594.50
660.32	550.03
660.46	538.32
660.60	550.03
660.74	638.97
660.89	582.79
661.03	599.18
661.17	631.94
661.32	763.01
661.46	819.19
661.60	908.13
661.74	1123.46
661.89	1315.38
662.03	1467.52
662.17	1734.34
662.31	1715.61
662.46	1813.92
662.60	1687.53
662.74	1511.99
662.88	1469.86
663.03	1301.34
663.17	1025.15
663.31	1095.37
663.45	959.62
663.60	889.40
663.74	828.55
663.88	819.19
664.02	751.31
664.17	758.33
664.31	746.63
664.45	671.73
664.59	629.60
664.73	554.71
664.88	667.05
665.02	608.54
665.16	550.03
665.30	631.94
665.44	587.47
665.59	674.07
665.73	561.73
665.87	571.09
666.01	517.26
666.15	554.71
666.29	599.18
666.44	573.43
666.58	561.73
666.72	479.81
666.86	486.83
667.00	627.26
667.14	535.98
667.28	594.50
667.43	592.16
667.57	589.82
667.71	613.22
667.85	528.96
667.99	596.84
668.13	531.30
668.27	566.41
668.41	545.34
668.56	568.75
668.70	545.34
668.84	524.28
668.98	578.11
669.12	491.51
669.26	531.30
669.40	620.24
669.54	517.26
669.68	535.98
669.82	472.79
669.96	538.32
670.10	463.43
670.25	575.77
670.39	587.47
670.53	393.21
670.67	589.82
670.81	463.43
670.95	449.38
671.09	561.73
671.23	500.87
671.37	489.17
671.51	547.69
671.65	505.56
671.79	547.69
671.93	505.56
672.07	554.71
672.21	493.85
672.35	479.81
672.49	533.64
672.63	435.34
672.77	503.22
672.91	454.06
673.05	475.13
673.19	521.94
673.33	489.17
673.47	451.72
673.61	416.62
673.75	390.87
673.89	461.09
674.03	404.91
674.17	456.40
674.31	440.02
674.45	454.06
674.59	376.83
674.73	437.68
674.87	444.70
675.01	409.59
675.15	383.85
675.29	510.24
675.43	461.09
675.56	503.22
675.70	465.77
675.84	407.25
675.98	374.49
676.12	444.70
676.26	409.59
676.40	444.70
676.54	397.89
676.68	447.04
676.82	400.23
676.96	388.53
677.10	404.91
677.23	388.53
677.37	386.19
677.51	458.74
677.65	433.00
677.79	351.08
677.93	440.02
678.07	351.08
678.21	409.59
678.34	341.72
678.48	418.96
678.62	418.96
678.76	411.93
678.90	435.34
679.04	414.27
679.18	416.62
679.31	369.80
679.45	362.78
679.59	411.93
679.73	381.51
679.87	454.06
680.00	519.60
680.14	365.12
680.28	500.87
680.42	489.17
680.56	461.09
680.70	535.98
680.83	444.70
680.97	386.19
681.11	496.19
681.25	564.07
681.39	416.62
681.52	503.22
681.66	414.27
681.80	379.17
681.94	381.51
682.07	458.74
682.21	510.24
682.35	334.70
682.49	468.11
682.62	540.66
682.76	397.89
682.90	402.57
683.04	479.81
683.17	440.02
683.31	360.44
683.45	379.17
683.59	365.12
683.72	339.38
683.86	479.81
684.00	397.89
684.13	397.89
684.27	400.23
684.41	379.17
684.55	355.76
684.68	475.13
684.82	358.10
684.96	400.23
685.09	376.83
685.23	379.17
685.37	395.55
685.50	421.30
685.64	397.89
685.78	425.98
685.91	500.87
686.05	461.09
686.19	477.47
686.32	545.34
686.46	552.37
686.60	503.22
686.73	664.71
686.87	711.52
687.01	786.42
687.14	814.51
687.28	940.90
687.42	917.49
687.55	1018.13
687.69	1083.67
687.82	1020.47
687.96	1048.56
688.10	961.96
688.23	844.93
688.37	924.51
688.50	791.10
688.64	713.86
688.78	716.20
688.91	702.16
689.05	575.77
689.18	552.37
689.32	540.66
689.46	472.79
689.59	383.85
689.73	313.63
689.86	337.04
690.00	369.80
690.13	358.10
690.27	243.42
690.41	344.06
690.54	470.45
690.68	440.02
690.81	472.79
690.95	308.95
691.08	367.46
691.22	351.08
691.35	227.03
691.49	236.39
691.62	285.55
691.76	330.02
691.89	224.69
692.03	248.10
692.16	234.05
692.30	304.27
692.43	266.82
692.57	241.08
692.70	308.95
692.84	407.25
692.97	379.17
693.11	397.89
693.24	500.87
693.38	580.45
693.51	730.25
693.65	877.70
693.78	912.81
693.92	835.57
694.05	779.40
694.19	559.39
694.32	503.22
694.45	430.66
694.59	475.13
694.72	304.27
694.86	362.78
694.99	346.40
695.13	259.80
695.26	257.46
695.39	255.12
695.53	231.71
695.66	231.71
695.80	234.05
695.93	266.82
696.07	238.73
696.20	266.82
696.33	351.08
696.47	322.99
696.60	348.74
696.73	241.08
696.87	245.76
697.00	304.27
697.14	292.57
697.27	205.97
697.40	273.84
697.54	180.22
697.67	241.08
697.80	159.16
697.94	182.56
698.07	236.39
698.21	168.52
698.34	189.58
698.47	191.92
698.61	276.18
698.74	227.03
698.87	276.18
699.01	166.18
699.14	201.29
699.27	285.55
699.40	159.16
699.54	156.82
699.67	182.56
699.80	168.52
699.94	168.52
700.07	159.16
700.20	184.90
700.34	290.23
700.47	255.12
700.60	74.90
700.73	196.60
700.87	175.54
701.00	220.01
701.13	208.31
701.26	217.67
701.40	194.26
701.53	215.33
701.66	187.24
701.79	248.10
701.93	245.76
702.06	224.69
702.19	271.50
702.32	285.55
702.46	238.73
702.59	208.31
702.72	203.63
702.85	304.27
702.99	278.52
703.12	278.52
703.25	285.55
703.38	245.76
703.51	306.61
703.65	285.55
703.78	306.61
703.91	404.91
704.04	383.85
704.17	339.38
704.31	311.29
704.44	367.46
704.57	362.78
704.70	400.23
704.83	379.17
704.96	397.89
705.10	437.68
705.23	461.09
>>>>>End Processed Spectral Data<<<<<
