SpectraSuite Data File
++++++++++++++++++++++++++++++++++++
Date: Fri Oct 04 11:42:00 GMT-05:00 2013
User: price-jones
Dark Spectrum Present: No
Reference Spectrum Present: No
Number of Sampled Component Spectra: 1
Spectrometers: USB2+H05261
Integration Time (usec): 100000 (USB2+H05261)
Spectra Averaged: 1 (USB2+H05261)
Boxcar Smoothing: 0 (USB2+H05261)
Correct for Electrical Dark: No (USB2+H05261)
Strobe/Lamp Enabled: No (USB2+H05261)
Correct for Detector Non-linearity: No (USB2+H05261)
Correct for Stray Light: No (USB2+H05261)
Number of Pixels in Processed Spectrum: 2048
>>>>>Begin Processed Spectral Data<<<<<
365.73	49.15
365.92	49.15
366.12	49.15
366.32	0.00
366.52	0.00
366.72	0.00
366.91	0.00
367.11	0.00
367.31	0.00
367.51	0.00
367.70	0.00
367.90	0.00
368.10	0.00
368.30	0.00
368.49	0.00
368.69	0.00
368.89	0.00
369.09	0.00
369.28	0.00
369.48	0.00
369.68	0.00
369.87	0.00
370.07	0.00
370.27	37.45
370.47	9.36
370.66	25.75
370.86	60.85
371.06	65.54
371.25	119.37
371.45	110.01
371.65	81.92
371.84	7.02
372.04	86.60
372.24	70.22
372.44	25.75
372.63	107.66
372.83	152.13
373.03	84.26
373.22	110.01
373.42	100.64
373.62	152.13
373.81	187.24
374.01	159.16
374.21	124.05
374.40	102.98
374.60	74.90
374.79	110.01
374.99	149.79
375.19	102.98
375.38	198.95
375.58	124.05
375.78	166.18
375.97	168.52
376.17	159.16
376.37	159.16
376.56	147.45
376.76	58.51
376.95	114.69
377.15	93.62
377.35	107.66
377.54	152.13
377.74	98.30
377.93	98.30
378.13	121.71
378.33	173.20
378.52	126.39
378.72	124.05
378.91	154.48
379.11	121.71
379.31	168.52
379.50	86.60
379.70	95.96
379.89	37.45
380.09	147.45
380.28	105.32
380.48	182.56
380.68	88.94
380.87	180.22
381.07	102.98
381.26	100.64
381.46	138.09
381.65	91.28
381.85	138.09
382.04	93.62
382.24	159.16
382.43	140.43
382.63	42.13
382.83	42.13
383.02	163.84
383.22	163.84
383.41	142.77
383.61	131.07
383.80	126.39
384.00	102.98
384.19	63.19
384.39	105.32
384.58	124.05
384.78	173.20
384.97	79.58
385.17	159.16
385.36	88.94
385.56	205.97
385.75	79.58
385.95	102.98
386.14	93.62
386.34	107.66
386.53	154.48
386.72	166.18
386.92	79.58
387.11	60.85
387.31	161.50
387.50	145.11
387.70	77.24
387.89	114.69
388.09	128.73
388.28	53.83
388.48	128.73
388.67	124.05
388.86	131.07
389.06	135.75
389.25	145.11
389.45	91.28
389.64	126.39
389.84	182.56
390.03	189.58
390.22	161.50
390.42	121.71
390.61	112.35
390.81	126.39
391.00	166.18
391.19	149.79
391.39	114.69
391.58	107.66
391.78	86.60
391.97	152.13
392.16	86.60
392.36	222.35
392.55	187.24
392.75	100.64
392.94	105.32
393.13	189.58
393.33	163.84
393.52	84.26
393.71	156.82
393.91	145.11
394.10	175.54
394.29	147.45
394.49	124.05
394.68	152.13
394.88	152.13
395.07	156.82
395.26	128.73
395.46	156.82
395.65	154.48
395.84	133.41
396.04	168.52
396.23	184.90
396.42	140.43
396.62	168.52
396.81	128.73
397.00	166.18
397.19	124.05
397.39	58.51
397.58	112.35
397.77	177.88
397.97	135.75
398.16	126.39
398.35	145.11
398.55	210.65
398.74	121.71
398.93	203.63
399.12	173.20
399.32	126.39
399.51	112.35
399.70	140.43
399.90	189.58
400.09	170.86
400.28	112.35
400.47	131.07
400.67	98.30
400.86	194.26
401.05	114.69
401.24	187.24
401.44	177.88
401.63	175.54
401.82	95.96
402.01	107.66
402.21	163.84
402.40	140.43
402.59	79.58
402.78	147.45
402.97	133.41
403.17	217.67
403.36	215.33
403.55	315.97
403.74	564.07
403.93	2001.16
404.13	4760.65
404.32	6387.32
404.51	5687.50
404.70	3496.76
404.89	1275.59
405.09	500.87
405.28	320.65
405.47	194.26
405.66	205.97
405.85	187.24
406.05	205.97
406.24	203.63
406.43	163.84
406.62	131.07
406.81	257.46
407.00	313.63
407.20	718.54
407.39	966.64
407.58	917.49
407.77	655.35
407.96	369.80
408.15	168.52
408.34	114.69
408.54	117.03
408.73	161.50
408.92	201.29
409.11	173.20
409.30	168.52
409.49	135.75
409.68	152.13
409.87	180.22
410.07	126.39
410.26	196.60
410.45	175.54
410.64	220.01
410.83	229.37
411.02	227.03
411.21	250.44
411.40	234.05
411.59	212.99
411.78	208.31
411.98	222.35
412.17	194.26
412.36	203.63
412.55	229.37
412.74	156.82
412.93	191.92
413.12	187.24
413.31	234.05
413.50	212.99
413.69	133.41
413.88	149.79
414.07	224.69
414.26	177.88
414.45	248.10
414.64	227.03
414.83	236.39
415.02	198.95
415.22	276.18
415.41	269.16
415.60	191.92
415.79	234.05
415.98	287.89
416.17	208.31
416.36	224.69
416.55	287.89
416.74	191.92
416.93	259.80
417.12	306.61
417.31	208.31
417.50	264.48
417.69	304.27
417.88	191.92
418.07	175.54
418.26	198.95
418.45	187.24
418.64	311.29
418.83	238.73
419.02	234.05
419.21	313.63
419.39	180.22
419.58	180.22
419.77	159.16
419.96	229.37
420.15	292.57
420.34	283.20
420.53	290.23
420.72	252.78
420.91	308.95
421.10	259.80
421.29	203.63
421.48	236.39
421.67	327.68
421.86	304.27
422.05	271.50
422.24	292.57
422.43	252.78
422.61	241.08
422.80	280.86
422.99	271.50
423.18	220.01
423.37	278.52
423.56	271.50
423.75	259.80
423.94	217.67
424.13	229.37
424.32	241.08
424.50	311.29
424.69	358.10
424.88	374.49
425.07	283.20
425.26	304.27
425.45	353.42
425.64	306.61
425.83	248.10
426.01	308.95
426.20	297.25
426.39	344.06
426.58	311.29
426.77	344.06
426.96	376.83
427.15	360.44
427.33	278.52
427.52	299.59
427.71	367.46
427.90	367.46
428.09	283.20
428.28	285.55
428.46	372.15
428.65	351.08
428.84	292.57
429.03	390.87
429.22	358.10
429.40	301.93
429.59	315.97
429.78	372.15
429.97	402.57
430.16	276.18
430.34	346.40
430.53	348.74
430.72	379.17
430.91	400.23
431.10	299.59
431.28	348.74
431.47	470.45
431.66	376.83
431.85	409.59
432.03	388.53
432.22	395.55
432.41	524.28
432.60	442.36
432.79	402.57
432.97	428.32
433.16	498.53
433.35	526.62
433.54	643.65
433.72	578.11
433.91	587.47
434.10	638.97
434.28	861.32
434.47	880.04
434.66	1041.54
434.85	1224.10
435.03	3314.20
435.22	12343.99
435.41	27583.21
435.59	29682.67
435.78	18953.66
435.97	9394.91
436.16	3639.53
436.34	1301.34
436.53	828.55
436.72	660.03
436.90	533.64
437.09	545.34
437.28	512.58
437.46	507.90
437.65	486.83
437.84	472.79
438.02	367.46
438.21	444.70
438.40	418.96
438.58	395.55
438.77	416.62
438.96	421.30
439.14	447.04
439.33	404.91
439.52	355.76
439.70	449.38
439.89	454.06
440.08	470.45
440.26	468.11
440.45	362.78
440.63	449.38
440.82	435.34
441.01	458.74
441.19	440.02
441.38	400.23
441.57	456.40
441.75	465.77
441.94	498.53
442.12	458.74
442.31	418.96
442.50	386.19
442.68	372.15
442.87	484.49
443.05	425.98
443.24	524.28
443.43	477.47
443.61	472.79
443.80	498.53
443.98	416.62
444.17	447.04
444.35	376.83
444.54	507.90
444.73	416.62
444.91	482.15
445.10	402.57
445.28	407.25
445.47	440.02
445.65	421.30
445.84	369.80
446.02	386.19
446.21	472.79
446.39	395.55
446.58	416.62
446.77	376.83
446.95	451.72
447.14	470.45
447.32	423.64
447.51	374.49
447.69	477.47
447.88	416.62
448.06	475.13
448.25	454.06
448.43	433.00
448.62	479.81
448.80	407.25
448.99	442.36
449.17	456.40
449.36	404.91
449.54	475.13
449.73	470.45
449.91	442.36
450.10	372.15
450.28	400.23
450.46	454.06
450.65	411.93
450.83	379.17
451.02	322.99
451.20	442.36
451.39	486.83
451.57	334.70
451.76	397.89
451.94	414.27
452.13	433.00
452.31	433.00
452.49	416.62
452.68	332.36
452.86	374.49
453.05	458.74
453.23	451.72
453.42	393.21
453.60	400.23
453.78	440.02
453.97	440.02
454.15	447.04
454.34	346.40
454.52	386.19
454.70	521.94
454.89	484.49
455.07	451.72
455.26	390.87
455.44	484.49
455.62	358.10
455.81	386.19
455.99	428.32
456.17	461.09
456.36	383.85
456.54	414.27
456.73	400.23
456.91	388.53
457.09	416.62
457.28	404.91
457.46	404.91
457.64	395.55
457.83	404.91
458.01	449.38
458.19	477.47
458.38	425.98
458.56	564.07
458.74	358.10
458.93	433.00
459.11	437.68
459.29	388.53
459.48	423.64
459.66	451.72
459.84	341.72
460.03	472.79
460.21	463.43
460.39	430.66
460.57	418.96
460.76	379.17
460.94	402.57
461.12	484.49
461.31	447.04
461.49	355.76
461.67	423.64
461.85	400.23
462.04	416.62
462.22	765.36
462.40	437.68
462.59	409.59
462.77	348.74
462.95	435.34
463.13	348.74
463.32	449.38
463.50	376.83
463.68	414.27
463.86	449.38
464.05	355.76
464.23	465.77
464.41	425.98
464.59	358.10
464.78	390.87
464.96	470.45
465.14	379.17
465.32	447.04
465.50	442.36
465.69	404.91
465.87	437.68
466.05	411.93
466.23	327.68
466.41	428.32
466.60	430.66
466.78	447.04
466.96	454.06
467.14	437.68
467.32	479.81
467.51	447.04
467.69	400.23
467.87	526.62
468.05	334.70
468.23	500.87
468.41	440.02
468.60	393.21
468.78	418.96
468.96	414.27
469.14	372.15
469.32	442.36
469.50	299.59
469.69	351.08
469.87	395.55
470.05	400.23
470.23	365.12
470.41	416.62
470.59	395.55
470.77	423.64
470.95	428.32
471.14	383.85
471.32	472.79
471.50	376.83
471.68	409.59
471.86	397.89
472.04	449.38
472.22	379.17
472.40	362.78
472.58	383.85
472.77	348.74
472.95	395.55
473.13	423.64
473.31	379.17
473.49	362.78
473.67	351.08
473.85	383.85
474.03	433.00
474.21	493.85
474.39	435.34
474.57	463.43
474.75	416.62
474.93	411.93
475.12	383.85
475.30	418.96
475.48	388.53
475.66	383.85
475.84	472.79
476.02	442.36
476.20	353.42
476.38	444.70
476.56	477.47
476.74	388.53
476.92	463.43
477.10	344.06
477.28	402.57
477.46	440.02
477.64	390.87
477.82	517.26
478.00	433.00
478.18	409.59
478.36	416.62
478.54	374.49
478.72	437.68
478.90	526.62
479.08	517.26
479.26	526.62
479.44	500.87
479.62	498.53
479.80	498.53
479.98	491.51
480.16	629.60
480.34	615.56
480.52	615.56
480.70	603.86
480.88	622.58
481.06	798.12
481.24	662.37
481.41	690.46
481.59	854.30
481.77	919.83
481.95	929.19
482.13	957.28
482.31	954.94
482.49	1001.75
482.67	1057.92
482.85	1214.74
483.03	1291.98
483.21	1327.08
483.39	1511.99
483.57	1371.55
483.74	1575.18
483.92	1629.01
484.10	1701.57
484.28	1778.81
484.46	1963.71
484.64	1860.73
484.82	2066.69
485.00	2085.42
485.18	2314.79
485.35	2509.05
485.53	2612.04
485.71	2705.66
485.89	2780.56
486.07	2850.77
486.25	2724.38
486.43	2871.84
486.61	2939.71
486.78	2913.97
486.96	2892.90
487.14	2942.05
487.32	2818.00
487.50	2902.26
487.68	2895.24
487.85	2885.88
488.03	2855.45
488.21	2689.28
488.39	2705.66
488.57	2677.57
488.75	2541.82
488.92	2768.85
489.10	2450.54
489.28	2396.71
489.46	2392.03
489.64	2188.40
489.81	2363.94
489.99	2333.51
490.17	2260.96
490.35	2253.94
490.53	2200.10
490.70	2115.84
490.88	2207.13
491.06	2377.98
491.24	2644.81
491.41	2511.39
491.59	2321.81
491.77	2338.20
491.95	2174.36
492.13	2148.61
492.30	1980.09
492.48	1994.14
492.66	2062.01
492.84	1959.03
493.01	1987.11
493.19	1947.33
493.37	1846.68
493.54	1858.39
493.72	1832.64
493.90	1724.97
494.08	1689.87
494.25	1696.89
494.43	1748.38
494.61	1706.25
494.79	1682.85
494.96	1703.91
495.14	1579.86
495.32	1610.29
495.49	1596.25
495.67	1521.35
495.85	1549.43
496.02	1593.90
496.20	1493.26
496.38	1526.03
496.55	1516.67
496.73	1490.92
496.91	1350.49
497.09	1371.55
497.26	1348.15
497.44	1357.51
497.62	1359.85
497.79	1303.68
497.97	1247.51
498.14	1303.68
498.32	1158.57
498.50	1114.10
498.67	1135.16
498.85	1107.07
499.03	1067.28
499.20	1132.82
499.38	1116.44
499.56	1032.18
499.73	999.41
499.91	1081.33
500.08	945.58
500.26	929.19
500.44	924.51
500.61	863.66
500.79	826.21
500.97	830.89
501.14	856.64
501.32	891.74
501.49	744.29
501.67	748.97
501.84	746.63
502.02	638.97
502.20	723.23
502.37	702.16
502.55	613.22
502.72	702.16
502.90	643.65
503.07	674.07
503.25	629.60
503.43	585.13
503.60	660.03
503.78	603.86
503.95	622.58
504.13	559.39
504.30	566.41
504.48	617.90
504.65	608.54
504.83	498.53
505.01	540.66
505.18	535.98
505.36	545.34
505.53	512.58
505.71	496.19
505.88	547.69
506.06	444.70
506.23	470.45
506.41	489.17
506.58	571.09
506.76	433.00
506.93	433.00
507.11	444.70
507.28	409.59
507.46	428.32
507.63	484.49
507.81	435.34
507.98	421.30
508.16	507.90
508.33	521.94
508.50	503.22
508.68	472.79
508.85	470.45
509.03	505.56
509.20	447.04
509.38	484.49
509.55	465.77
509.73	465.77
509.90	409.59
510.08	379.17
510.25	421.30
510.42	318.31
510.60	423.64
510.77	468.11
510.95	449.38
511.12	461.09
511.30	465.77
511.47	362.78
511.64	435.34
511.82	430.66
511.99	407.25
512.17	393.21
512.34	297.25
512.51	360.44
512.69	463.43
512.86	423.64
513.04	318.31
513.21	414.27
513.38	482.15
513.56	411.93
513.73	395.55
513.90	351.08
514.08	379.17
514.25	367.46
514.43	383.85
514.60	332.36
514.77	393.21
514.95	423.64
515.12	390.87
515.29	407.25
515.47	358.10
515.64	386.19
515.81	376.83
515.99	397.89
516.16	425.98
516.33	393.21
516.51	353.42
516.68	325.33
516.85	407.25
517.03	374.49
517.20	339.38
517.37	315.97
517.54	327.68
517.72	381.51
517.89	374.49
518.06	402.57
518.24	348.74
518.41	353.42
518.58	402.57
518.75	372.15
518.93	393.21
519.10	355.76
519.27	278.52
519.45	372.15
519.62	320.65
519.79	397.89
519.96	332.36
520.14	447.04
520.31	367.46
520.48	418.96
520.65	290.23
520.83	435.34
521.00	362.78
521.17	259.80
521.34	339.38
521.52	369.80
521.69	379.17
521.86	299.59
522.03	285.55
522.20	346.40
522.38	306.61
522.55	313.63
522.72	369.80
522.89	402.57
523.07	397.89
523.24	409.59
523.41	344.06
523.58	393.21
523.75	400.23
523.92	404.91
524.10	402.57
524.27	404.91
524.44	341.72
524.61	388.53
524.78	341.72
524.96	397.89
525.13	353.42
525.30	414.27
525.47	456.40
525.64	393.21
525.81	440.02
525.98	475.13
526.16	400.23
526.33	376.83
526.50	346.40
526.67	372.15
526.84	414.27
527.01	461.09
527.18	451.72
527.36	519.60
527.53	524.28
527.70	484.49
527.87	430.66
528.04	482.15
528.21	362.78
528.38	454.06
528.55	418.96
528.72	482.15
528.89	557.05
529.07	463.43
529.24	435.34
529.41	510.24
529.58	430.66
529.75	409.59
529.92	486.83
530.09	526.62
530.26	517.26
530.43	510.24
530.60	482.15
530.77	510.24
530.94	601.52
531.11	599.18
531.28	606.20
531.46	526.62
531.63	601.52
531.80	629.60
531.97	704.50
532.14	779.40
532.31	889.40
532.48	1036.86
532.65	1198.35
532.82	1343.47
532.99	1645.40
533.16	1720.29
533.33	1816.26
533.50	1699.23
533.67	1446.45
533.84	1242.82
534.01	1107.07
534.18	1167.93
534.35	1032.18
534.52	1067.28
534.69	1167.93
534.86	1111.75
535.03	1151.54
535.20	1181.97
535.37	1378.58
535.54	1303.68
535.71	1462.83
535.88	1610.29
536.05	1568.16
536.22	1708.59
536.38	1668.80
536.55	2022.22
536.72	2251.60
536.89	2443.52
537.06	2691.62
537.23	2965.46
537.40	3316.54
537.57	3545.91
537.74	3599.74
537.91	3932.10
538.08	4018.70
538.25	4037.42
538.42	4114.66
538.59	4215.30
538.75	4196.58
538.92	4454.04
539.09	4781.71
539.26	5472.17
539.43	6136.88
539.60	7068.42
539.77	7801.01
539.94	8823.82
540.11	9680.46
540.28	10684.55
540.44	11613.74
540.61	12786.35
540.78	14712.61
540.95	17937.87
541.12	21317.60
541.29	24140.29
541.46	25106.93
541.62	25008.62
541.79	23718.99
541.96	22092.32
542.13	20102.86
542.30	19180.69
542.47	17991.70
542.63	16847.18
542.80	16486.73
542.97	16442.26
543.14	15854.79
543.31	16137.99
543.48	16219.91
543.64	16292.47
543.81	16528.86
543.98	16376.73
544.15	16779.30
544.32	16926.75
544.48	16938.46
544.65	16566.31
544.82	16549.93
544.99	16587.38
545.16	17022.72
545.32	18274.90
545.49	29769.27
545.66	52910.15
545.83	59882.61
546.00	54770.88
546.16	39882.73
546.33	29766.93
546.50	21916.78
546.67	16681.00
546.83	15143.27
547.00	14190.67
547.17	13696.82
547.34	13231.05
547.50	12706.77
547.67	12058.44
547.84	11936.73
548.00	11426.50
548.17	10829.66
548.34	10445.81
548.51	9944.94
548.67	9380.87
548.84	9111.71
549.01	8737.22
549.18	8421.25
549.34	7967.18
549.51	7672.28
549.68	7288.43
549.84	7150.34
550.01	6754.79
550.18	6506.69
550.34	6141.57
550.51	5902.83
550.68	5720.27
550.84	5334.08
551.01	4975.98
551.18	4821.50
551.34	4638.94
551.51	4430.63
551.68	4252.75
551.84	4187.22
552.01	3915.72
552.18	3740.18
552.34	3538.89
552.51	3471.01
552.68	3304.84
552.84	3283.77
553.01	3080.14
553.18	2892.90
553.34	2780.56
553.51	2867.16
553.67	2698.64
553.84	2635.44
554.01	2413.09
554.17	2380.32
554.34	2181.38
554.51	2010.52
554.67	1916.90
554.84	1729.66
555.00	1720.29
555.17	1617.31
555.33	1664.12
555.50	1533.05
555.67	1526.03
555.83	1329.42
556.00	1348.15
556.16	1547.09
556.33	1366.87
556.50	1181.97
556.66	1226.44
556.83	1114.10
556.99	1060.26
557.16	1011.11
557.32	1130.48
557.49	1060.26
557.65	924.51
557.82	952.60
557.98	910.47
558.15	924.51
558.32	971.32
558.48	847.27
558.65	774.72
558.81	868.34
558.98	833.23
559.14	849.61
559.31	861.32
559.47	884.72
559.64	763.01
559.80	748.97
559.97	772.38
560.13	835.57
560.30	788.76
560.46	744.29
560.63	772.38
560.79	660.03
560.96	840.25
561.12	746.63
561.29	746.63
561.45	732.59
561.61	765.36
561.78	901.11
561.94	753.65
562.11	727.91
562.27	716.20
562.44	770.04
562.60	753.65
562.77	624.92
562.93	774.72
563.10	685.78
563.26	720.88
563.42	718.54
563.59	636.63
563.75	580.45
563.92	653.01
564.08	648.33
564.24	627.26
564.41	671.73
564.57	662.37
564.74	580.45
564.90	622.58
565.07	650.67
565.23	617.90
565.39	622.58
565.56	554.71
565.72	601.52
565.88	552.37
566.05	517.26
566.21	491.51
566.38	543.00
566.54	643.65
566.70	589.82
566.87	589.82
567.03	587.47
567.19	528.96
567.36	585.13
567.52	603.86
567.68	613.22
567.85	634.29
568.01	636.63
568.17	596.84
568.34	585.13
568.50	615.56
568.66	543.00
568.83	657.69
568.99	519.60
569.15	594.50
569.32	559.39
569.48	580.45
569.64	524.28
569.81	475.13
569.97	512.58
570.13	528.96
570.30	517.26
570.46	458.74
570.62	437.68
570.78	503.22
570.95	461.09
571.11	465.77
571.27	489.17
571.43	451.72
571.60	433.00
571.76	402.57
571.92	463.43
572.09	507.90
572.25	510.24
572.41	559.39
572.57	486.83
572.74	491.51
572.90	498.53
573.06	449.38
573.22	571.09
573.38	575.77
573.55	489.17
573.71	505.56
573.87	519.60
574.03	519.60
574.20	500.87
574.36	505.56
574.52	547.69
574.68	543.00
574.84	645.99
575.01	641.31
575.17	596.84
575.33	655.35
575.49	695.14
575.65	772.38
575.82	734.93
575.98	842.59
576.14	870.68
576.30	1970.73
576.46	6303.06
576.62	11260.32
576.79	12507.82
576.95	8514.87
577.11	5605.58
577.27	4191.90
577.43	2773.53
577.59	1825.62
577.75	1490.92
577.92	1275.59
578.08	1224.10
578.24	1287.29
578.40	2022.22
578.56	5832.62
578.72	9973.02
578.88	11066.05
579.04	8098.25
579.21	5509.62
579.37	4231.69
579.53	3229.94
579.69	3023.97
579.85	3815.07
580.01	4278.50
580.17	4147.43
580.33	3623.15
580.49	3166.74
580.65	2757.15
580.82	2710.34
580.98	2532.46
581.14	2544.16
581.30	2663.53
581.46	2925.67
581.62	3155.04
581.78	3197.17
581.94	3529.53
582.10	3728.47
582.26	3911.04
582.42	4128.70
582.58	4177.86
582.74	4173.18
582.90	4337.01
583.06	4306.59
583.22	4358.08
583.38	4191.90
583.54	4259.78
583.70	4353.40
583.86	4212.96
584.02	4072.53
584.18	3941.46
584.34	4014.02
584.50	4002.32
584.66	3857.20
584.82	3747.20
584.98	3751.88
585.14	3763.58
585.30	3728.47
585.46	3684.00
585.62	3564.64
585.78	3517.83
585.94	3686.34
586.10	3632.51
586.26	3803.37
586.42	4250.41
586.58	5263.86
586.74	6366.26
586.90	7761.22
587.06	8388.48
587.22	8205.92
587.38	7290.77
587.54	6338.17
587.70	5392.59
587.86	4648.30
588.02	3913.38
588.18	3435.91
588.34	3183.13
588.49	2818.00
588.65	2806.30
588.81	2569.91
588.97	2597.99
589.13	2385.01
589.29	2303.09
589.45	2303.09
589.61	2492.67
589.77	2504.37
589.93	2410.75
590.08	2483.31
590.24	2499.69
590.40	2619.06
590.56	2754.81
590.72	2726.72
590.88	2726.72
591.04	2944.39
591.20	3068.44
591.35	3187.81
591.51	3262.71
591.67	3435.91
591.83	3641.87
591.99	4065.51
592.15	4299.56
592.31	4524.26
592.46	5048.54
592.62	5654.73
592.78	5912.19
592.94	5891.13
593.10	5809.21
593.26	5675.80
593.41	5217.05
593.57	4580.43
593.73	4044.45
593.89	3557.61
594.05	3253.34
594.20	2984.18
594.36	2726.72
594.52	2506.71
594.68	2459.90
594.84	2356.92
594.99	2373.30
595.15	2097.12
595.31	2143.93
595.47	2242.23
595.62	2113.50
595.78	2069.03
595.94	2111.16
596.10	2076.06
596.25	2125.21
596.41	2251.60
596.57	2080.74
596.73	2087.76
596.88	2094.78
597.04	2066.69
597.20	2122.87
597.36	2211.81
597.51	2181.38
597.67	2331.17
597.83	2394.37
597.99	2567.57
598.14	2740.77
598.30	2846.09
598.46	2963.12
598.61	3222.92
598.77	3269.73
598.93	3396.12
599.09	3564.64
599.24	3751.88
599.40	3630.17
599.56	3389.10
599.71	3211.22
599.87	3157.38
600.03	2930.35
600.18	2712.68
600.34	2609.70
600.50	2485.65
600.65	2291.38
600.81	2172.02
600.97	2073.71
601.12	1973.07
601.28	1865.41
601.44	1783.49
601.59	1746.04
601.75	1701.57
601.91	1631.35
602.06	1586.88
602.22	1572.84
602.37	1420.71
602.53	1380.92
602.69	1427.73
602.84	1488.58
603.00	1387.94
603.16	1547.09
603.31	1497.94
603.47	1462.83
603.62	1462.83
603.78	1593.90
603.94	1544.75
604.09	1650.08
604.25	1659.44
604.40	1629.01
604.56	1720.29
604.71	1675.82
604.87	1692.21
605.03	1806.89
605.18	1739.02
605.34	1706.25
605.49	1790.51
605.65	1963.71
605.80	1944.99
605.96	2019.88
606.12	2054.99
606.27	2200.10
606.43	2403.73
606.58	2370.96
606.74	2410.75
606.89	2539.48
607.05	2733.75
607.20	2888.22
607.36	3052.06
607.51	3122.27
607.67	3520.17
607.82	3604.42
607.98	3798.69
608.13	4042.11
608.29	4447.02
608.44	4748.95
608.60	5266.21
608.75	5551.75
608.91	6380.30
609.06	6689.25
609.22	7470.99
609.37	8159.11
609.53	9301.29
609.68	10509.01
609.84	11676.93
609.99	14197.69
610.15	16578.01
610.30	20547.56
610.46	26113.36
610.61	33666.27
610.76	42611.79
610.92	50618.77
611.07	54616.40
611.23	55063.44
611.38	53727.00
611.54	50258.32
611.69	43852.28
611.84	36364.90
612.00	30326.32
612.15	25127.99
612.31	22099.34
612.46	20030.30
612.62	18511.30
612.77	17116.34
612.92	16219.91
613.08	15227.53
613.23	14469.19
613.39	13963.64
613.54	13633.62
613.69	13177.22
613.85	13212.32
614.00	12861.24
614.15	13170.19
614.31	12575.70
614.46	12369.73
614.62	11978.86
614.77	11531.82
614.92	11068.39
615.08	9994.09
615.23	9303.63
615.38	8596.79
615.54	7822.07
615.69	7353.96
615.84	6558.18
616.00	6019.86
616.15	5621.97
616.30	5298.97
616.46	5018.11
616.61	4622.56
616.76	4393.19
616.92	4219.99
617.07	3990.61
617.22	3772.94
617.37	3557.61
617.53	3456.97
617.68	3396.12
617.83	3112.91
617.99	3145.68
618.14	3112.91
618.29	2897.58
618.45	2892.90
618.60	2946.73
618.75	2708.00
618.90	2729.06
619.06	2698.64
619.21	2745.45
619.36	2799.28
619.51	2691.62
619.67	2700.98
619.82	2740.77
619.97	2768.85
620.12	2932.69
620.28	2928.01
620.43	2892.90
620.58	2977.16
620.73	3054.40
620.89	2953.76
621.04	3023.97
621.19	2920.99
621.34	2867.16
621.49	2871.84
621.65	2836.73
621.80	2822.69
621.95	2743.11
622.10	2813.32
622.25	2736.09
622.41	2878.86
622.56	3028.65
622.71	3094.19
622.86	3119.93
623.01	3119.93
623.16	3290.79
623.32	3117.59
623.47	3185.47
623.62	3169.09
623.77	3087.17
623.92	3126.96
624.07	3155.04
624.23	3267.39
624.38	3038.02
624.53	3119.93
624.68	3173.77
624.83	3059.08
624.98	3192.49
625.13	3236.96
625.29	3304.84
625.44	3363.35
625.59	3272.07
625.74	3262.71
625.89	3309.52
626.04	3274.41
626.19	3288.45
626.34	3225.26
626.49	3321.22
626.65	3236.96
626.80	3166.74
626.95	3133.98
627.10	3061.42
627.25	2995.89
627.40	3026.31
627.55	2895.24
627.70	2949.08
627.85	2782.90
628.00	2888.22
628.15	2937.37
628.30	3030.99
628.45	2899.92
628.60	2958.44
628.76	2850.77
628.91	2881.20
629.06	2986.52
629.21	3005.25
629.36	3122.27
629.51	3087.17
629.66	3356.33
629.81	3616.13
629.96	3988.27
630.11	4121.68
630.26	4863.63
630.41	5296.63
630.56	5675.80
630.71	6202.42
630.86	6377.96
631.01	6305.40
631.16	5757.72
631.31	5135.14
631.46	4407.23
631.61	3761.24
631.76	3056.74
631.91	2574.59
632.06	2218.83
632.21	1959.03
632.36	1804.55
632.51	1507.30
632.66	1495.60
632.81	1458.15
632.96	1296.66
633.10	1158.57
633.25	1198.35
633.40	1163.25
633.55	1048.56
633.70	971.32
633.85	966.64
634.00	915.15
634.15	950.26
634.30	894.08
634.45	959.62
634.60	896.43
634.75	875.36
634.90	912.81
635.05	840.25
635.19	809.83
635.34	889.40
635.49	842.59
635.64	791.10
635.79	809.83
635.94	788.76
636.09	819.19
636.24	734.93
636.39	690.46
636.53	770.04
636.68	830.89
636.83	657.69
636.98	737.27
637.13	791.10
637.28	697.48
637.43	669.39
637.57	683.44
637.72	777.06
637.87	699.82
638.02	650.67
638.17	641.31
638.32	624.92
638.46	613.22
638.61	692.80
638.76	610.88
638.91	610.88
639.06	629.60
639.20	674.07
639.35	582.79
639.50	608.54
639.65	550.03
639.80	613.22
639.94	592.16
640.09	655.35
640.24	533.64
640.39	615.56
640.54	613.22
640.68	620.24
640.83	641.31
640.98	599.18
641.13	631.94
641.27	608.54
641.42	624.92
641.57	554.71
641.72	521.94
641.86	531.30
642.01	496.19
642.16	580.45
642.31	610.88
642.45	648.33
642.60	580.45
642.75	531.30
642.90	568.75
643.04	540.66
643.19	547.69
643.34	547.69
643.48	582.79
643.63	641.31
643.78	533.64
643.93	573.43
644.07	587.47
644.22	545.34
644.37	587.47
644.51	608.54
644.66	573.43
644.81	683.44
644.95	566.41
645.10	531.30
645.25	512.58
645.39	676.41
645.54	636.63
645.69	631.94
645.83	550.03
645.98	650.67
646.13	461.09
646.27	559.39
646.42	550.03
646.57	573.43
646.71	531.30
646.86	580.45
647.00	526.62
647.15	601.52
647.30	521.94
647.44	472.79
647.59	524.28
647.74	580.45
647.88	517.26
648.03	458.74
648.17	543.00
648.32	512.58
648.47	461.09
648.61	557.05
648.76	526.62
648.90	554.71
649.05	650.67
649.20	664.71
649.34	716.20
649.49	802.80
649.63	880.04
649.78	1001.75
649.92	1245.16
650.07	1516.67
650.21	1645.40
650.36	1764.76
650.51	1748.38
650.65	1650.08
650.80	1467.52
650.94	1385.60
651.09	1144.52
651.23	1083.67
651.38	1008.77
651.52	950.26
651.67	868.34
651.81	840.25
651.96	610.88
652.10	709.18
652.25	681.10
652.39	737.27
652.54	830.89
652.68	898.77
652.83	905.79
652.97	870.68
653.12	851.96
653.26	856.64
653.41	858.98
653.55	720.88
653.70	683.44
653.84	723.23
653.99	697.48
654.13	648.33
654.27	669.39
654.42	620.24
654.56	585.13
654.71	540.66
654.85	505.56
655.00	564.07
655.14	568.75
655.29	578.11
655.43	519.60
655.57	421.30
655.72	484.49
655.86	524.28
656.01	559.39
656.15	519.60
656.30	461.09
656.44	491.51
656.58	505.56
656.73	531.30
656.87	535.98
657.01	526.62
657.16	568.75
657.30	608.54
657.45	671.73
657.59	678.76
657.73	669.39
657.88	669.39
658.02	683.44
658.16	624.92
658.31	589.82
658.45	550.03
658.60	435.34
658.74	486.83
658.88	472.79
659.03	416.62
659.17	458.74
659.31	425.98
659.46	409.59
659.60	454.06
659.74	442.36
659.89	369.80
660.03	411.93
660.17	479.81
660.32	428.32
660.46	397.89
660.60	337.04
660.74	407.25
660.89	428.32
661.03	479.81
661.17	496.19
661.32	526.62
661.46	554.71
661.60	557.05
661.74	744.29
661.89	873.02
662.03	943.24
662.17	1032.18
662.31	1076.65
662.46	1076.65
662.60	966.64
662.74	779.40
662.88	816.85
663.03	725.57
663.17	645.99
663.31	606.20
663.45	596.84
663.60	531.30
663.74	571.09
663.88	517.26
664.02	486.83
664.17	526.62
664.31	484.49
664.45	407.25
664.59	397.89
664.73	433.00
664.88	400.23
665.02	351.08
665.16	409.59
665.30	404.91
665.44	351.08
665.59	440.02
665.73	327.68
665.87	360.44
666.01	386.19
666.15	327.68
666.29	381.51
666.44	381.51
666.58	451.72
666.72	444.70
666.86	461.09
667.00	493.85
667.14	435.34
667.28	358.10
667.43	430.66
667.57	447.04
667.71	470.45
667.85	402.57
667.99	369.80
668.13	360.44
668.27	374.49
668.41	367.46
668.56	397.89
668.70	334.70
668.84	353.42
668.98	348.74
669.12	306.61
669.26	365.12
669.40	454.06
669.54	355.76
669.68	428.32
669.82	362.78
669.96	393.21
670.10	315.97
670.25	334.70
670.39	390.87
670.53	299.59
670.67	332.36
670.81	318.31
670.95	404.91
671.09	374.49
671.23	433.00
671.37	376.83
671.51	304.27
671.65	374.49
671.79	287.89
671.93	346.40
672.07	430.66
672.21	393.21
672.35	365.12
672.49	404.91
672.63	423.64
672.77	344.06
672.91	299.59
673.05	297.25
673.19	306.61
673.33	301.93
673.47	271.50
673.61	327.68
673.75	320.65
673.89	334.70
674.03	388.53
674.17	374.49
674.31	339.38
674.45	362.78
674.59	280.86
674.73	283.20
674.87	308.95
675.01	320.65
675.15	304.27
675.29	325.33
675.43	374.49
675.56	330.02
675.70	337.04
675.84	322.99
675.98	273.84
676.12	320.65
676.26	220.01
676.40	257.46
676.54	278.52
676.68	376.83
676.82	297.25
676.96	217.67
677.10	322.99
677.23	325.33
677.37	241.08
677.51	264.48
677.65	294.91
677.79	243.42
677.93	278.52
678.07	290.23
678.21	306.61
678.34	266.82
678.48	266.82
678.62	301.93
678.76	308.95
678.90	351.08
679.04	341.72
679.18	337.04
679.31	276.18
679.45	285.55
679.59	304.27
679.73	311.29
679.87	280.86
680.00	297.25
680.14	280.86
680.28	362.78
680.42	294.91
680.56	341.72
680.70	315.97
680.83	292.57
680.97	339.38
681.11	327.68
681.25	393.21
681.39	306.61
681.52	383.85
681.66	283.20
681.80	381.51
681.94	252.78
682.07	292.57
682.21	250.44
682.35	245.76
682.49	245.76
682.62	334.70
682.76	257.46
682.90	271.50
683.04	334.70
683.17	337.04
683.31	250.44
683.45	224.69
683.59	287.89
683.72	304.27
683.86	285.55
684.00	306.61
684.13	386.19
684.27	234.05
684.41	334.70
684.55	255.12
684.68	262.14
684.82	294.91
684.96	386.19
685.09	276.18
685.23	301.93
685.37	292.57
685.50	311.29
685.64	341.72
685.78	325.33
685.91	393.21
686.05	409.59
686.19	400.23
686.32	376.83
686.46	362.78
686.60	365.12
686.73	489.17
686.87	463.43
687.01	498.53
687.14	449.38
687.28	599.18
687.42	543.00
687.55	594.50
687.69	592.16
687.82	568.75
687.96	711.52
688.10	540.66
688.23	475.13
688.37	613.22
688.50	512.58
688.64	442.36
688.78	468.11
688.91	433.00
689.05	421.30
689.18	351.08
689.32	283.20
689.46	280.86
689.59	318.31
689.73	262.14
689.86	184.90
690.00	290.23
690.13	259.80
690.27	170.86
690.41	234.05
690.54	332.36
690.68	344.06
690.81	348.74
690.95	227.03
691.08	243.42
691.22	173.20
691.35	215.33
691.49	184.90
691.62	222.35
691.76	208.31
691.89	264.48
692.03	156.82
692.16	241.08
692.30	271.50
692.43	222.35
692.57	229.37
692.70	194.26
692.84	243.42
692.97	220.01
693.11	243.42
693.24	313.63
693.38	393.21
693.51	447.04
693.65	519.60
693.78	482.15
693.92	482.15
694.05	411.93
694.19	388.53
694.32	390.87
694.45	285.55
694.59	236.39
694.72	234.05
694.86	203.63
694.99	227.03
695.13	220.01
695.26	297.25
695.39	231.71
695.53	217.67
695.66	269.16
695.80	180.22
695.93	117.03
696.07	166.18
696.20	145.11
696.33	250.44
696.47	248.10
696.60	257.46
696.73	210.65
696.87	156.82
697.00	271.50
697.14	196.60
697.27	161.50
697.40	294.91
697.54	210.65
697.67	147.45
697.80	161.50
697.94	149.79
698.07	238.73
698.21	215.33
698.34	149.79
698.47	220.01
698.61	91.28
698.74	161.50
698.87	182.56
699.01	222.35
699.14	220.01
699.27	191.92
699.40	241.08
699.54	191.92
699.67	234.05
699.80	98.30
699.94	112.35
700.07	114.69
700.20	208.31
700.34	177.88
700.47	191.92
700.60	184.90
700.73	152.13
700.87	224.69
701.00	117.03
701.13	196.60
701.26	166.18
701.40	182.56
701.53	210.65
701.66	154.48
701.79	161.50
701.93	229.37
702.06	149.79
702.19	191.92
702.32	173.20
702.46	227.03
702.59	152.13
702.72	196.60
702.85	135.75
702.99	156.82
703.12	257.46
703.25	198.95
703.38	196.60
703.51	177.88
703.65	264.48
703.78	177.88
703.91	238.73
704.04	280.86
704.17	161.50
704.31	182.56
704.44	231.71
704.57	241.08
704.70	259.80
704.83	311.29
704.96	271.50
705.10	250.44
705.23	222.35
>>>>>End Processed Spectral Data<<<<<
