SpectraSuite Data File
++++++++++++++++++++++++++++++++++++
Date: Fri Oct 04 11:42:20 GMT-05:00 2013
User: price-jones
Dark Spectrum Present: No
Reference Spectrum Present: No
Number of Sampled Component Spectra: 1
Spectrometers: USB2+H05261
Integration Time (usec): 100000 (USB2+H05261)
Spectra Averaged: 1 (USB2+H05261)
Boxcar Smoothing: 0 (USB2+H05261)
Correct for Electrical Dark: No (USB2+H05261)
Strobe/Lamp Enabled: No (USB2+H05261)
Correct for Detector Non-linearity: No (USB2+H05261)
Correct for Stray Light: No (USB2+H05261)
Number of Pixels in Processed Spectrum: 2048
>>>>>Begin Processed Spectral Data<<<<<
365.73	72.56
365.92	72.56
366.12	72.56
366.32	0.00
366.52	0.00
366.72	0.00
366.91	0.00
367.11	0.00
367.31	0.00
367.51	0.00
367.70	0.00
367.90	0.00
368.10	0.00
368.30	0.00
368.49	0.00
368.69	0.00
368.89	0.00
369.09	0.00
369.28	37.45
369.48	0.00
369.68	0.00
369.87	0.00
370.07	0.00
370.27	21.06
370.47	18.72
370.66	56.17
370.86	117.03
371.06	11.70
371.25	84.26
371.45	105.32
371.65	95.96
371.84	91.28
372.04	126.39
372.24	100.64
372.44	30.43
372.63	93.62
372.83	187.24
373.03	81.92
373.22	51.49
373.42	102.98
373.62	110.01
373.81	121.71
374.01	170.86
374.21	161.50
374.40	119.37
374.60	154.48
374.79	154.48
374.99	133.41
375.19	114.69
375.38	159.16
375.58	135.75
375.78	196.60
375.97	161.50
376.17	180.22
376.37	72.56
376.56	138.09
376.76	74.90
376.95	88.94
377.15	159.16
377.35	166.18
377.54	161.50
377.74	138.09
377.93	133.41
378.13	152.13
378.33	98.30
378.52	95.96
378.72	161.50
378.91	208.31
379.11	152.13
379.31	117.03
379.50	98.30
379.70	140.43
379.89	124.05
380.09	173.20
380.28	173.20
380.48	194.26
380.68	72.56
380.87	105.32
381.07	133.41
381.26	74.90
381.46	140.43
381.65	168.52
381.85	32.77
382.04	100.64
382.24	126.39
382.43	128.73
382.63	110.01
382.83	121.71
383.02	152.13
383.22	180.22
383.41	93.62
383.61	98.30
383.80	98.30
384.00	117.03
384.19	152.13
384.39	142.77
384.58	100.64
384.78	126.39
384.97	110.01
385.17	95.96
385.36	77.24
385.56	128.73
385.75	128.73
385.95	93.62
386.14	126.39
386.34	72.56
386.53	86.60
386.72	117.03
386.92	210.65
387.11	100.64
387.31	107.66
387.50	135.75
387.70	84.26
387.89	145.11
388.09	49.15
388.28	67.88
388.48	175.54
388.67	91.28
388.86	133.41
389.06	86.60
389.25	156.82
389.45	161.50
389.64	159.16
389.84	161.50
390.03	126.39
390.22	161.50
390.42	114.69
390.61	84.26
390.81	70.22
391.00	95.96
391.19	110.01
391.39	133.41
391.58	191.92
391.78	107.66
391.97	173.20
392.16	121.71
392.36	72.56
392.55	175.54
392.75	135.75
392.94	133.41
393.13	131.07
393.33	86.60
393.52	119.37
393.71	138.09
393.91	149.79
394.10	173.20
394.29	170.86
394.49	203.63
394.68	67.88
394.88	35.11
395.07	163.84
395.26	138.09
395.46	124.05
395.65	86.60
395.84	149.79
396.04	234.05
396.23	117.03
396.42	126.39
396.62	142.77
396.81	159.16
397.00	147.45
397.19	100.64
397.39	70.22
397.58	175.54
397.77	77.24
397.97	196.60
398.16	156.82
398.35	159.16
398.55	117.03
398.74	107.66
398.93	161.50
399.12	135.75
399.32	135.75
399.51	152.13
399.70	217.67
399.90	156.82
400.09	88.94
400.28	142.77
400.47	126.39
400.67	166.18
400.86	138.09
401.05	145.11
401.24	161.50
401.44	84.26
401.63	156.82
401.82	131.07
402.01	121.71
402.21	159.16
402.40	163.84
402.59	198.95
402.78	161.50
402.97	138.09
403.17	175.54
403.36	187.24
403.55	266.82
403.74	514.92
403.93	1605.61
404.13	3169.09
404.32	3878.27
404.51	3227.60
404.70	1811.57
404.89	718.54
405.09	372.15
405.28	208.31
405.47	154.48
405.66	138.09
405.85	184.90
406.05	135.75
406.24	152.13
406.43	168.52
406.62	152.13
406.81	198.95
407.00	250.44
407.20	559.39
407.39	610.88
407.58	561.73
407.77	425.98
407.96	212.99
408.15	196.60
408.34	259.80
408.54	131.07
408.73	170.86
408.92	133.41
409.11	140.43
409.30	222.35
409.49	110.01
409.68	201.29
409.87	156.82
410.07	159.16
410.26	196.60
410.45	191.92
410.64	161.50
410.83	159.16
411.02	135.75
411.21	196.60
411.40	234.05
411.59	147.45
411.78	138.09
411.98	145.11
412.17	124.05
412.36	243.42
412.55	210.65
412.74	149.79
412.93	191.92
413.12	112.35
413.31	156.82
413.50	149.79
413.69	191.92
413.88	156.82
414.07	182.56
414.26	154.48
414.45	175.54
414.64	142.77
414.83	135.75
415.02	121.71
415.22	231.71
415.41	184.90
415.60	135.75
415.79	191.92
415.98	234.05
416.17	152.13
416.36	114.69
416.55	243.42
416.74	145.11
416.93	208.31
417.12	210.65
417.31	173.20
417.50	262.14
417.69	271.50
417.88	147.45
418.07	205.97
418.26	182.56
418.45	154.48
418.64	194.26
418.83	161.50
419.02	177.88
419.21	131.07
419.39	276.18
419.58	266.82
419.77	189.58
419.96	224.69
420.15	266.82
420.34	161.50
420.53	250.44
420.72	203.63
420.91	208.31
421.10	203.63
421.29	236.39
421.48	196.60
421.67	212.99
421.86	110.01
422.05	182.56
422.24	229.37
422.43	255.12
422.61	212.99
422.80	138.09
422.99	201.29
423.18	201.29
423.37	262.14
423.56	245.76
423.75	255.12
423.94	205.97
424.13	182.56
424.32	220.01
424.50	222.35
424.69	203.63
424.88	280.86
425.07	187.24
425.26	266.82
425.45	229.37
425.64	194.26
425.83	290.23
426.01	194.26
426.20	248.10
426.39	236.39
426.58	205.97
426.77	269.16
426.96	269.16
427.15	243.42
427.33	201.29
427.52	238.73
427.71	154.48
427.90	182.56
428.09	220.01
428.28	180.22
428.46	257.46
428.65	222.35
428.84	250.44
429.03	334.70
429.22	266.82
429.40	273.84
429.59	276.18
429.78	259.80
429.97	318.31
430.16	205.97
430.34	259.80
430.53	241.08
430.72	220.01
430.91	252.78
431.10	220.01
431.28	203.63
431.47	280.86
431.66	255.12
431.85	269.16
432.03	315.97
432.22	299.59
432.41	271.50
432.60	210.65
432.79	320.65
432.97	358.10
433.16	369.80
433.35	299.59
433.54	344.06
433.72	421.30
433.91	416.62
434.10	512.58
434.28	571.09
434.47	645.99
434.66	617.90
434.85	940.90
435.03	2562.89
435.22	9137.45
435.41	17600.83
435.59	15833.72
435.78	10319.42
435.97	5027.47
436.16	2001.16
436.34	835.57
436.53	493.85
436.72	451.72
436.90	402.57
437.09	393.21
437.28	468.11
437.46	388.53
437.65	355.76
437.84	397.89
438.02	276.18
438.21	322.99
438.40	308.95
438.58	276.18
438.77	332.36
438.96	322.99
439.14	245.76
439.33	273.84
439.52	332.36
439.70	376.83
439.89	280.86
440.08	308.95
440.26	334.70
440.45	287.89
440.63	278.52
440.82	351.08
441.01	376.83
441.19	304.27
441.38	360.44
441.57	285.55
441.75	358.10
441.94	334.70
442.12	332.36
442.31	320.65
442.50	344.06
442.68	308.95
442.87	306.61
443.05	372.15
443.24	292.57
443.43	360.44
443.61	395.55
443.80	294.91
443.98	290.23
444.17	337.04
444.35	407.25
444.54	252.78
444.73	311.29
444.91	351.08
445.10	292.57
445.28	348.74
445.47	299.59
445.65	304.27
445.84	278.52
446.02	330.02
446.21	285.55
446.39	301.93
446.58	313.63
446.77	264.48
446.95	234.05
447.14	337.04
447.32	313.63
447.51	334.70
447.69	369.80
447.88	257.46
448.06	369.80
448.25	325.33
448.43	294.91
448.62	297.25
448.80	306.61
448.99	339.38
449.17	259.80
449.36	330.02
449.54	351.08
449.73	327.68
449.91	358.10
450.10	365.12
450.28	320.65
450.46	334.70
450.65	346.40
450.83	294.91
451.02	339.38
451.20	348.74
451.39	327.68
451.57	313.63
451.76	299.59
451.94	358.10
452.13	297.25
452.31	397.89
452.49	327.68
452.68	222.35
452.86	325.33
453.05	322.99
453.23	276.18
453.42	259.80
453.60	337.04
453.78	386.19
453.97	395.55
454.15	308.95
454.34	306.61
454.52	262.14
454.70	285.55
454.89	388.53
455.07	315.97
455.26	320.65
455.44	269.16
455.62	304.27
455.81	332.36
455.99	353.42
456.17	346.40
456.36	308.95
456.54	339.38
456.73	243.42
456.91	334.70
457.09	358.10
457.28	367.46
457.46	325.33
457.64	327.68
457.83	348.74
458.01	322.99
458.19	327.68
458.38	299.59
458.56	304.27
458.74	264.48
458.93	313.63
459.11	360.44
459.29	297.25
459.48	280.86
459.66	372.15
459.84	348.74
460.03	376.83
460.21	344.06
460.39	362.78
460.57	250.44
460.76	325.33
460.94	283.20
461.12	346.40
461.31	315.97
461.49	294.91
461.67	290.23
461.85	362.78
462.04	229.37
462.22	503.22
462.40	330.02
462.59	308.95
462.77	304.27
462.95	337.04
463.13	236.39
463.32	308.95
463.50	325.33
463.68	283.20
463.86	259.80
464.05	360.44
464.23	344.06
464.41	367.46
464.59	320.65
464.78	287.89
464.96	252.78
465.14	313.63
465.32	269.16
465.50	287.89
465.69	372.15
465.87	280.86
466.05	379.17
466.23	308.95
466.41	278.52
466.60	358.10
466.78	397.89
466.96	348.74
467.14	355.76
467.32	285.55
467.51	325.33
467.69	266.82
467.87	344.06
468.05	262.14
468.23	322.99
468.41	355.76
468.60	358.10
468.78	320.65
468.96	306.61
469.14	337.04
469.32	255.12
469.50	318.31
469.69	346.40
469.87	341.72
470.05	290.23
470.23	234.05
470.41	313.63
470.59	304.27
470.77	313.63
470.95	318.31
471.14	311.29
471.32	341.72
471.50	393.21
471.68	250.44
471.86	301.93
472.04	327.68
472.22	255.12
472.40	262.14
472.58	245.76
472.77	294.91
472.95	273.84
473.13	339.38
473.31	346.40
473.49	320.65
473.67	322.99
473.85	231.71
474.03	255.12
474.21	271.50
474.39	374.49
474.57	362.78
474.75	315.97
474.93	250.44
475.12	262.14
475.30	346.40
475.48	383.85
475.66	367.46
475.84	388.53
476.02	294.91
476.20	376.83
476.38	362.78
476.56	339.38
476.74	369.80
476.92	360.44
477.10	332.36
477.28	266.82
477.46	386.19
477.64	271.50
477.82	308.95
478.00	360.44
478.18	351.08
478.36	318.31
478.54	311.29
478.72	308.95
478.90	325.33
479.08	390.87
479.26	423.64
479.44	285.55
479.62	374.49
479.80	353.42
479.98	407.25
480.16	451.72
480.34	449.38
480.52	449.38
480.70	440.02
480.88	411.93
481.06	500.87
481.24	552.37
481.41	475.13
481.59	496.19
481.77	547.69
481.95	653.01
482.13	606.20
482.31	592.16
482.49	671.73
482.67	713.86
482.85	793.44
483.03	863.66
483.21	917.49
483.39	828.55
483.57	997.07
483.74	983.02
483.92	1055.58
484.10	1144.52
484.28	1200.69
484.46	1256.87
484.64	1282.61
484.82	1296.66
485.00	1376.24
485.18	1420.71
485.35	1593.90
485.53	1685.19
485.71	1659.44
485.89	1722.63
486.07	1675.82
486.25	1776.47
486.43	1818.60
486.61	1912.22
486.78	1853.70
486.96	1795.19
487.14	1795.19
487.32	1727.32
487.50	1806.89
487.68	1802.21
487.85	1764.76
488.03	1809.23
488.21	1739.02
488.39	1631.35
488.57	1481.56
488.75	1420.71
488.92	1739.02
489.10	1551.78
489.28	1416.02
489.46	1502.62
489.64	1493.26
489.81	1390.28
489.99	1490.92
490.17	1399.64
490.35	1521.35
490.53	1516.67
490.70	1411.34
490.88	1294.32
491.06	1357.51
491.24	1568.16
491.41	1554.12
491.59	1401.98
491.77	1387.94
491.95	1336.45
492.13	1320.06
492.30	1284.95
492.48	1193.67
492.66	1261.55
492.84	1280.27
493.01	1268.57
493.19	1247.51
493.37	1125.80
493.54	1252.19
493.72	1132.82
493.90	1207.72
494.08	1104.73
494.25	1156.22
494.43	1104.73
494.61	1057.92
494.79	1043.88
494.96	1006.43
495.14	1004.09
495.32	973.66
495.49	971.32
495.67	1011.11
495.85	1006.43
496.02	943.24
496.20	954.94
496.38	880.04
496.55	947.92
496.73	973.66
496.91	880.04
497.09	884.72
497.26	905.79
497.44	795.78
497.62	931.53
497.79	814.51
497.97	875.36
498.14	821.53
498.32	870.68
498.50	781.74
498.67	777.06
498.85	711.52
499.03	779.40
499.20	732.59
499.38	779.40
499.56	716.20
499.73	681.10
499.91	697.48
500.08	695.14
500.26	657.69
500.44	662.37
500.61	660.03
500.79	631.94
500.97	643.65
501.14	571.09
501.32	580.45
501.49	554.71
501.67	564.07
501.84	540.66
502.02	482.15
502.20	503.22
502.37	491.51
502.55	451.72
502.72	496.19
502.90	449.38
503.07	498.53
503.25	416.62
503.43	421.30
503.60	437.68
503.78	332.36
503.95	416.62
504.13	369.80
504.30	465.77
504.48	418.96
504.65	463.43
504.83	512.58
505.01	428.32
505.18	454.06
505.36	470.45
505.53	344.06
505.71	404.91
505.88	322.99
506.06	442.36
506.23	491.51
506.41	313.63
506.58	395.55
506.76	306.61
506.93	381.51
507.11	444.70
507.28	301.93
507.46	339.38
507.63	330.02
507.81	355.76
507.98	404.91
508.16	269.16
508.33	330.02
508.50	386.19
508.68	383.85
508.85	390.87
509.03	374.49
509.20	404.91
509.38	390.87
509.55	334.70
509.73	308.95
509.90	418.96
510.08	297.25
510.25	365.12
510.42	304.27
510.60	409.59
510.77	379.17
510.95	355.76
511.12	255.12
511.30	395.55
511.47	374.49
511.64	301.93
511.82	339.38
511.99	402.57
512.17	346.40
512.34	320.65
512.51	381.51
512.69	322.99
512.86	423.64
513.04	376.83
513.21	339.38
513.38	325.33
513.56	327.68
513.73	358.10
513.90	358.10
514.08	285.55
514.25	458.74
514.43	339.38
514.60	299.59
514.77	311.29
514.95	330.02
515.12	273.84
515.29	393.21
515.47	353.42
515.64	332.36
515.81	358.10
515.99	365.12
516.16	320.65
516.33	369.80
516.51	379.17
516.68	234.05
516.85	238.73
517.03	320.65
517.20	306.61
517.37	243.42
517.54	372.15
517.72	255.12
517.89	177.88
518.06	283.20
518.24	358.10
518.41	341.72
518.58	285.55
518.75	276.18
518.93	266.82
519.10	301.93
519.27	266.82
519.45	222.35
519.62	313.63
519.79	365.12
519.96	367.46
520.14	290.23
520.31	360.44
520.48	248.10
520.65	243.42
520.83	306.61
521.00	332.36
521.17	355.76
521.34	285.55
521.52	360.44
521.69	313.63
521.86	332.36
522.03	308.95
522.20	304.27
522.38	271.50
522.55	407.25
522.72	278.52
522.89	367.46
523.07	390.87
523.24	339.38
523.41	271.50
523.58	376.83
523.75	304.27
523.92	283.20
524.10	344.06
524.27	355.76
524.44	287.89
524.61	341.72
524.78	315.97
524.96	386.19
525.13	299.59
525.30	390.87
525.47	369.80
525.64	318.31
525.81	315.97
525.98	348.74
526.16	262.14
526.33	322.99
526.50	278.52
526.67	304.27
526.84	248.10
527.01	276.18
527.18	369.80
527.36	292.57
527.53	386.19
527.70	435.34
527.87	440.02
528.04	379.17
528.21	351.08
528.38	388.53
528.55	442.36
528.72	428.32
528.89	400.23
529.07	390.87
529.24	315.97
529.41	484.49
529.58	451.72
529.75	330.02
529.92	418.96
530.09	360.44
530.26	395.55
530.43	454.06
530.60	388.53
530.77	369.80
530.94	468.11
531.11	491.51
531.28	395.55
531.46	376.83
531.63	503.22
531.80	360.44
531.97	533.64
532.14	510.24
532.31	634.29
532.48	709.18
532.65	751.31
532.82	835.57
532.99	1039.20
533.16	1062.60
533.33	1149.20
533.50	1039.20
533.67	901.11
533.84	884.72
534.01	791.10
534.18	706.84
534.35	622.58
534.52	627.26
534.69	751.31
534.86	772.38
535.03	702.16
535.20	786.42
535.37	812.17
535.54	870.68
535.71	961.96
535.88	973.66
536.05	968.98
536.22	1078.99
536.38	1076.65
536.55	1284.95
536.72	1401.98
536.89	1563.48
537.06	1715.61
537.23	1895.83
537.40	1888.81
537.57	2218.83
537.74	2260.96
537.91	2314.79
538.08	2267.98
538.25	2277.34
538.42	2366.28
538.59	2392.03
538.75	2642.46
538.92	2747.79
539.09	3047.38
539.26	3288.45
539.43	3620.81
539.60	4135.73
539.77	4554.68
539.94	4922.15
540.11	5621.97
540.28	5975.39
540.44	6724.36
540.61	7293.11
540.78	8533.59
540.95	10281.97
541.12	12252.70
541.29	13481.49
541.46	13685.11
541.62	13547.02
541.79	12905.71
541.96	12573.36
542.13	11330.53
542.30	10731.36
542.47	9989.41
542.63	9542.36
542.80	9336.40
542.97	9287.25
543.14	9221.71
543.31	9135.11
543.48	9254.48
543.64	9451.08
543.81	9544.70
543.98	9469.81
544.15	9509.60
544.32	9423.00
544.48	9509.60
544.65	9345.76
544.82	9165.54
544.99	9397.25
545.16	9577.47
545.32	10169.63
545.49	19723.69
545.66	33841.81
545.83	37572.62
546.00	30911.46
546.16	21404.20
546.33	15915.64
546.50	11852.47
546.67	9563.43
546.83	8648.28
547.00	8203.58
547.17	7805.69
547.34	7253.32
547.50	7155.02
547.67	6850.75
547.84	6579.25
548.00	6614.35
548.17	6218.80
548.34	5877.09
548.51	5654.73
548.67	5497.92
548.84	5074.28
549.01	4968.96
549.18	4770.01
549.34	4580.43
549.51	4521.92
549.68	4234.03
549.84	4060.83
550.01	3882.95
550.18	3632.51
550.34	3613.79
550.51	3538.89
550.68	3260.37
550.84	3143.34
551.01	2928.01
551.18	2810.98
551.34	2668.21
551.51	2539.48
551.68	2525.44
551.84	2352.24
552.01	2300.75
552.18	2165.00
552.34	2162.66
552.51	1968.39
552.68	1968.39
552.84	1856.04
553.01	1816.26
553.18	1867.75
553.34	1757.74
553.51	1696.89
553.67	1645.40
553.84	1528.37
554.01	1369.21
554.17	1430.07
554.34	1334.11
554.51	1256.87
554.67	1277.93
554.84	1083.67
555.00	1146.86
555.17	999.41
555.33	954.94
555.50	1025.15
555.67	889.40
555.83	793.44
556.00	826.21
556.16	1004.09
556.33	779.40
556.50	816.85
556.66	861.32
556.83	711.52
556.99	788.76
557.16	748.97
557.32	699.82
557.49	697.48
557.65	692.80
557.82	653.01
557.98	645.99
558.15	629.60
558.32	699.82
558.48	650.67
558.65	550.03
558.81	601.52
558.98	589.82
559.14	610.88
559.31	571.09
559.47	543.00
559.64	599.18
559.80	571.09
559.97	531.30
560.13	543.00
560.30	535.98
560.46	510.24
560.63	521.94
560.79	526.62
560.96	540.66
561.12	517.26
561.29	552.37
561.45	507.90
561.61	526.62
561.78	596.84
561.94	578.11
562.11	519.60
562.27	528.96
562.44	486.83
562.60	507.90
562.77	442.36
562.93	573.43
563.10	479.81
563.26	369.80
563.42	482.15
563.59	411.93
563.75	482.15
563.92	470.45
564.08	489.17
564.24	435.34
564.41	521.94
564.57	411.93
564.74	428.32
564.90	484.49
565.07	528.96
565.23	505.56
565.39	411.93
565.56	463.43
565.72	390.87
565.88	383.85
566.05	369.80
566.21	433.00
566.38	491.51
566.54	407.25
566.70	442.36
566.87	447.04
567.03	454.06
567.19	442.36
567.36	447.04
567.52	442.36
567.68	475.13
567.85	444.70
568.01	409.59
568.17	381.51
568.34	409.59
568.50	470.45
568.66	344.06
568.83	442.36
568.99	463.43
569.15	484.49
569.32	402.57
569.48	458.74
569.64	451.72
569.81	358.10
569.97	411.93
570.13	400.23
570.30	346.40
570.46	369.80
570.62	416.62
570.78	379.17
570.95	407.25
571.11	381.51
571.27	444.70
571.43	369.80
571.60	330.02
571.76	425.98
571.92	283.20
572.09	386.19
572.25	372.15
572.41	334.70
572.57	386.19
572.74	428.32
572.90	372.15
573.06	315.97
573.22	421.30
573.38	360.44
573.55	374.49
573.71	500.87
573.87	484.49
574.03	418.96
574.20	456.40
574.36	449.38
574.52	397.89
574.68	395.55
574.84	484.49
575.01	475.13
575.17	465.77
575.33	475.13
575.49	528.96
575.65	547.69
575.82	535.98
575.98	587.47
576.14	697.48
576.30	1409.00
576.46	4311.27
576.62	6162.63
576.79	6270.30
576.95	4454.04
577.11	3110.57
577.27	2193.08
577.43	1469.86
577.59	1039.20
577.75	830.89
577.92	807.48
578.08	891.74
578.24	798.12
578.40	1406.66
578.56	4161.47
578.72	5797.51
578.88	5827.93
579.04	4404.89
579.21	3152.70
579.37	2328.83
579.53	1991.80
579.69	1909.88
579.85	2347.56
580.01	2663.53
580.17	2361.60
580.33	2001.16
580.49	1736.68
580.65	1502.62
580.82	1500.28
580.98	1476.88
581.14	1425.39
581.30	1650.08
581.46	1685.19
581.62	1729.66
581.78	1984.77
581.94	2019.88
582.10	2106.48
582.26	2307.77
582.42	2338.20
582.58	2462.24
582.74	2436.50
582.90	2513.74
583.06	2635.44
583.22	2436.50
583.38	2532.46
583.54	2448.20
583.70	2408.41
583.86	2541.82
584.02	2340.54
584.18	2349.90
584.34	2326.49
584.50	2293.72
584.66	2228.19
584.82	2181.38
584.98	2139.25
585.14	2029.24
585.30	2202.44
585.46	2148.61
585.62	2174.36
585.78	2141.59
585.94	2188.40
586.10	2148.61
586.26	2417.77
586.42	2544.16
586.58	3105.89
586.74	3651.24
586.90	4294.88
587.06	4664.69
587.22	4517.23
587.38	4018.70
587.54	3445.27
587.70	2951.42
587.86	2726.72
588.02	2099.46
588.18	1954.35
588.34	1851.36
588.49	1605.61
588.65	1589.22
588.81	1411.34
588.97	1444.11
589.13	1462.83
589.29	1366.87
589.45	1373.89
589.61	1427.73
589.77	1357.51
589.93	1476.88
590.08	1385.60
590.24	1631.35
590.40	1610.29
590.56	1671.14
590.72	1650.08
590.88	1605.61
591.04	1596.25
591.20	1767.10
591.35	1888.81
591.51	1816.26
591.67	2113.50
591.83	2008.18
591.99	2377.98
592.15	2644.81
592.31	2689.28
592.46	2888.22
592.62	3169.09
592.78	3302.50
592.94	3393.78
593.10	3318.88
593.26	3185.47
593.41	2820.35
593.57	2516.08
593.73	2258.62
593.89	2024.56
594.05	1865.41
594.20	1769.44
594.36	1664.12
594.52	1481.56
594.68	1460.49
594.84	1369.21
594.99	1446.45
595.15	1261.55
595.31	1198.35
595.47	1331.76
595.62	1247.51
595.78	1263.89
595.94	1317.72
596.10	1266.23
596.25	1217.08
596.41	1299.00
596.57	1289.64
596.73	1233.46
596.88	1282.61
597.04	1341.13
597.20	1329.42
597.36	1366.87
597.51	1322.40
597.67	1317.72
597.83	1345.81
597.99	1624.33
598.14	1678.16
598.30	1750.72
598.46	1666.46
598.61	1919.24
598.77	2003.50
598.93	1870.09
599.09	2050.31
599.24	1973.07
599.40	2052.65
599.56	2005.84
599.71	1846.68
599.87	1741.36
600.03	1764.76
600.18	1603.27
600.34	1511.99
600.50	1369.21
600.65	1383.26
600.81	1240.48
600.97	1214.74
601.12	1181.97
601.28	1165.59
601.44	1142.18
601.59	999.41
601.75	968.98
601.91	959.62
602.06	898.77
602.22	971.32
602.37	854.30
602.53	959.62
602.69	833.23
602.84	837.91
603.00	891.74
603.16	889.40
603.31	866.00
603.47	812.17
603.62	947.92
603.78	1039.20
603.94	1041.54
604.09	992.39
604.25	943.24
604.40	950.26
604.56	980.68
604.71	1046.22
604.87	1081.33
605.03	1100.05
605.18	1100.05
605.34	1153.88
605.49	1107.07
605.65	1184.31
605.80	1153.88
605.96	1160.91
606.12	1235.80
606.27	1289.64
606.43	1355.17
606.58	1404.32
606.74	1465.18
606.89	1453.47
607.05	1582.20
607.20	1643.06
607.36	1792.85
607.51	1839.66
607.67	1926.26
607.82	2120.53
607.98	2324.15
608.13	2289.04
608.29	2579.27
608.44	2836.73
608.60	3021.63
608.75	3112.91
608.91	3552.93
609.06	3646.55
609.22	4051.47
609.37	4608.51
609.53	5135.14
609.68	5998.79
609.84	6771.17
609.99	8086.55
610.15	9411.29
610.30	11688.64
610.46	14544.09
610.61	19098.77
610.76	23641.75
610.92	28830.72
611.07	31850.01
611.23	31852.35
611.38	30108.65
611.54	26286.56
611.69	22389.56
611.84	18960.68
612.00	15660.52
612.15	13109.34
612.31	11712.04
612.46	10583.90
612.62	9717.90
612.77	9123.41
612.92	8580.40
613.08	8280.82
613.23	7894.63
613.39	7531.84
613.54	7389.07
613.69	7356.30
613.85	7052.03
614.00	7033.31
614.15	7258.00
614.31	6787.55
614.46	6846.07
614.62	6497.33
614.77	6258.59
614.92	5734.31
615.08	5544.73
615.23	5095.35
615.38	4798.10
615.54	4238.71
615.69	3927.42
615.84	3665.28
616.00	3325.90
616.15	3098.87
616.30	2942.05
616.46	2663.53
616.61	2415.43
616.76	2445.86
616.92	2368.62
617.07	2216.49
617.22	2176.70
617.37	2050.31
617.53	1872.43
617.68	1867.75
617.83	1867.75
617.99	1827.96
618.14	1778.81
618.29	1657.10
618.45	1746.04
618.60	1570.50
618.75	1671.14
618.90	1542.41
619.06	1556.46
619.21	1710.93
619.36	1509.65
619.51	1577.52
619.67	1722.63
619.82	1561.14
619.97	1638.38
620.12	1638.38
620.28	1699.23
620.43	1593.90
620.58	1659.44
620.73	1816.26
620.89	1760.08
621.04	1650.08
621.19	1724.97
621.34	1582.20
621.49	1533.05
621.65	1614.97
621.80	1591.56
621.95	1530.71
622.10	1722.63
622.25	1631.35
622.41	1614.97
622.56	1619.65
622.71	1790.51
622.86	1769.44
623.01	1685.19
623.16	1673.48
623.32	1816.26
623.47	1860.73
623.62	1846.68
623.77	1776.47
623.92	1839.66
624.07	1863.07
624.23	1778.81
624.38	1919.24
624.53	1849.02
624.68	1930.94
624.83	1849.02
624.98	1849.02
625.13	1900.52
625.29	1863.07
625.44	1743.70
625.59	1867.75
625.74	1940.30
625.89	1811.57
626.04	1804.55
626.19	1837.32
626.34	1842.00
626.49	1909.88
626.65	1823.28
626.80	1809.23
626.95	1750.72
627.10	1774.13
627.25	1657.10
627.40	1671.14
627.55	1645.40
627.70	1701.57
627.85	1633.69
628.00	1727.32
628.15	1668.80
628.30	1652.42
628.45	1554.12
628.60	1685.19
628.76	1701.57
628.91	1631.35
629.06	1626.67
629.21	1654.76
629.36	1703.91
629.51	1781.15
629.66	1940.30
629.81	2043.29
629.96	2083.08
630.11	2349.90
630.26	2724.38
630.41	3026.31
630.56	3204.19
630.71	3389.10
630.86	3461.65
631.01	3290.79
631.16	3103.55
631.31	2712.68
631.46	2429.48
631.61	1970.73
631.76	1820.94
631.91	1493.26
632.06	1259.21
632.21	1130.48
632.36	1137.50
632.51	945.58
632.66	884.72
632.81	767.70
632.96	739.61
633.10	805.14
633.25	720.88
633.40	732.59
633.55	631.94
633.70	613.22
633.85	624.92
634.00	660.03
634.15	554.71
634.30	610.88
634.45	559.39
634.60	543.00
634.75	475.13
634.90	575.77
635.05	500.87
635.19	578.11
635.34	533.64
635.49	524.28
635.64	500.87
635.79	552.37
635.94	512.58
636.09	561.73
636.24	414.27
636.39	587.47
636.53	514.92
636.68	580.45
636.83	533.64
636.98	552.37
637.13	461.09
637.28	510.24
637.43	500.87
637.57	535.98
637.72	484.49
637.87	433.00
638.02	397.89
638.17	454.06
638.32	461.09
638.46	430.66
638.61	425.98
638.76	372.15
638.91	376.83
639.06	400.23
639.20	449.38
639.35	447.04
639.50	341.72
639.65	472.79
639.80	332.36
639.94	416.62
640.09	496.19
640.24	414.27
640.39	372.15
640.54	411.93
640.68	348.74
640.83	407.25
640.98	390.87
641.13	409.59
641.27	468.11
641.42	421.30
641.57	430.66
641.72	369.80
641.86	365.12
642.01	374.49
642.16	395.55
642.31	440.02
642.45	510.24
642.60	411.93
642.75	339.38
642.90	393.21
643.04	411.93
643.19	362.78
643.34	388.53
643.48	381.51
643.63	414.27
643.78	423.64
643.93	416.62
644.07	376.83
644.22	447.04
644.37	372.15
644.51	351.08
644.66	360.44
644.81	416.62
644.95	402.57
645.10	407.25
645.25	346.40
645.39	411.93
645.54	376.83
645.69	437.68
645.83	322.99
645.98	428.32
646.13	341.72
646.27	402.57
646.42	397.89
646.57	400.23
646.71	341.72
646.86	386.19
647.00	407.25
647.15	369.80
647.30	374.49
647.44	285.55
647.59	397.89
647.74	400.23
647.88	369.80
648.03	306.61
648.17	388.53
648.32	369.80
648.47	468.11
648.61	339.38
648.76	444.70
648.90	376.83
649.05	463.43
649.20	390.87
649.34	451.72
649.49	505.56
649.63	645.99
649.78	676.41
649.92	798.12
650.07	903.45
650.21	971.32
650.36	1055.58
650.51	1013.45
650.65	985.37
650.80	912.81
650.94	837.91
651.09	662.37
651.23	617.90
651.38	627.26
651.52	606.20
651.67	465.77
651.81	500.87
651.96	475.13
652.10	435.34
652.25	475.13
652.39	465.77
652.54	498.53
652.68	496.19
652.83	531.30
652.97	608.54
653.12	568.75
653.26	486.83
653.41	573.43
653.55	505.56
653.70	381.51
653.84	500.87
653.99	498.53
654.13	428.32
654.27	414.27
654.42	365.12
654.56	435.34
654.71	402.57
654.85	330.02
655.00	395.55
655.14	355.76
655.29	337.04
655.43	332.36
655.57	344.06
655.72	271.50
655.86	287.89
656.01	372.15
656.15	320.65
656.30	337.04
656.44	294.91
656.58	334.70
656.73	346.40
656.87	299.59
657.01	440.02
657.16	454.06
657.30	418.96
657.45	418.96
657.59	458.74
657.73	311.29
657.88	421.30
658.02	423.64
658.16	372.15
658.31	332.36
658.45	346.40
658.60	348.74
658.74	278.52
658.88	327.68
659.03	280.86
659.17	318.31
659.31	299.59
659.46	367.46
659.60	437.68
659.74	327.68
659.89	332.36
660.03	315.97
660.17	311.29
660.32	290.23
660.46	353.42
660.60	243.42
660.74	273.84
660.89	306.61
661.03	280.86
661.17	341.72
661.32	299.59
661.46	362.78
661.60	458.74
661.74	465.77
661.89	573.43
662.03	674.07
662.17	669.39
662.31	645.99
662.46	617.90
662.60	645.99
662.74	470.45
662.88	535.98
663.03	404.91
663.17	465.77
663.31	454.06
663.45	376.83
663.60	360.44
663.74	299.59
663.88	360.44
664.02	386.19
664.17	313.63
664.31	313.63
664.45	372.15
664.59	330.02
664.73	320.65
664.88	264.48
665.02	208.31
665.16	224.69
665.30	299.59
665.44	255.12
665.59	292.57
665.73	332.36
665.87	236.39
666.01	255.12
666.15	215.33
666.29	308.95
666.44	348.74
666.58	351.08
666.72	332.36
666.86	386.19
667.00	273.84
667.14	299.59
667.28	255.12
667.43	266.82
667.57	292.57
667.71	334.70
667.85	346.40
667.99	304.27
668.13	238.73
668.27	315.97
668.41	332.36
668.56	294.91
668.70	351.08
668.84	262.14
668.98	224.69
669.12	285.55
669.26	318.31
669.40	339.38
669.54	234.05
669.68	299.59
669.82	266.82
669.96	224.69
670.10	259.80
670.25	290.23
670.39	269.16
670.53	306.61
670.67	285.55
670.81	189.58
670.95	243.42
671.09	322.99
671.23	238.73
671.37	269.16
671.51	264.48
671.65	273.84
671.79	212.99
671.93	133.41
672.07	304.27
672.21	259.80
672.35	301.93
672.49	262.14
672.63	266.82
672.77	236.39
672.91	255.12
673.05	222.35
673.19	194.26
673.33	224.69
673.47	198.95
673.61	210.65
673.75	318.31
673.89	203.63
674.03	304.27
674.17	294.91
674.31	187.24
674.45	245.76
674.59	217.67
674.73	227.03
674.87	241.08
675.01	266.82
675.15	189.58
675.29	252.78
675.43	231.71
675.56	257.46
675.70	269.16
675.84	173.20
675.98	152.13
676.12	212.99
676.26	173.20
676.40	180.22
676.54	280.86
676.68	252.78
676.82	234.05
676.96	215.33
677.10	269.16
677.23	222.35
677.37	238.73
677.51	187.24
677.65	322.99
677.79	142.77
677.93	278.52
678.07	217.67
678.21	126.39
678.34	208.31
678.48	280.86
678.62	224.69
678.76	156.82
678.90	243.42
679.04	262.14
679.18	170.86
679.31	227.03
679.45	231.71
679.59	252.78
679.73	301.93
679.87	210.65
680.00	224.69
680.14	243.42
680.28	287.89
680.42	234.05
680.56	191.92
680.70	241.08
680.83	245.76
680.97	220.01
681.11	262.14
681.25	299.59
681.39	142.77
681.52	262.14
681.66	208.31
681.80	308.95
681.94	168.52
682.07	170.86
682.21	220.01
682.35	227.03
682.49	117.03
682.62	278.52
682.76	180.22
682.90	224.69
683.04	196.60
683.17	231.71
683.31	128.73
683.45	245.76
683.59	236.39
683.72	187.24
683.86	210.65
684.00	215.33
684.13	194.26
684.27	194.26
684.41	201.29
684.55	238.73
684.68	198.95
684.82	208.31
684.96	166.18
685.09	222.35
685.23	222.35
685.37	205.97
685.50	243.42
685.64	283.20
685.78	184.90
685.91	203.63
686.05	166.18
686.19	259.80
686.32	262.14
686.46	322.99
686.60	234.05
686.73	344.06
686.87	273.84
687.01	283.20
687.14	358.10
687.28	320.65
687.42	320.65
687.55	386.19
687.69	416.62
687.82	334.70
687.96	292.57
688.10	332.36
688.23	358.10
688.37	440.02
688.50	273.84
688.64	224.69
688.78	271.50
688.91	271.50
689.05	243.42
689.18	196.60
689.32	227.03
689.46	215.33
689.59	212.99
689.73	231.71
689.86	175.54
690.00	187.24
690.13	128.73
690.27	156.82
690.41	252.78
690.54	203.63
690.68	255.12
690.81	131.07
690.95	100.64
691.08	184.90
691.22	175.54
691.35	173.20
691.49	166.18
691.62	224.69
691.76	142.77
691.89	262.14
692.03	161.50
692.16	220.01
692.30	154.48
692.43	182.56
692.57	212.99
692.70	154.48
692.84	184.90
692.97	205.97
693.11	257.46
693.24	234.05
693.38	351.08
693.51	355.76
693.65	376.83
693.78	379.17
693.92	353.42
694.05	297.25
694.19	238.73
694.32	287.89
694.45	154.48
694.59	238.73
694.72	170.86
694.86	166.18
694.99	145.11
695.13	205.97
695.26	187.24
695.39	229.37
695.53	212.99
695.66	149.79
695.80	166.18
695.93	126.39
696.07	147.45
696.20	210.65
696.33	177.88
696.47	135.75
696.60	173.20
696.73	159.16
696.87	173.20
697.00	231.71
697.14	177.88
697.27	208.31
697.40	236.39
697.54	152.13
697.67	56.17
697.80	133.41
697.94	156.82
698.07	126.39
698.21	152.13
698.34	133.41
698.47	142.77
698.61	168.52
698.74	159.16
698.87	241.08
699.01	131.07
699.14	121.71
699.27	131.07
699.40	262.14
699.54	154.48
699.67	180.22
699.80	117.03
699.94	124.05
700.07	91.28
700.20	128.73
700.34	98.30
700.47	163.84
700.60	184.90
700.73	191.92
700.87	173.20
701.00	102.98
701.13	126.39
701.26	142.77
701.40	145.11
701.53	194.26
701.66	128.73
701.79	182.56
701.93	175.54
702.06	212.99
702.19	88.94
702.32	156.82
702.46	187.24
702.59	107.66
702.72	142.77
702.85	121.71
702.99	152.13
703.12	140.43
703.25	133.41
703.38	173.20
703.51	191.92
703.65	194.26
703.78	114.69
703.91	198.95
704.04	208.31
704.17	191.92
704.31	168.52
704.44	121.71
704.57	217.67
704.70	131.07
704.83	196.60
704.96	280.86
705.10	159.16
705.23	182.56
>>>>>End Processed Spectral Data<<<<<
