SpectraSuite Data File
++++++++++++++++++++++++++++++++++++
Date: Fri Oct 04 11:41:56 GMT-05:00 2013
User: price-jones
Dark Spectrum Present: No
Reference Spectrum Present: No
Number of Sampled Component Spectra: 1
Spectrometers: USB2+H05261
Integration Time (usec): 100000 (USB2+H05261)
Spectra Averaged: 1 (USB2+H05261)
Boxcar Smoothing: 0 (USB2+H05261)
Correct for Electrical Dark: No (USB2+H05261)
Strobe/Lamp Enabled: No (USB2+H05261)
Correct for Detector Non-linearity: No (USB2+H05261)
Correct for Stray Light: No (USB2+H05261)
Number of Pixels in Processed Spectrum: 2048
>>>>>Begin Processed Spectral Data<<<<<
365.73	32.77
365.92	32.77
366.12	32.77
366.32	0.00
366.52	0.00
366.72	0.00
366.91	0.00
367.11	0.00
367.31	0.00
367.51	0.00
367.70	0.00
367.90	39.79
368.10	0.00
368.30	0.00
368.49	0.00
368.69	0.00
368.89	0.00
369.09	0.00
369.28	0.00
369.48	0.00
369.68	0.00
369.87	0.00
370.07	11.70
370.27	77.24
370.47	44.47
370.66	51.49
370.86	9.36
371.06	53.83
371.25	44.47
371.45	53.83
371.65	110.01
371.84	58.51
372.04	86.60
372.24	105.32
372.44	149.79
372.63	44.47
372.83	74.90
373.03	145.11
373.22	140.43
373.42	70.22
373.62	81.92
373.81	131.07
374.01	175.54
374.21	175.54
374.40	79.58
374.60	175.54
374.79	142.77
374.99	95.96
375.19	177.88
375.38	84.26
375.58	105.32
375.78	117.03
375.97	147.45
376.17	149.79
376.37	32.77
376.56	126.39
376.76	107.66
376.95	60.85
377.15	201.29
377.35	163.84
377.54	91.28
377.74	156.82
377.93	117.03
378.13	128.73
378.33	180.22
378.52	119.37
378.72	112.35
378.91	184.90
379.11	142.77
379.31	84.26
379.50	28.09
379.70	154.48
379.89	138.09
380.09	140.43
380.28	145.11
380.48	91.28
380.68	159.16
380.87	161.50
381.07	142.77
381.26	126.39
381.46	191.92
381.65	49.15
381.85	67.88
382.04	88.94
382.24	117.03
382.43	152.13
382.63	60.85
382.83	51.49
383.02	257.46
383.22	166.18
383.41	53.83
383.61	142.77
383.80	70.22
384.00	84.26
384.19	131.07
384.39	198.95
384.58	159.16
384.78	124.05
384.97	147.45
385.17	88.94
385.36	70.22
385.56	208.31
385.75	124.05
385.95	131.07
386.14	159.16
386.34	131.07
386.53	133.41
386.72	88.94
386.92	100.64
387.11	93.62
387.31	173.20
387.50	161.50
387.70	161.50
387.89	145.11
388.09	147.45
388.28	124.05
388.48	119.37
388.67	177.88
388.86	81.92
389.06	105.32
389.25	128.73
389.45	161.50
389.64	147.45
389.84	243.42
390.03	212.99
390.22	142.77
390.42	119.37
390.61	110.01
390.81	119.37
391.00	117.03
391.19	147.45
391.39	142.77
391.58	175.54
391.78	119.37
391.97	119.37
392.16	74.90
392.36	156.82
392.55	119.37
392.75	107.66
392.94	110.01
393.13	145.11
393.33	114.69
393.52	142.77
393.71	145.11
393.91	149.79
394.10	81.92
394.29	142.77
394.49	77.24
394.68	234.05
394.88	131.07
395.07	67.88
395.26	147.45
395.46	194.26
395.65	67.88
395.84	154.48
396.04	163.84
396.23	166.18
396.42	142.77
396.62	98.30
396.81	264.48
397.00	133.41
397.19	163.84
397.39	112.35
397.58	138.09
397.77	128.73
397.97	91.28
398.16	180.22
398.35	205.97
398.55	126.39
398.74	110.01
398.93	140.43
399.12	124.05
399.32	161.50
399.51	107.66
399.70	163.84
399.90	205.97
400.09	166.18
400.28	203.63
400.47	112.35
400.67	175.54
400.86	182.56
401.05	154.48
401.24	156.82
401.44	191.92
401.63	180.22
401.82	145.11
402.01	222.35
402.21	264.48
402.40	217.67
402.59	105.32
402.78	163.84
402.97	257.46
403.17	189.58
403.36	205.97
403.55	290.23
403.74	650.67
403.93	2094.78
404.13	5217.05
404.32	8138.04
404.51	7396.09
404.70	4676.39
404.89	1685.19
405.09	564.07
405.28	315.97
405.47	217.67
405.66	271.50
405.85	269.16
406.05	124.05
406.24	234.05
406.43	163.84
406.62	280.86
406.81	327.68
407.00	395.55
407.20	704.50
407.39	1048.56
407.58	1118.78
407.77	819.19
407.96	491.51
408.15	301.93
408.34	243.42
408.54	229.37
408.73	173.20
408.92	191.92
409.11	198.95
409.30	245.76
409.49	159.16
409.68	147.45
409.87	154.48
410.07	189.58
410.26	149.79
410.45	255.12
410.64	241.08
410.83	248.10
411.02	187.24
411.21	107.66
411.40	238.73
411.59	231.71
411.78	93.62
411.98	121.71
412.17	210.65
412.36	285.55
412.55	294.91
412.74	217.67
412.93	196.60
413.12	168.52
413.31	194.26
413.50	264.48
413.69	276.18
413.88	299.59
414.07	276.18
414.26	269.16
414.45	252.78
414.64	257.46
414.83	248.10
415.02	198.95
415.22	234.05
415.41	278.52
415.60	212.99
415.79	273.84
415.98	304.27
416.17	159.16
416.36	210.65
416.55	276.18
416.74	287.89
416.93	339.38
417.12	332.36
417.31	241.08
417.50	194.26
417.69	320.65
417.88	255.12
418.07	229.37
418.26	257.46
418.45	276.18
418.64	365.12
418.83	257.46
419.02	297.25
419.21	255.12
419.39	301.93
419.58	276.18
419.77	271.50
419.96	231.71
420.15	304.27
420.34	306.61
420.53	299.59
420.72	283.20
420.91	285.55
421.10	236.39
421.29	334.70
421.48	369.80
421.67	325.33
421.86	344.06
422.05	393.21
422.24	315.97
422.43	238.73
422.61	220.01
422.80	308.95
422.99	285.55
423.18	304.27
423.37	332.36
423.56	355.76
423.75	283.20
423.94	313.63
424.13	318.31
424.32	271.50
424.50	287.89
424.69	285.55
424.88	379.17
425.07	351.08
425.26	360.44
425.45	367.46
425.64	358.10
425.83	327.68
426.01	334.70
426.20	278.52
426.39	325.33
426.58	367.46
426.77	327.68
426.96	360.44
427.15	407.25
427.33	259.80
427.52	320.65
427.71	390.87
427.90	400.23
428.09	360.44
428.28	381.51
428.46	376.83
428.65	358.10
428.84	435.34
429.03	463.43
429.22	355.76
429.40	330.02
429.59	402.57
429.78	437.68
429.97	386.19
430.16	379.17
430.34	386.19
430.53	383.85
430.72	358.10
430.91	428.32
431.10	402.57
431.28	416.62
431.47	428.32
431.66	451.72
431.85	451.72
432.03	463.43
432.22	514.92
432.41	489.17
432.60	416.62
432.79	425.98
432.97	491.51
433.16	505.56
433.35	596.84
433.54	713.86
433.72	727.91
433.91	772.38
434.10	844.93
434.28	952.60
434.47	1167.93
434.66	1158.57
434.85	1371.55
435.03	3541.23
435.22	13233.39
435.41	32421.10
435.59	40048.91
435.78	26139.10
435.97	12854.22
436.16	4929.17
436.34	1762.42
436.53	1055.58
436.72	828.55
436.90	648.33
437.09	655.35
437.28	526.62
437.46	589.82
437.65	568.75
437.84	575.77
438.02	622.58
438.21	648.33
438.40	543.00
438.58	505.56
438.77	568.75
438.96	512.58
439.14	500.87
439.33	493.85
439.52	512.58
439.70	435.34
439.89	524.28
440.08	498.53
440.26	507.90
440.45	503.22
440.63	519.60
440.82	510.24
441.01	503.22
441.19	458.74
441.38	456.40
441.57	514.92
441.75	575.77
441.94	580.45
442.12	552.37
442.31	491.51
442.50	489.17
442.68	491.51
442.87	545.34
443.05	477.47
443.24	397.89
443.43	552.37
443.61	624.92
443.80	543.00
443.98	484.49
444.17	491.51
444.35	531.30
444.54	592.16
444.73	538.32
444.91	580.45
445.10	557.05
445.28	435.34
445.47	512.58
445.65	566.41
445.84	528.96
446.02	629.60
446.21	470.45
446.39	533.64
446.58	519.60
446.77	463.43
446.95	507.90
447.14	503.22
447.32	503.22
447.51	517.26
447.69	517.26
447.88	524.28
448.06	547.69
448.25	484.49
448.43	461.09
448.62	418.96
448.80	517.26
448.99	454.06
449.17	463.43
449.36	507.90
449.54	564.07
449.73	500.87
449.91	517.26
450.10	566.41
450.28	514.92
450.46	550.03
450.65	475.13
450.83	535.98
451.02	440.02
451.20	470.45
451.39	557.05
451.57	510.24
451.76	470.45
451.94	470.45
452.13	491.51
452.31	484.49
452.49	552.37
452.68	547.69
452.86	526.62
453.05	543.00
453.23	543.00
453.42	451.72
453.60	528.96
453.78	557.05
453.97	503.22
454.15	437.68
454.34	465.77
454.52	451.72
454.70	566.41
454.89	524.28
455.07	360.44
455.26	514.92
455.44	477.47
455.62	498.53
455.81	517.26
455.99	512.58
456.17	465.77
456.36	475.13
456.54	484.49
456.73	498.53
456.91	503.22
457.09	538.32
457.28	547.69
457.46	505.56
457.64	500.87
457.83	486.83
458.01	514.92
458.19	627.26
458.38	418.96
458.56	442.36
458.74	458.74
458.93	514.92
459.11	477.47
459.29	505.56
459.48	472.79
459.66	568.75
459.84	547.69
460.03	571.09
460.21	489.17
460.39	451.72
460.57	489.17
460.76	468.11
460.94	496.19
461.12	524.28
461.31	435.34
461.49	393.21
461.67	540.66
461.85	468.11
462.04	440.02
462.22	940.90
462.40	505.56
462.59	514.92
462.77	435.34
462.95	475.13
463.13	458.74
463.32	418.96
463.50	472.79
463.68	454.06
463.86	444.70
464.05	465.77
464.23	524.28
464.41	531.30
464.59	491.51
464.78	472.79
464.96	500.87
465.14	503.22
465.32	472.79
465.50	486.83
465.69	433.00
465.87	486.83
466.05	376.83
466.23	458.74
466.41	463.43
466.60	519.60
466.78	531.30
466.96	517.26
467.14	552.37
467.32	559.39
467.51	458.74
467.69	521.94
467.87	510.24
468.05	433.00
468.23	416.62
468.41	479.81
468.60	510.24
468.78	395.55
468.96	414.27
469.14	517.26
469.32	404.91
469.50	470.45
469.69	503.22
469.87	447.04
470.05	486.83
470.23	409.59
470.41	430.66
470.59	435.34
470.77	344.06
470.95	500.87
471.14	510.24
471.32	430.66
471.50	468.11
471.68	496.19
471.86	510.24
472.04	461.09
472.22	437.68
472.40	505.56
472.58	449.38
472.77	456.40
472.95	547.69
473.13	479.81
473.31	582.79
473.49	437.68
473.67	447.04
473.85	491.51
474.03	496.19
474.21	573.43
474.39	505.56
474.57	622.58
474.75	498.53
474.93	475.13
475.12	447.04
475.30	435.34
475.48	344.06
475.66	411.93
475.84	472.79
476.02	400.23
476.20	440.02
476.38	369.80
476.56	510.24
476.74	482.15
476.92	493.85
477.10	465.77
477.28	465.77
477.46	601.52
477.64	472.79
477.82	503.22
478.00	547.69
478.18	561.73
478.36	531.30
478.54	489.17
478.72	465.77
478.90	575.77
479.08	620.24
479.26	585.13
479.44	528.96
479.62	582.79
479.80	608.54
479.98	622.58
480.16	695.14
480.34	692.80
480.52	763.01
480.70	777.06
480.88	779.40
481.06	828.55
481.24	793.44
481.41	866.00
481.59	917.49
481.77	940.90
481.95	990.05
482.13	1165.59
482.31	1181.97
482.49	1254.53
482.67	1352.83
482.85	1472.20
483.03	1619.65
483.21	1558.80
483.39	1739.02
483.57	1832.64
483.74	1891.15
483.92	1895.83
484.10	2073.71
484.28	2305.43
484.46	2342.88
484.64	2476.29
484.82	2506.71
485.00	2555.86
485.18	2899.92
485.35	3026.31
485.53	3281.43
485.71	3342.28
485.89	3454.63
486.07	3566.98
486.25	3620.81
486.43	3604.42
486.61	3520.17
486.78	3665.28
486.96	3616.13
487.14	3733.15
487.32	3576.34
487.50	3473.36
487.68	3606.77
487.85	3698.05
488.03	3499.10
488.21	3447.61
488.39	3349.31
488.57	3251.00
488.75	3171.43
488.92	3375.05
489.10	2972.48
489.28	3070.78
489.46	2876.52
489.64	2916.31
489.81	2771.19
489.99	2785.24
490.17	2768.85
490.35	2792.26
490.53	2724.38
490.70	2679.91
490.88	2754.81
491.06	2883.54
491.24	3028.65
491.41	3197.17
491.59	2958.44
491.77	2775.88
491.95	2651.83
492.13	2537.14
492.30	2504.37
492.48	2513.74
492.66	2478.63
492.84	2424.80
493.01	2265.64
493.19	2338.20
493.37	2296.07
493.54	2345.22
493.72	2366.28
493.90	2209.47
494.08	2157.97
494.25	2162.66
494.43	2172.02
494.61	2031.58
494.79	1968.39
494.96	2024.56
495.14	2071.37
495.32	1900.52
495.49	1961.37
495.67	1849.02
495.85	1806.89
496.02	1921.58
496.20	1755.40
496.38	1790.51
496.55	1741.36
496.73	1689.87
496.91	1692.21
497.09	1652.42
497.26	1631.35
497.44	1626.67
497.62	1547.09
497.79	1542.41
497.97	1556.46
498.14	1507.30
498.32	1540.07
498.50	1413.68
498.67	1355.17
498.85	1352.83
499.03	1371.55
499.20	1277.93
499.38	1313.04
499.56	1235.80
499.73	1221.76
499.91	1212.40
500.08	1203.04
500.26	1158.57
500.44	1083.67
500.61	1153.88
500.79	999.41
500.97	1046.22
501.14	1050.90
501.32	999.41
501.49	950.26
501.67	943.24
501.84	912.81
502.02	849.61
502.20	870.68
502.37	868.34
502.55	823.87
502.72	772.38
502.90	730.25
503.07	734.93
503.25	816.85
503.43	676.41
503.60	748.97
503.78	678.76
503.95	716.20
504.13	667.05
504.30	706.84
504.48	660.03
504.65	631.94
504.83	697.48
505.01	531.30
505.18	650.67
505.36	528.96
505.53	587.47
505.71	599.18
505.88	587.47
506.06	599.18
506.23	477.47
506.41	608.54
506.58	655.35
506.76	535.98
506.93	580.45
507.11	496.19
507.28	510.24
507.46	500.87
507.63	454.06
507.81	428.32
507.98	425.98
508.16	517.26
508.33	526.62
508.50	521.94
508.68	526.62
508.85	622.58
509.03	587.47
509.20	589.82
509.38	491.51
509.55	608.54
509.73	580.45
509.90	533.64
510.08	608.54
510.25	524.28
510.42	451.72
510.60	500.87
510.77	507.90
510.95	510.24
511.12	484.49
511.30	543.00
511.47	498.53
511.64	486.83
511.82	435.34
511.99	484.49
512.17	468.11
512.34	451.72
512.51	411.93
512.69	514.92
512.86	550.03
513.04	428.32
513.21	390.87
513.38	482.15
513.56	367.46
513.73	475.13
513.90	402.57
514.08	383.85
514.25	369.80
514.43	437.68
514.60	393.21
514.77	437.68
514.95	440.02
515.12	390.87
515.29	430.66
515.47	381.51
515.64	444.70
515.81	390.87
515.99	376.83
516.16	397.89
516.33	433.00
516.51	400.23
516.68	390.87
516.85	365.12
517.03	416.62
517.20	353.42
517.37	358.10
517.54	430.66
517.72	409.59
517.89	376.83
518.06	294.91
518.24	465.77
518.41	402.57
518.58	468.11
518.75	358.10
518.93	367.46
519.10	409.59
519.27	374.49
519.45	395.55
519.62	376.83
519.79	344.06
519.96	306.61
520.14	348.74
520.31	409.59
520.48	383.85
520.65	433.00
520.83	400.23
521.00	395.55
521.17	430.66
521.34	402.57
521.52	390.87
521.69	334.70
521.86	346.40
522.03	423.64
522.20	341.72
522.38	388.53
522.55	374.49
522.72	365.12
522.89	461.09
523.07	400.23
523.24	430.66
523.41	341.72
523.58	411.93
523.75	367.46
523.92	351.08
524.10	376.83
524.27	440.02
524.44	395.55
524.61	491.51
524.78	365.12
524.96	444.70
525.13	360.44
525.30	440.02
525.47	395.55
525.64	440.02
525.81	332.36
525.98	468.11
526.16	348.74
526.33	360.44
526.50	458.74
526.67	397.89
526.84	472.79
527.01	493.85
527.18	465.77
527.36	571.09
527.53	528.96
527.70	521.94
527.87	484.49
528.04	521.94
528.21	433.00
528.38	543.00
528.55	507.90
528.72	559.39
528.89	510.24
529.07	442.36
529.24	489.17
529.41	580.45
529.58	500.87
529.75	550.03
529.92	454.06
530.09	571.09
530.26	613.22
530.43	575.77
530.60	557.05
530.77	535.98
530.94	653.01
531.11	667.05
531.28	617.90
531.46	723.23
531.63	620.24
531.80	760.67
531.97	788.76
532.14	887.06
532.31	1032.18
532.48	1200.69
532.65	1439.43
532.82	1528.37
532.99	1909.88
533.16	2221.17
533.33	2317.13
533.50	2059.67
533.67	1792.85
533.84	1528.37
534.01	1437.09
534.18	1200.69
534.35	1275.59
534.52	1235.80
534.69	1359.85
534.86	1336.45
535.03	1401.98
535.20	1507.30
535.37	1561.14
535.54	1624.33
535.71	1657.10
535.88	1708.59
536.05	1954.35
536.22	2136.91
536.38	2237.55
536.55	2499.69
536.72	2661.19
536.89	2846.09
537.06	3309.52
537.23	3737.84
537.40	4046.79
537.57	4409.57
537.74	4697.46
537.91	4730.22
538.08	4919.81
538.25	4868.31
538.42	5001.72
538.59	5107.05
538.75	5357.49
538.92	5481.53
539.09	6129.86
539.26	6609.67
539.43	7456.95
539.60	8571.04
539.77	9912.17
539.94	11044.99
540.11	12114.61
540.28	13369.14
540.44	14672.82
540.61	16152.04
540.78	18408.31
540.95	21839.54
541.12	26656.36
541.29	29860.55
541.46	31674.47
541.62	31433.39
541.79	30628.25
541.96	27978.76
542.13	26143.78
542.30	24446.90
542.47	22951.29
542.63	21706.13
542.80	20676.29
542.97	20376.70
543.14	20095.84
543.31	20032.65
543.48	20489.05
543.64	20833.11
543.81	21083.55
543.98	21247.38
544.15	21341.00
544.32	21221.64
544.48	21343.35
544.65	20842.47
544.82	21135.04
544.99	20947.79
545.16	21266.11
545.32	22520.63
545.49	34417.58
545.66	56802.46
545.83	64966.25
546.00	62159.95
546.16	50281.73
546.33	36877.48
546.50	27828.97
546.67	21741.24
546.83	19108.13
547.00	18424.70
547.17	17579.76
547.34	16783.98
547.50	16425.88
547.67	15653.50
547.84	14799.21
548.00	14338.12
548.17	13844.27
548.34	13025.08
548.51	12517.18
548.67	12070.14
548.84	11597.35
549.01	10934.98
549.18	10361.55
549.34	10057.28
549.51	9755.35
549.68	9432.36
549.84	8959.57
550.01	8905.74
550.18	8161.45
550.34	7786.96
550.51	7428.86
550.68	7152.68
550.84	6558.18
551.01	6345.19
551.18	6148.59
551.34	5827.93
551.51	5643.03
551.68	5245.14
551.84	5158.54
552.01	4844.91
552.18	4748.95
552.34	4341.69
552.51	4367.44
552.68	4065.51
552.84	3927.42
553.01	3705.07
553.18	3754.22
553.34	3541.23
553.51	3485.06
553.67	3433.57
553.84	3300.16
554.01	3194.83
554.17	2813.32
554.34	2722.04
554.51	2434.16
554.67	2401.39
554.84	2190.74
555.00	2069.03
555.17	2090.10
555.33	1949.67
555.50	1856.04
555.67	1823.28
555.83	1776.47
556.00	1645.40
556.16	1694.55
556.33	1469.86
556.50	1516.67
556.66	1387.94
556.83	1275.59
556.99	1373.89
557.16	1366.87
557.32	1263.89
557.49	1280.27
557.65	1172.61
557.82	1191.33
557.98	1095.37
558.15	1149.20
558.32	1158.57
558.48	1001.75
558.65	1086.01
558.81	1081.33
558.98	957.28
559.14	866.00
559.31	999.41
559.47	959.62
559.64	861.32
559.80	917.49
559.97	880.04
560.13	870.68
560.30	847.27
560.46	837.91
560.63	898.77
560.79	781.74
560.96	828.55
561.12	849.61
561.29	809.83
561.45	891.74
561.61	837.91
561.78	1018.13
561.94	894.08
562.11	957.28
562.27	926.85
562.44	940.90
562.60	854.30
562.77	884.72
562.93	912.81
563.10	795.78
563.26	851.96
563.42	847.27
563.59	732.59
563.75	709.18
563.92	800.46
564.08	760.67
564.24	767.70
564.41	784.08
564.57	692.80
564.74	660.03
564.90	758.33
565.07	695.14
565.23	690.46
565.39	699.82
565.56	617.90
565.72	648.33
565.88	688.12
566.05	650.67
566.21	613.22
566.38	774.72
566.54	660.03
566.70	734.93
566.87	739.61
567.03	634.29
567.19	730.25
567.36	669.39
567.52	744.29
567.68	660.03
567.85	690.46
568.01	730.25
568.17	739.61
568.34	755.99
568.50	812.17
568.66	643.65
568.83	723.23
568.99	716.20
569.15	713.86
569.32	709.18
569.48	571.09
569.64	592.16
569.81	615.56
569.97	653.01
570.13	660.03
570.30	587.47
570.46	566.41
570.62	456.40
570.78	552.37
570.95	482.15
571.11	582.79
571.27	559.39
571.43	475.13
571.60	477.47
571.76	458.74
571.92	575.77
572.09	484.49
572.25	484.49
572.41	475.13
572.57	500.87
572.74	559.39
572.90	505.56
573.06	564.07
573.22	503.22
573.38	561.73
573.55	596.84
573.71	561.73
573.87	594.50
574.03	507.90
574.20	571.09
574.36	636.63
574.52	638.97
574.68	688.12
574.84	657.69
575.01	720.88
575.17	739.61
575.33	767.70
575.49	770.04
575.65	821.53
575.82	896.43
575.98	947.92
576.14	1116.44
576.30	2106.48
576.46	6665.85
576.62	13437.02
576.79	16203.53
576.95	11138.61
577.11	7421.84
577.27	4975.98
577.43	3262.71
577.59	2127.55
577.75	1680.50
577.92	1554.12
578.08	1547.09
578.24	1516.67
578.40	2448.20
578.56	6670.53
578.72	12224.62
578.88	14717.29
579.04	10897.53
579.21	7452.27
579.37	5387.91
579.53	4210.62
579.69	3911.04
579.85	4482.13
580.01	5540.05
580.17	5518.98
580.33	4617.88
580.49	3822.09
580.65	3449.95
580.82	3171.43
580.98	2897.58
581.14	3110.57
581.30	3323.56
581.46	3672.30
581.62	3857.20
581.78	4074.87
581.94	4329.99
582.10	4521.92
582.26	4908.10
582.42	4924.49
582.58	5331.74
582.74	5434.72
582.90	5420.68
583.06	5526.00
583.22	5387.91
583.38	5359.83
583.54	5441.75
583.70	5425.36
583.86	5390.25
584.02	5331.74
584.18	5156.20
584.34	4985.34
584.50	4894.06
584.66	4798.10
584.82	4678.73
584.98	4795.76
585.14	4578.09
585.30	4430.63
585.46	4360.42
585.62	4596.81
585.78	4528.94
585.94	4631.92
586.10	4540.64
586.26	4868.31
586.42	5406.64
586.58	6370.94
586.74	7866.54
586.90	9357.46
587.06	10572.20
587.22	10626.03
587.38	9434.70
587.54	8168.47
587.70	6878.83
587.86	5961.34
588.02	4915.12
588.18	4390.84
588.34	3955.51
588.49	3742.52
588.65	3480.38
588.81	3185.47
588.97	3101.21
589.13	2963.12
589.29	3094.19
589.45	3028.65
589.61	2939.71
589.77	2923.33
589.93	3047.38
590.08	3035.67
590.24	3155.04
590.40	3141.00
590.56	3318.88
590.72	3552.93
590.88	3471.01
591.04	3679.32
591.20	3761.24
591.35	4002.32
591.51	4135.73
591.67	4236.37
591.83	4531.28
591.99	4777.03
592.15	5408.98
592.31	5820.91
592.46	6403.71
592.62	7019.27
592.78	7309.49
592.94	7793.98
593.10	7616.10
593.26	7124.59
593.41	6731.38
593.57	6057.31
593.73	5476.85
593.89	4660.01
594.05	4112.32
594.20	3761.24
594.36	3473.36
594.52	3295.47
594.68	3066.10
594.84	2888.22
594.99	2815.66
595.15	2640.12
595.31	2691.62
595.47	2874.18
595.62	2616.72
595.78	2731.41
595.94	2637.78
596.10	2754.81
596.25	2644.81
596.41	2670.55
596.57	2785.24
596.73	2764.17
596.88	2647.15
597.04	2588.63
597.20	2703.32
597.36	2600.34
597.51	2661.19
597.67	2888.22
597.83	2991.20
597.99	3178.45
598.14	3431.23
598.30	3583.36
598.46	3679.32
598.61	4051.47
598.77	4084.23
598.93	4219.99
599.09	4482.13
599.24	4528.94
599.40	4617.88
599.56	4409.57
599.71	4222.33
599.87	3997.64
600.03	3688.68
600.18	3545.91
600.34	3363.35
600.50	3129.30
600.65	2911.63
600.81	2719.70
600.97	2527.78
601.12	2527.78
601.28	2450.54
601.44	2214.15
601.59	2106.48
601.75	1954.35
601.91	1961.37
602.06	1928.60
602.22	1844.34
602.37	1851.36
602.53	1739.02
602.69	1792.85
602.84	1664.12
603.00	1673.48
603.16	1727.32
603.31	1865.41
603.47	1774.13
603.62	1877.11
603.78	1863.07
603.94	1877.11
604.09	1884.13
604.25	2031.58
604.40	2047.97
604.56	2010.52
604.71	2094.78
604.87	2076.06
605.03	2139.25
605.18	2207.13
605.34	2263.30
605.49	2211.81
605.65	2260.96
605.80	2392.03
605.96	2506.71
606.12	2576.93
606.27	2661.19
606.43	2689.28
606.58	2860.13
606.74	2958.44
606.89	3131.64
607.05	3431.23
607.20	3536.55
607.36	3754.22
607.51	3836.14
607.67	4091.26
607.82	4318.29
607.98	4699.80
608.13	5291.95
608.29	5488.56
608.44	5947.30
608.60	6518.39
608.75	7166.72
608.91	7740.15
609.06	8540.61
609.22	9481.51
609.37	10546.45
609.53	11683.95
609.68	13156.15
609.84	15316.47
609.99	17736.58
610.15	21092.91
610.30	25600.78
610.46	33256.67
610.61	42997.98
610.76	52133.09
610.92	58202.10
611.07	61642.69
611.23	62412.73
611.38	60882.02
611.54	57808.89
611.69	53483.58
611.84	46447.93
612.00	39416.96
612.15	32830.69
612.31	29153.71
612.46	25509.50
612.62	23690.90
612.77	22031.46
612.92	20774.60
613.08	19552.84
613.23	18700.88
613.39	18134.47
613.54	17542.32
613.69	17392.52
613.85	16901.01
614.00	16875.26
614.15	16933.78
614.31	16128.63
614.46	16042.03
614.62	15658.18
614.77	14941.98
614.92	14476.21
615.08	13275.52
615.23	12044.40
615.38	11190.10
615.54	10094.73
615.69	9247.46
615.84	8538.27
616.00	8046.76
616.15	7290.77
616.30	6696.27
616.46	6427.11
616.61	6010.50
616.76	5668.78
616.92	5441.75
617.07	5076.62
617.22	4777.03
617.37	4463.40
617.53	4564.04
617.68	4196.58
617.83	4081.89
617.99	3899.33
618.14	3770.60
618.29	3707.41
618.45	3620.81
618.60	3625.49
618.75	3543.57
618.90	3517.83
619.06	3424.20
619.21	3417.18
619.36	3433.57
619.51	3421.86
619.67	3365.69
619.82	3428.88
619.97	3454.63
620.12	3658.26
620.28	3761.24
620.43	3719.11
620.58	3918.06
620.73	3669.96
620.89	3721.45
621.04	3765.92
621.19	3625.49
621.34	3574.00
621.49	3620.81
621.65	3576.34
621.80	3571.66
621.95	3501.44
622.10	3641.87
622.25	3447.61
622.41	3658.26
622.56	3646.55
622.71	3768.26
622.86	3761.24
623.01	3777.62
623.16	4102.96
623.32	3978.91
623.47	4086.58
623.62	3911.04
623.77	4044.45
623.92	3929.76
624.07	4032.74
624.23	4084.23
624.38	4215.30
624.53	4046.79
624.68	4046.79
624.83	4133.39
624.98	4250.41
625.13	4250.41
625.29	4147.43
625.44	4086.58
625.59	4142.75
625.74	4086.58
625.89	4198.92
626.04	3974.23
626.19	4016.36
626.34	4152.11
626.49	4037.42
626.65	4224.67
626.80	4159.13
626.95	4023.38
627.10	3925.08
627.25	3967.21
627.40	3840.82
627.55	3768.26
627.70	3733.15
627.85	3782.31
628.00	3712.09
628.15	3564.64
628.30	3623.15
628.45	3662.94
628.60	3700.39
628.76	3524.85
628.91	3616.13
629.06	3672.30
629.21	3801.03
629.36	4028.06
629.51	3999.98
629.66	4273.82
629.81	4423.61
629.96	4880.02
630.11	5696.86
630.26	5886.45
630.41	6607.33
630.56	7241.62
630.71	7995.27
630.86	8266.77
631.01	8030.38
631.16	7442.90
631.31	6682.23
631.46	5858.36
631.61	4830.87
631.76	4051.47
631.91	3492.08
632.06	2911.63
632.21	2429.48
632.36	2085.42
632.51	1919.24
632.66	1769.44
632.81	1706.25
632.96	1572.84
633.10	1483.90
633.25	1516.67
633.40	1310.70
633.55	1291.98
633.70	1177.29
633.85	1224.10
634.00	1151.54
634.15	1090.69
634.30	1095.37
634.45	1093.03
634.60	1104.73
634.75	1158.57
634.90	1100.05
635.05	1034.52
635.19	976.00
635.34	1036.86
635.49	994.73
635.64	938.55
635.79	1039.20
635.94	1006.43
636.09	954.94
636.24	919.83
636.39	880.04
636.53	887.06
636.68	903.45
636.83	938.55
636.98	903.45
637.13	788.76
637.28	828.55
637.43	847.27
637.57	844.93
637.72	795.78
637.87	795.78
638.02	753.65
638.17	741.95
638.32	828.55
638.46	777.06
638.61	851.96
638.76	786.42
638.91	737.27
639.06	674.07
639.20	795.78
639.35	765.36
639.50	704.50
639.65	795.78
639.80	716.20
639.94	748.97
640.09	645.99
640.24	730.25
640.39	716.20
640.54	571.09
640.68	674.07
640.83	702.16
640.98	704.50
641.13	669.39
641.27	674.07
641.42	641.31
641.57	688.12
641.72	716.20
641.86	667.05
642.01	723.23
642.16	739.61
642.31	690.46
642.45	788.76
642.60	765.36
642.75	711.52
642.90	685.78
643.04	683.44
643.19	823.87
643.34	718.54
643.48	678.76
643.63	711.52
643.78	777.06
643.93	748.97
644.07	800.46
644.22	779.40
644.37	791.10
644.51	758.33
644.66	763.01
644.81	660.03
644.95	592.16
645.10	685.78
645.25	709.18
645.39	676.41
645.54	624.92
645.69	781.74
645.83	699.82
645.98	678.76
646.13	711.52
646.27	702.16
646.42	655.35
646.57	615.56
646.71	671.73
646.86	592.16
647.00	606.20
647.15	671.73
647.30	671.73
647.44	589.82
647.59	657.69
647.74	802.80
647.88	697.48
648.03	599.18
648.17	688.12
648.32	653.01
648.47	559.39
648.61	657.69
648.76	697.48
648.90	690.46
649.05	847.27
649.20	919.83
649.34	980.68
649.49	940.90
649.63	1090.69
649.78	1282.61
649.92	1507.30
650.07	1870.09
650.21	2064.35
650.36	2377.98
650.51	2169.68
650.65	2052.65
650.80	1916.90
650.94	1621.99
651.09	1455.81
651.23	1324.74
651.38	1249.85
651.52	1132.82
651.67	1046.22
651.81	983.02
651.96	912.81
652.10	940.90
652.25	943.24
652.39	922.17
652.54	1001.75
652.68	1095.37
652.83	1022.81
652.97	994.73
653.12	1100.05
653.26	994.73
653.41	1062.60
653.55	896.43
653.70	966.64
653.84	786.42
653.99	800.46
654.13	727.91
654.27	674.07
654.42	664.71
654.56	678.76
654.71	671.73
654.85	667.05
655.00	713.86
655.14	760.67
655.29	660.03
655.43	578.11
655.57	564.07
655.72	561.73
655.86	512.58
656.01	613.22
656.15	510.24
656.30	643.65
656.44	641.31
656.58	631.94
656.73	622.58
656.87	667.05
657.01	629.60
657.16	648.33
657.30	688.12
657.45	718.54
657.59	770.04
657.73	816.85
657.88	744.29
658.02	891.74
658.16	713.86
658.31	702.16
658.45	624.92
658.60	573.43
658.74	669.39
658.88	547.69
659.03	538.32
659.17	561.73
659.31	564.07
659.46	484.49
659.60	507.90
659.74	442.36
659.89	470.45
660.03	505.56
660.17	486.83
660.32	479.81
660.46	526.62
660.60	535.98
660.74	585.13
660.89	561.73
661.03	512.58
661.17	594.50
661.32	538.32
661.46	678.76
661.60	657.69
661.74	896.43
661.89	1107.07
662.03	1210.06
662.17	1263.89
662.31	1364.53
662.46	1387.94
662.60	1228.78
662.74	1156.22
662.88	1020.47
663.03	826.21
663.17	880.04
663.31	814.51
663.45	763.01
663.60	746.63
663.74	655.35
663.88	538.32
664.02	580.45
664.17	594.50
664.31	559.39
664.45	425.98
664.59	458.74
664.73	468.11
664.88	521.94
665.02	503.22
665.16	484.49
665.30	500.87
665.44	486.83
665.59	458.74
665.73	463.43
665.87	430.66
666.01	451.72
666.15	411.93
666.29	465.77
666.44	496.19
666.58	550.03
666.72	484.49
666.86	507.90
667.00	510.24
667.14	421.30
667.28	526.62
667.43	505.56
667.57	461.09
667.71	430.66
667.85	552.37
667.99	395.55
668.13	355.76
668.27	498.53
668.41	447.04
668.56	465.77
668.70	519.60
668.84	435.34
668.98	430.66
669.12	472.79
669.26	475.13
669.40	535.98
669.54	390.87
669.68	416.62
669.82	400.23
669.96	493.85
670.10	411.93
670.25	407.25
670.39	407.25
670.53	397.89
670.67	444.70
670.81	479.81
670.95	479.81
671.09	365.12
671.23	440.02
671.37	442.36
671.51	423.64
671.65	482.15
671.79	437.68
671.93	404.91
672.07	409.59
672.21	386.19
672.35	322.99
672.49	428.32
672.63	454.06
672.77	411.93
672.91	383.85
673.05	395.55
673.19	362.78
673.33	423.64
673.47	358.10
673.61	395.55
673.75	355.76
673.89	346.40
674.03	454.06
674.17	423.64
674.31	360.44
674.45	376.83
674.59	355.76
674.73	318.31
674.87	360.44
675.01	407.25
675.15	409.59
675.29	468.11
675.43	313.63
675.56	397.89
675.70	423.64
675.84	313.63
675.98	386.19
676.12	360.44
676.26	327.68
676.40	353.42
676.54	332.36
676.68	421.30
676.82	346.40
676.96	308.95
677.10	388.53
677.23	299.59
677.37	252.78
677.51	320.65
677.65	315.97
677.79	318.31
677.93	337.04
678.07	330.02
678.21	280.86
678.34	362.78
678.48	351.08
678.62	348.74
678.76	318.31
678.90	397.89
679.04	409.59
679.18	306.61
679.31	360.44
679.45	334.70
679.59	351.08
679.73	351.08
679.87	271.50
680.00	416.62
680.14	407.25
680.28	334.70
680.42	330.02
680.56	461.09
680.70	344.06
680.83	414.27
680.97	330.02
681.11	367.46
681.25	388.53
681.39	334.70
681.52	304.27
681.66	386.19
681.80	421.30
681.94	393.21
682.07	346.40
682.21	367.46
682.35	337.04
682.49	330.02
682.62	433.00
682.76	376.83
682.90	264.48
683.04	355.76
683.17	358.10
683.31	346.40
683.45	322.99
683.59	255.12
683.72	283.20
683.86	365.12
684.00	290.23
684.13	341.72
684.27	283.20
684.41	297.25
684.55	390.87
684.68	297.25
684.82	299.59
684.96	386.19
685.09	351.08
685.23	313.63
685.37	334.70
685.50	330.02
685.64	376.83
685.78	388.53
685.91	390.87
686.05	407.25
686.19	407.25
686.32	505.56
686.46	442.36
686.60	458.74
686.73	557.05
686.87	547.69
687.01	580.45
687.14	667.05
687.28	730.25
687.42	697.48
687.55	702.16
687.69	837.91
687.82	786.42
687.96	812.17
688.10	770.04
688.23	723.23
688.37	674.07
688.50	517.26
688.64	599.18
688.78	461.09
688.91	470.45
689.05	390.87
689.18	367.46
689.32	442.36
689.46	322.99
689.59	315.97
689.73	430.66
689.86	229.37
690.00	264.48
690.13	297.25
690.27	308.95
690.41	283.20
690.54	379.17
690.68	327.68
690.81	306.61
690.95	355.76
691.08	271.50
691.22	234.05
691.35	250.44
691.49	245.76
691.62	248.10
691.76	222.35
691.89	273.84
692.03	245.76
692.16	152.13
692.30	278.52
692.43	308.95
692.57	241.08
692.70	184.90
692.84	236.39
692.97	269.16
693.11	269.16
693.24	376.83
693.38	486.83
693.51	578.11
693.65	613.22
693.78	622.58
693.92	561.73
694.05	582.79
694.19	447.04
694.32	433.00
694.45	318.31
694.59	374.49
694.72	259.80
694.86	290.23
694.99	227.03
695.13	198.95
695.26	220.01
695.39	234.05
695.53	330.02
695.66	203.63
695.80	262.14
695.93	306.61
696.07	182.56
696.20	222.35
696.33	234.05
696.47	320.65
696.60	255.12
696.73	229.37
696.87	325.33
697.00	168.52
697.14	166.18
697.27	168.52
697.40	243.42
697.54	187.24
697.67	189.58
697.80	168.52
697.94	114.69
698.07	131.07
698.21	184.90
698.34	105.32
698.47	194.26
698.61	191.92
698.74	205.97
698.87	227.03
699.01	187.24
699.14	105.32
699.27	236.39
699.40	280.86
699.54	189.58
699.67	114.69
699.80	203.63
699.94	194.26
700.07	175.54
700.20	182.56
700.34	229.37
700.47	107.66
700.60	145.11
700.73	147.45
700.87	236.39
701.00	180.22
701.13	149.79
701.26	224.69
701.40	212.99
701.53	252.78
701.66	208.31
701.79	156.82
701.93	203.63
702.06	196.60
702.19	203.63
702.32	271.50
702.46	208.31
702.59	156.82
702.72	255.12
702.85	224.69
702.99	105.32
703.12	187.24
703.25	184.90
703.38	276.18
703.51	238.73
703.65	271.50
703.78	245.76
703.91	308.95
704.04	330.02
704.17	273.84
704.31	248.10
704.44	227.03
704.57	297.25
704.70	266.82
704.83	273.84
704.96	318.31
705.10	315.97
705.23	411.93
>>>>>End Processed Spectral Data<<<<<
