SpectraSuite Data File
++++++++++++++++++++++++++++++++++++
Date: Fri Oct 04 11:41:46 GMT-05:00 2013
User: price-jones
Dark Spectrum Present: No
Reference Spectrum Present: No
Number of Sampled Component Spectra: 1
Spectrometers: USB2+H05261
Integration Time (usec): 100000 (USB2+H05261)
Spectra Averaged: 1 (USB2+H05261)
Boxcar Smoothing: 0 (USB2+H05261)
Correct for Electrical Dark: No (USB2+H05261)
Strobe/Lamp Enabled: No (USB2+H05261)
Correct for Detector Non-linearity: No (USB2+H05261)
Correct for Stray Light: No (USB2+H05261)
Number of Pixels in Processed Spectrum: 2048
>>>>>Begin Processed Spectral Data<<<<<
365.73	23.41
365.92	23.41
366.12	23.41
366.32	9.36
366.52	0.00
366.72	0.00
366.91	0.00
367.11	0.00
367.31	0.00
367.51	0.00
367.70	0.00
367.90	0.00
368.10	0.00
368.30	0.00
368.49	0.00
368.69	0.00
368.89	0.00
369.09	0.00
369.28	0.00
369.48	0.00
369.68	0.00
369.87	0.00
370.07	14.04
370.27	0.00
370.47	39.79
370.66	0.00
370.86	70.22
371.06	28.09
371.25	121.71
371.45	39.79
371.65	63.19
371.84	70.22
372.04	110.01
372.24	84.26
372.44	7.02
372.63	107.66
372.83	142.77
373.03	65.54
373.22	119.37
373.42	86.60
373.62	107.66
373.81	102.98
374.01	81.92
374.21	100.64
374.40	102.98
374.60	159.16
374.79	126.39
374.99	93.62
375.19	105.32
375.38	203.63
375.58	135.75
375.78	168.52
375.97	128.73
376.17	175.54
376.37	133.41
376.56	119.37
376.76	88.94
376.95	65.54
377.15	168.52
377.35	53.83
377.54	215.33
377.74	46.81
377.93	112.35
378.13	65.54
378.33	145.11
378.52	124.05
378.72	173.20
378.91	147.45
379.11	107.66
379.31	79.58
379.50	63.19
379.70	88.94
379.89	159.16
380.09	70.22
380.28	58.51
380.48	133.41
380.68	39.79
380.87	32.77
381.07	128.73
381.26	117.03
381.46	173.20
381.65	100.64
381.85	110.01
382.04	131.07
382.24	149.79
382.43	56.17
382.63	44.47
382.83	105.32
383.02	91.28
383.22	168.52
383.41	105.32
383.61	107.66
383.80	105.32
384.00	159.16
384.19	98.30
384.39	88.94
384.58	138.09
384.78	194.26
384.97	100.64
385.17	105.32
385.36	30.43
385.56	159.16
385.75	18.72
385.95	135.75
386.14	168.52
386.34	51.49
386.53	154.48
386.72	67.88
386.92	25.75
387.11	173.20
387.31	154.48
387.50	2.34
387.70	79.58
387.89	105.32
388.09	107.66
388.28	67.88
388.48	72.56
388.67	91.28
388.86	114.69
389.06	131.07
389.25	95.96
389.45	105.32
389.64	161.50
389.84	81.92
390.03	117.03
390.22	95.96
390.42	142.77
390.61	138.09
390.81	124.05
391.00	138.09
391.19	102.98
391.39	88.94
391.58	70.22
391.78	100.64
391.97	156.82
392.16	191.92
392.36	152.13
392.55	117.03
392.75	72.56
392.94	58.51
393.13	112.35
393.33	156.82
393.52	131.07
393.71	210.65
393.91	112.35
394.10	86.60
394.29	49.15
394.49	110.01
394.68	51.49
394.88	98.30
395.07	191.92
395.26	175.54
395.46	128.73
395.65	208.31
395.84	170.86
396.04	168.52
396.23	35.11
396.42	145.11
396.62	110.01
396.81	58.51
397.00	86.60
397.19	53.83
397.39	72.56
397.58	166.18
397.77	72.56
397.97	135.75
398.16	112.35
398.35	142.77
398.55	124.05
398.74	67.88
398.93	133.41
399.12	79.58
399.32	138.09
399.51	102.98
399.70	98.30
399.90	135.75
400.09	117.03
400.28	142.77
400.47	126.39
400.67	110.01
400.86	86.60
401.05	98.30
401.24	135.75
401.44	182.56
401.63	189.58
401.82	135.75
402.01	98.30
402.21	112.35
402.40	201.29
402.59	63.19
402.78	184.90
402.97	173.20
403.17	114.69
403.36	191.92
403.55	217.67
403.74	355.76
403.93	702.16
404.13	1076.65
404.32	1277.93
404.51	964.30
404.70	631.94
404.89	320.65
405.09	248.10
405.28	88.94
405.47	135.75
405.66	149.79
405.85	124.05
406.05	112.35
406.24	161.50
406.43	166.18
406.62	114.69
406.81	175.54
407.00	170.86
407.20	217.67
407.39	248.10
407.58	283.20
407.77	161.50
407.96	229.37
408.15	241.08
408.34	159.16
408.54	180.22
408.73	107.66
408.92	126.39
409.11	128.73
409.30	112.35
409.49	91.28
409.68	126.39
409.87	161.50
410.07	131.07
410.26	117.03
410.45	142.77
410.64	114.69
410.83	156.82
411.02	98.30
411.21	170.86
411.40	266.82
411.59	110.01
411.78	56.17
411.98	182.56
412.17	187.24
412.36	91.28
412.55	156.82
412.74	243.42
412.93	198.95
413.12	14.04
413.31	110.01
413.50	152.13
413.69	147.45
413.88	201.29
414.07	175.54
414.26	91.28
414.45	124.05
414.64	145.11
414.83	205.97
415.02	121.71
415.22	184.90
415.41	187.24
415.60	140.43
415.79	191.92
415.98	149.79
416.17	140.43
416.36	196.60
416.55	110.01
416.74	168.52
416.93	212.99
417.12	128.73
417.31	81.92
417.50	182.56
417.69	124.05
417.88	175.54
418.07	142.77
418.26	117.03
418.45	194.26
418.64	180.22
418.83	98.30
419.02	147.45
419.21	187.24
419.39	135.75
419.58	173.20
419.77	142.77
419.96	133.41
420.15	248.10
420.34	53.83
420.53	152.13
420.72	208.31
420.91	170.86
421.10	180.22
421.29	152.13
421.48	156.82
421.67	208.31
421.86	126.39
422.05	184.90
422.24	154.48
422.43	196.60
422.61	152.13
422.80	156.82
422.99	184.90
423.18	135.75
423.37	112.35
423.56	117.03
423.75	152.13
423.94	198.95
424.13	133.41
424.32	138.09
424.50	168.52
424.69	180.22
424.88	220.01
425.07	154.48
425.26	121.71
425.45	124.05
425.64	191.92
425.83	142.77
426.01	154.48
426.20	175.54
426.39	217.67
426.58	152.13
426.77	175.54
426.96	224.69
427.15	198.95
427.33	147.45
427.52	152.13
427.71	154.48
427.90	166.18
428.09	110.01
428.28	105.32
428.46	114.69
428.65	133.41
428.84	191.92
429.03	255.12
429.22	152.13
429.40	205.97
429.59	135.75
429.78	203.63
429.97	175.54
430.16	149.79
430.34	205.97
430.53	210.65
430.72	147.45
430.91	173.20
431.10	163.84
431.28	180.22
431.47	182.56
431.66	196.60
431.85	196.60
432.03	189.58
432.22	217.67
432.41	163.84
432.60	201.29
432.79	180.22
432.97	234.05
433.16	177.88
433.35	229.37
433.54	327.68
433.72	149.79
433.91	248.10
434.10	262.14
434.28	266.82
434.47	294.91
434.66	379.17
434.85	435.34
435.03	1144.52
435.22	3449.95
435.41	5240.46
435.59	4896.40
435.78	3150.36
435.97	1570.50
436.16	779.40
436.34	337.04
436.53	215.33
436.72	262.14
436.90	203.63
437.09	292.57
437.28	248.10
437.46	182.56
437.65	278.52
437.84	243.42
438.02	177.88
438.21	271.50
438.40	203.63
438.58	124.05
438.77	210.65
438.96	236.39
439.14	182.56
439.33	189.58
439.52	194.26
439.70	227.03
439.89	177.88
440.08	166.18
440.26	276.18
440.45	234.05
440.63	255.12
440.82	208.31
441.01	276.18
441.19	283.20
441.38	201.29
441.57	196.60
441.75	285.55
441.94	278.52
442.12	187.24
442.31	255.12
442.50	208.31
442.68	243.42
442.87	215.33
443.05	255.12
443.24	205.97
443.43	182.56
443.61	243.42
443.80	180.22
443.98	212.99
444.17	149.79
444.35	250.44
444.54	203.63
444.73	205.97
444.91	255.12
445.10	245.76
445.28	262.14
445.47	229.37
445.65	187.24
445.84	212.99
446.02	140.43
446.21	241.08
446.39	224.69
446.58	175.54
446.77	224.69
446.95	149.79
447.14	236.39
447.32	297.25
447.51	177.88
447.69	259.80
447.88	234.05
448.06	224.69
448.25	152.13
448.43	194.26
448.62	205.97
448.80	210.65
448.99	238.73
449.17	210.65
449.36	238.73
449.54	229.37
449.73	149.79
449.91	191.92
450.10	189.58
450.28	238.73
450.46	297.25
450.65	234.05
450.83	259.80
451.02	180.22
451.20	147.45
451.39	210.65
451.57	231.71
451.76	201.29
451.94	175.54
452.13	313.63
452.31	205.97
452.49	297.25
452.68	271.50
452.86	173.20
453.05	252.78
453.23	250.44
453.42	180.22
453.60	224.69
453.78	124.05
453.97	140.43
454.15	128.73
454.34	278.52
454.52	180.22
454.70	271.50
454.89	201.29
455.07	180.22
455.26	198.95
455.44	224.69
455.62	102.98
455.81	215.33
455.99	220.01
456.17	227.03
456.36	236.39
456.54	224.69
456.73	208.31
456.91	208.31
457.09	238.73
457.28	222.35
457.46	266.82
457.64	248.10
457.83	231.71
458.01	159.16
458.19	245.76
458.38	180.22
458.56	210.65
458.74	210.65
458.93	262.14
459.11	170.86
459.29	196.60
459.48	234.05
459.66	255.12
459.84	212.99
460.03	318.31
460.21	231.71
460.39	184.90
460.57	231.71
460.76	194.26
460.94	168.52
461.12	220.01
461.31	241.08
461.49	245.76
461.67	145.11
461.85	227.03
462.04	203.63
462.22	266.82
462.40	236.39
462.59	269.16
462.77	177.88
462.95	173.20
463.13	187.24
463.32	290.23
463.50	234.05
463.68	229.37
463.86	180.22
464.05	222.35
464.23	276.18
464.41	243.42
464.59	201.29
464.78	262.14
464.96	210.65
465.14	262.14
465.32	224.69
465.50	217.67
465.69	184.90
465.87	229.37
466.05	224.69
466.23	191.92
466.41	203.63
466.60	238.73
466.78	292.57
466.96	227.03
467.14	212.99
467.32	322.99
467.51	215.33
467.69	238.73
467.87	210.65
468.05	159.16
468.23	243.42
468.41	170.86
468.60	187.24
468.78	290.23
468.96	231.71
469.14	255.12
469.32	189.58
469.50	224.69
469.69	236.39
469.87	147.45
470.05	91.28
470.23	208.31
470.41	168.52
470.59	191.92
470.77	252.78
470.95	168.52
471.14	245.76
471.32	283.20
471.50	152.13
471.68	255.12
471.86	194.26
472.04	170.86
472.22	234.05
472.40	217.67
472.58	173.20
472.77	212.99
472.95	238.73
473.13	224.69
473.31	241.08
473.49	234.05
473.67	210.65
473.85	264.48
474.03	220.01
474.21	163.84
474.39	175.54
474.57	271.50
474.75	208.31
474.93	175.54
475.12	278.52
475.30	194.26
475.48	184.90
475.66	149.79
475.84	196.60
476.02	241.08
476.20	245.76
476.38	149.79
476.56	318.31
476.74	236.39
476.92	173.20
477.10	191.92
477.28	220.01
477.46	283.20
477.64	241.08
477.82	173.20
478.00	220.01
478.18	189.58
478.36	236.39
478.54	194.26
478.72	227.03
478.90	205.97
479.08	175.54
479.26	276.18
479.44	173.20
479.62	229.37
479.80	196.60
479.98	266.82
480.16	259.80
480.34	238.73
480.52	215.33
480.70	189.58
480.88	294.91
481.06	292.57
481.24	241.08
481.41	353.42
481.59	292.57
481.77	304.27
481.95	311.29
482.13	313.63
482.31	358.10
482.49	339.38
482.67	346.40
482.85	346.40
483.03	374.49
483.21	355.76
483.39	337.04
483.57	388.53
483.74	444.70
483.92	395.55
484.10	411.93
484.28	627.26
484.46	610.88
484.64	559.39
484.82	557.05
485.00	566.41
485.18	655.35
485.35	655.35
485.53	552.37
485.71	624.92
485.89	730.25
486.07	585.13
486.25	678.76
486.43	774.72
486.61	751.31
486.78	697.48
486.96	613.22
487.14	688.12
487.32	608.54
487.50	627.26
487.68	667.05
487.85	664.71
488.03	678.76
488.21	648.33
488.39	664.71
488.57	730.25
488.75	578.11
488.92	940.90
489.10	624.92
489.28	582.79
489.46	578.11
489.64	568.75
489.81	571.09
489.99	592.16
490.17	561.73
490.35	622.58
490.53	521.94
490.70	521.94
490.88	620.24
491.06	662.37
491.24	568.75
491.41	669.39
491.59	599.18
491.77	580.45
491.95	538.32
492.13	514.92
492.30	491.51
492.48	550.03
492.66	531.30
492.84	582.79
493.01	500.87
493.19	526.62
493.37	538.32
493.54	507.90
493.72	543.00
493.90	510.24
494.08	552.37
494.25	472.79
494.43	463.43
494.61	470.45
494.79	449.38
494.96	425.98
495.14	519.60
495.32	477.47
495.49	472.79
495.67	479.81
495.85	393.21
496.02	421.30
496.20	437.68
496.38	482.15
496.55	456.40
496.73	493.85
496.91	423.64
497.09	407.25
497.26	404.91
497.44	428.32
497.62	409.59
497.79	386.19
497.97	475.13
498.14	463.43
498.32	444.70
498.50	395.55
498.67	341.72
498.85	355.76
499.03	365.12
499.20	348.74
499.38	404.91
499.56	339.38
499.73	386.19
499.91	346.40
500.08	330.02
500.26	393.21
500.44	376.83
500.61	369.80
500.79	315.97
500.97	285.55
501.14	379.17
501.32	315.97
501.49	322.99
501.67	297.25
501.84	423.64
502.02	299.59
502.20	339.38
502.37	255.12
502.55	358.10
502.72	313.63
502.90	297.25
503.07	250.44
503.25	280.86
503.43	290.23
503.60	259.80
503.78	198.95
503.95	273.84
504.13	255.12
504.30	264.48
504.48	388.53
504.65	360.44
504.83	360.44
505.01	311.29
505.18	376.83
505.36	231.71
505.53	362.78
505.71	257.46
505.88	299.59
506.06	250.44
506.23	276.18
506.41	271.50
506.58	339.38
506.76	201.29
506.93	264.48
507.11	290.23
507.28	297.25
507.46	255.12
507.63	250.44
507.81	224.69
507.98	215.33
508.16	290.23
508.33	259.80
508.50	308.95
508.68	292.57
508.85	271.50
509.03	217.67
509.20	259.80
509.38	287.89
509.55	248.10
509.73	294.91
509.90	330.02
510.08	362.78
510.25	259.80
510.42	236.39
510.60	264.48
510.77	330.02
510.95	297.25
511.12	269.16
511.30	257.46
511.47	248.10
511.64	325.33
511.82	194.26
511.99	257.46
512.17	264.48
512.34	241.08
512.51	250.44
512.69	243.42
512.86	266.82
513.04	259.80
513.21	215.33
513.38	222.35
513.56	271.50
513.73	285.55
513.90	215.33
514.08	250.44
514.25	318.31
514.43	325.33
514.60	290.23
514.77	248.10
514.95	229.37
515.12	271.50
515.29	292.57
515.47	259.80
515.64	252.78
515.81	238.73
515.99	348.74
516.16	248.10
516.33	262.14
516.51	248.10
516.68	175.54
516.85	191.92
517.03	259.80
517.20	222.35
517.37	177.88
517.54	212.99
517.72	210.65
517.89	231.71
518.06	180.22
518.24	266.82
518.41	299.59
518.58	252.78
518.75	203.63
518.93	201.29
519.10	315.97
519.27	257.46
519.45	229.37
519.62	243.42
519.79	301.93
519.96	271.50
520.14	273.84
520.31	304.27
520.48	208.31
520.65	287.89
520.83	311.29
521.00	236.39
521.17	280.86
521.34	259.80
521.52	292.57
521.69	255.12
521.86	299.59
522.03	259.80
522.20	290.23
522.38	234.05
522.55	255.12
522.72	292.57
522.89	322.99
523.07	306.61
523.24	252.78
523.41	280.86
523.58	280.86
523.75	266.82
523.92	255.12
524.10	245.76
524.27	297.25
524.44	187.24
524.61	290.23
524.78	308.95
524.96	292.57
525.13	252.78
525.30	212.99
525.47	320.65
525.64	304.27
525.81	287.89
525.98	234.05
526.16	182.56
526.33	238.73
526.50	196.60
526.67	191.92
526.84	208.31
527.01	180.22
527.18	285.55
527.36	285.55
527.53	276.18
527.70	313.63
527.87	273.84
528.04	337.04
528.21	311.29
528.38	259.80
528.55	308.95
528.72	355.76
528.89	367.46
529.07	297.25
529.24	236.39
529.41	374.49
529.58	306.61
529.75	320.65
529.92	299.59
530.09	301.93
530.26	290.23
530.43	290.23
530.60	344.06
530.77	290.23
530.94	248.10
531.11	266.82
531.28	311.29
531.46	299.59
531.63	234.05
531.80	334.70
531.97	362.78
532.14	294.91
532.31	325.33
532.48	383.85
532.65	355.76
532.82	325.33
532.99	486.83
533.16	402.57
533.33	400.23
533.50	435.34
533.67	416.62
533.84	458.74
534.01	369.80
534.18	362.78
534.35	388.53
534.52	418.96
534.69	465.77
534.86	430.66
535.03	407.25
535.20	414.27
535.37	468.11
535.54	500.87
535.71	470.45
535.88	500.87
536.05	484.49
536.22	449.38
536.38	503.22
536.55	589.82
536.72	538.32
536.89	535.98
537.06	587.47
537.23	765.36
537.40	753.65
537.57	837.91
537.74	926.85
537.91	891.74
538.08	887.06
538.25	821.53
538.42	999.41
538.59	961.96
538.75	957.28
538.92	1011.11
539.09	1137.50
539.26	1212.40
539.43	1336.45
539.60	1380.92
539.77	1565.82
539.94	1710.93
540.11	1832.64
540.28	1970.73
540.44	2202.44
540.61	2523.10
540.78	2771.19
540.95	3405.48
541.12	3775.28
541.29	4067.85
541.46	4351.06
541.62	4259.78
541.79	4046.79
541.96	3838.48
542.13	3590.38
542.30	3578.68
542.47	3330.58
542.63	3190.15
542.80	3138.66
542.97	3061.42
543.14	3049.72
543.31	3148.02
543.48	3129.30
543.64	3094.19
543.81	3096.53
543.98	3077.80
544.15	3194.83
544.32	3087.17
544.48	2988.86
544.65	3096.53
544.82	2977.16
544.99	3045.04
545.16	3098.87
545.32	3372.71
545.49	6525.41
545.66	10078.35
545.83	10635.39
546.00	8901.06
546.16	6204.76
546.33	4681.07
546.50	3623.15
546.67	3014.61
546.83	2773.53
547.00	2593.31
547.17	2429.48
547.34	2277.34
547.50	2335.85
547.67	2232.87
547.84	2129.89
548.00	2136.91
548.17	1930.94
548.34	1860.73
548.51	1886.47
548.67	1797.53
548.84	1694.55
549.01	1668.80
549.18	1682.85
549.34	1640.72
549.51	1544.75
549.68	1479.22
549.84	1373.89
550.01	1296.66
550.18	1425.39
550.34	1231.12
550.51	1210.06
550.68	1181.97
550.84	1039.20
551.01	1041.54
551.18	1137.50
551.34	1055.58
551.51	992.39
551.68	898.77
551.84	933.87
552.01	802.80
552.18	809.83
552.34	823.87
552.51	777.06
552.68	791.10
552.84	697.48
553.01	732.59
553.18	755.99
553.34	697.48
553.51	641.31
553.67	772.38
553.84	678.76
554.01	608.54
554.17	582.79
554.34	425.98
554.51	571.09
554.67	594.50
554.84	594.50
555.00	433.00
555.17	465.77
555.33	486.83
555.50	437.68
555.67	367.46
555.83	379.17
556.00	465.77
556.16	624.92
556.33	404.91
556.50	458.74
556.66	393.21
556.83	381.51
556.99	386.19
557.16	376.83
557.32	311.29
557.49	318.31
557.65	365.12
557.82	299.59
557.98	437.68
558.15	390.87
558.32	388.53
558.48	379.17
558.65	362.78
558.81	428.32
558.98	313.63
559.14	325.33
559.31	390.87
559.47	308.95
559.64	262.14
559.80	353.42
559.97	290.23
560.13	301.93
560.30	353.42
560.46	318.31
560.63	339.38
560.79	334.70
560.96	404.91
561.12	332.36
561.29	311.29
561.45	337.04
561.61	320.65
561.78	461.09
561.94	332.36
562.11	257.46
562.27	325.33
562.44	311.29
562.60	327.68
562.77	344.06
562.93	327.68
563.10	395.55
563.26	306.61
563.42	355.76
563.59	294.91
563.75	234.05
563.92	353.42
564.08	315.97
564.24	266.82
564.41	292.57
564.57	304.27
564.74	313.63
564.90	243.42
565.07	245.76
565.23	330.02
565.39	243.42
565.56	332.36
565.72	290.23
565.88	224.69
566.05	339.38
566.21	325.33
566.38	348.74
566.54	234.05
566.70	224.69
566.87	210.65
567.03	234.05
567.19	236.39
567.36	215.33
567.52	245.76
567.68	301.93
567.85	337.04
568.01	241.08
568.17	252.78
568.34	215.33
568.50	304.27
568.66	257.46
568.83	362.78
568.99	238.73
569.15	360.44
569.32	304.27
569.48	313.63
569.64	339.38
569.81	252.78
569.97	273.84
570.13	276.18
570.30	255.12
570.46	208.31
570.62	248.10
570.78	227.03
570.95	217.67
571.11	243.42
571.27	369.80
571.43	257.46
571.60	196.60
571.76	175.54
571.92	273.84
572.09	278.52
572.25	299.59
572.41	285.55
572.57	269.16
572.74	332.36
572.90	243.42
573.06	229.37
573.22	266.82
573.38	353.42
573.55	278.52
573.71	330.02
573.87	344.06
574.03	252.78
574.20	266.82
574.36	360.44
574.52	259.80
574.68	266.82
574.84	322.99
575.01	290.23
575.17	348.74
575.33	379.17
575.49	264.48
575.65	280.86
575.82	337.04
575.98	334.70
576.14	327.68
576.30	692.80
576.46	1579.86
576.62	1982.43
576.79	2017.54
576.95	1476.88
577.11	990.05
577.27	856.64
577.43	641.31
577.59	451.72
577.75	440.02
577.92	376.83
578.08	411.93
578.24	447.04
578.40	669.39
578.56	1516.67
578.72	1792.85
578.88	1928.60
579.04	1493.26
579.21	990.05
579.37	854.30
579.53	763.01
579.69	704.50
579.85	854.30
580.01	891.74
580.17	842.59
580.33	837.91
580.49	706.84
580.65	613.22
580.82	596.84
580.98	589.82
581.14	664.71
581.30	657.69
581.46	636.63
581.62	676.41
581.78	730.25
581.94	760.67
582.10	840.25
582.26	833.23
582.42	896.43
582.58	971.32
582.74	1032.18
582.90	924.51
583.06	1041.54
583.22	903.45
583.38	903.45
583.54	830.89
583.70	887.06
583.86	856.64
584.02	887.06
584.18	926.85
584.34	786.42
584.50	856.64
584.66	704.50
584.82	842.59
584.98	828.55
585.14	727.91
585.30	931.53
585.46	802.80
585.62	692.80
585.78	725.57
585.94	767.70
586.10	781.74
586.26	751.31
586.42	987.71
586.58	1160.91
586.74	1207.72
586.90	1430.07
587.06	1610.29
587.22	1540.07
587.38	1394.96
587.54	1181.97
587.70	1109.41
587.86	987.71
588.02	849.61
588.18	772.38
588.34	697.48
588.49	634.29
588.65	641.31
588.81	627.26
588.97	561.73
589.13	606.20
589.29	554.71
589.45	557.05
589.61	617.90
589.77	615.56
589.93	575.77
590.08	627.26
590.24	653.01
590.40	636.63
590.56	704.50
590.72	624.92
590.88	631.94
591.04	692.80
591.20	711.52
591.35	730.25
591.51	683.44
591.67	688.12
591.83	847.27
591.99	887.06
592.15	908.13
592.31	966.64
592.46	931.53
592.62	1165.59
592.78	1172.61
592.94	1116.44
593.10	1170.27
593.26	1156.22
593.41	1043.88
593.57	863.66
593.73	861.32
593.89	774.72
594.05	669.39
594.20	631.94
594.36	615.56
594.52	517.26
594.68	500.87
594.84	566.41
594.99	561.73
595.15	547.69
595.31	629.60
595.47	547.69
595.62	484.49
595.78	507.90
595.94	465.77
596.10	564.07
596.25	571.09
596.41	552.37
596.57	535.98
596.73	500.87
596.88	484.49
597.04	512.58
597.20	451.72
597.36	526.62
597.51	507.90
597.67	587.47
597.83	526.62
597.99	634.29
598.14	681.10
598.30	636.63
598.46	772.38
598.61	725.57
598.77	758.33
598.93	800.46
599.09	770.04
599.24	800.46
599.40	748.97
599.56	681.10
599.71	674.07
599.87	610.88
600.03	671.73
600.18	732.59
600.34	634.29
600.50	458.74
600.65	449.38
600.81	571.09
600.97	496.19
601.12	437.68
601.28	470.45
601.44	468.11
601.59	414.27
601.75	479.81
601.91	472.79
602.06	444.70
602.22	489.17
602.37	444.70
602.53	348.74
602.69	435.34
602.84	397.89
603.00	447.04
603.16	477.47
603.31	393.21
603.47	423.64
603.62	358.10
603.78	456.40
603.94	351.08
604.09	400.23
604.25	402.57
604.40	397.89
604.56	411.93
604.71	526.62
604.87	433.00
605.03	449.38
605.18	477.47
605.34	454.06
605.49	521.94
605.65	465.77
605.80	517.26
605.96	496.19
606.12	547.69
606.27	540.66
606.43	603.86
606.58	575.77
606.74	519.60
606.89	601.52
607.05	610.88
607.20	713.86
607.36	638.97
607.51	678.76
607.67	629.60
607.82	786.42
607.98	861.32
608.13	826.21
608.29	772.38
608.44	1022.81
608.60	1090.69
608.75	1116.44
608.91	1203.04
609.06	1324.74
609.22	1441.77
609.37	1521.35
609.53	1722.63
609.68	1884.13
609.84	2001.16
609.99	2392.03
610.15	2965.46
610.30	3669.96
610.46	4648.30
610.61	5827.93
610.76	7442.90
610.92	8641.26
611.07	9177.24
611.23	9504.92
611.38	8730.20
611.54	7728.45
611.69	6576.91
611.84	5434.72
612.00	4601.49
612.15	4049.13
612.31	3583.36
612.46	3185.47
612.62	3009.93
612.77	2789.92
612.92	2717.36
613.08	2471.61
613.23	2518.42
613.39	2361.60
613.54	2179.04
613.69	2239.89
613.85	2209.47
614.00	2293.72
614.15	2331.17
614.31	2146.27
614.46	2183.72
614.62	2045.63
614.77	1970.73
614.92	1867.75
615.08	1741.36
615.23	1610.29
615.38	1568.16
615.54	1394.96
615.69	1275.59
615.84	1238.14
616.00	1088.35
616.15	1137.50
616.30	1015.79
616.46	1020.47
616.61	929.19
616.76	851.96
616.92	847.27
617.07	798.12
617.22	833.23
617.37	868.34
617.53	713.86
617.68	690.46
617.83	702.16
617.99	620.24
618.14	690.46
618.29	711.52
618.45	699.82
618.60	636.63
618.75	650.67
618.90	587.47
619.06	667.05
619.21	683.44
619.36	587.47
619.51	587.47
619.67	627.26
619.82	627.26
619.97	585.13
620.12	557.05
620.28	674.07
620.43	624.92
620.58	683.44
620.73	695.14
620.89	695.14
621.04	781.74
621.19	753.65
621.34	678.76
621.49	592.16
621.65	653.01
621.80	641.31
621.95	669.39
622.10	620.24
622.25	606.20
622.41	648.33
622.56	568.75
622.71	709.18
622.86	734.93
623.01	692.80
623.16	744.29
623.32	720.88
623.47	821.53
623.62	667.05
623.77	716.20
623.92	690.46
624.07	706.84
624.23	641.31
624.38	678.76
624.53	704.50
624.68	692.80
624.83	758.33
624.98	662.37
625.13	720.88
625.29	739.61
625.44	709.18
625.59	842.59
625.74	683.44
625.89	692.80
626.04	664.71
626.19	704.50
626.34	690.46
626.49	720.88
626.65	674.07
626.80	608.54
626.95	657.69
627.10	613.22
627.25	716.20
627.40	617.90
627.55	606.20
627.70	589.82
627.85	648.33
628.00	615.56
628.15	587.47
628.30	631.94
628.45	592.16
628.60	585.13
628.76	648.33
628.91	561.73
629.06	648.33
629.21	617.90
629.36	648.33
629.51	730.25
629.66	791.10
629.81	800.46
629.96	819.19
630.11	903.45
630.26	936.21
630.41	990.05
630.56	1130.48
630.71	1067.28
630.86	1118.78
631.01	1046.22
631.16	1050.90
631.31	973.66
631.46	940.90
631.61	702.16
631.76	641.31
631.91	603.86
632.06	573.43
632.21	421.30
632.36	402.57
632.51	376.83
632.66	390.87
632.81	315.97
632.96	416.62
633.10	374.49
633.25	325.33
633.40	404.91
633.55	283.20
633.70	318.31
633.85	297.25
634.00	217.67
634.15	304.27
634.30	353.42
634.45	212.99
634.60	292.57
634.75	280.86
634.90	313.63
635.05	304.27
635.19	285.55
635.34	262.14
635.49	297.25
635.64	294.91
635.79	315.97
635.94	290.23
636.09	332.36
636.24	315.97
636.39	234.05
636.53	283.20
636.68	252.78
636.83	299.59
636.98	330.02
637.13	259.80
637.28	201.29
637.43	227.03
637.57	227.03
637.72	273.84
637.87	290.23
638.02	238.73
638.17	271.50
638.32	308.95
638.46	297.25
638.61	315.97
638.76	266.82
638.91	264.48
639.06	227.03
639.20	318.31
639.35	327.68
639.50	187.24
639.65	292.57
639.80	236.39
639.94	273.84
640.09	264.48
640.24	189.58
640.39	250.44
640.54	180.22
640.68	196.60
640.83	266.82
640.98	252.78
641.13	234.05
641.27	266.82
641.42	234.05
641.57	292.57
641.72	257.46
641.86	196.60
642.01	217.67
642.16	198.95
642.31	231.71
642.45	334.70
642.60	259.80
642.75	210.65
642.90	276.18
643.04	259.80
643.19	271.50
643.34	320.65
643.48	250.44
643.63	196.60
643.78	248.10
643.93	330.02
644.07	248.10
644.22	220.01
644.37	187.24
644.51	191.92
644.66	276.18
644.81	166.18
644.95	280.86
645.10	252.78
645.25	170.86
645.39	294.91
645.54	194.26
645.69	285.55
645.83	177.88
645.98	245.76
646.13	222.35
646.27	147.45
646.42	266.82
646.57	229.37
646.71	252.78
646.86	238.73
647.00	161.50
647.15	224.69
647.30	191.92
647.44	154.48
647.59	205.97
647.74	231.71
647.88	250.44
648.03	166.18
648.17	182.56
648.32	262.14
648.47	264.48
648.61	203.63
648.76	154.48
648.90	166.18
649.05	243.42
649.20	248.10
649.34	210.65
649.49	198.95
649.63	308.95
649.78	278.52
649.92	339.38
650.07	346.40
650.21	447.04
650.36	425.98
650.51	442.36
650.65	470.45
650.80	330.02
650.94	379.17
651.09	332.36
651.23	313.63
651.38	313.63
651.52	351.08
651.67	290.23
651.81	341.72
651.96	306.61
652.10	287.89
652.25	243.42
652.39	266.82
652.54	262.14
652.68	299.59
652.83	285.55
652.97	294.91
653.12	304.27
653.26	297.25
653.41	248.10
653.55	245.76
653.70	250.44
653.84	161.50
653.99	198.95
654.13	257.46
654.27	252.78
654.42	217.67
654.56	212.99
654.71	241.08
654.85	292.57
655.00	194.26
655.14	257.46
655.29	184.90
655.43	234.05
655.57	255.12
655.72	203.63
655.86	257.46
656.01	194.26
656.15	149.79
656.30	229.37
656.44	175.54
656.58	255.12
656.73	248.10
656.87	315.97
657.01	255.12
657.16	320.65
657.30	191.92
657.45	248.10
657.59	189.58
657.73	318.31
657.88	208.31
658.02	290.23
658.16	210.65
658.31	243.42
658.45	231.71
658.60	229.37
658.74	217.67
658.88	208.31
659.03	182.56
659.17	102.98
659.31	191.92
659.46	224.69
659.60	175.54
659.74	229.37
659.89	252.78
660.03	222.35
660.17	264.48
660.32	220.01
660.46	297.25
660.60	252.78
660.74	285.55
660.89	215.33
661.03	175.54
661.17	180.22
661.32	182.56
661.46	208.31
661.60	264.48
661.74	287.89
661.89	313.63
662.03	339.38
662.17	348.74
662.31	330.02
662.46	262.14
662.60	285.55
662.74	236.39
662.88	215.33
663.03	287.89
663.17	248.10
663.31	257.46
663.45	201.29
663.60	154.48
663.74	248.10
663.88	177.88
664.02	262.14
664.17	222.35
664.31	201.29
664.45	229.37
664.59	168.52
664.73	159.16
664.88	245.76
665.02	238.73
665.16	248.10
665.30	243.42
665.44	145.11
665.59	224.69
665.73	294.91
665.87	224.69
666.01	215.33
666.15	255.12
666.29	222.35
666.44	262.14
666.58	255.12
666.72	161.50
666.86	149.79
667.00	191.92
667.14	194.26
667.28	313.63
667.43	191.92
667.57	154.48
667.71	198.95
667.85	220.01
667.99	266.82
668.13	180.22
668.27	243.42
668.41	276.18
668.56	210.65
668.70	217.67
668.84	196.60
668.98	177.88
669.12	191.92
669.26	154.48
669.40	191.92
669.54	170.86
669.68	212.99
669.82	227.03
669.96	299.59
670.10	187.24
670.25	231.71
670.39	166.18
670.53	208.31
670.67	229.37
670.81	184.90
670.95	168.52
671.09	189.58
671.23	210.65
671.37	210.65
671.51	241.08
671.65	231.71
671.79	241.08
671.93	131.07
672.07	196.60
672.21	117.03
672.35	128.73
672.49	201.29
672.63	173.20
672.77	234.05
672.91	182.56
673.05	222.35
673.19	227.03
673.33	154.48
673.47	215.33
673.61	241.08
673.75	182.56
673.89	154.48
674.03	243.42
674.17	168.52
674.31	166.18
674.45	203.63
674.59	161.50
674.73	131.07
674.87	187.24
675.01	177.88
675.15	201.29
675.29	264.48
675.43	224.69
675.56	222.35
675.70	163.84
675.84	187.24
675.98	198.95
676.12	140.43
676.26	173.20
676.40	208.31
676.54	177.88
676.68	163.84
676.82	252.78
676.96	170.86
677.10	142.77
677.23	194.26
677.37	147.45
677.51	201.29
677.65	215.33
677.79	170.86
677.93	107.66
678.07	163.84
678.21	208.31
678.34	180.22
678.48	147.45
678.62	198.95
678.76	187.24
678.90	194.26
679.04	140.43
679.18	154.48
679.31	198.95
679.45	81.92
679.59	180.22
679.73	187.24
679.87	128.73
680.00	177.88
680.14	212.99
680.28	238.73
680.42	180.22
680.56	243.42
680.70	191.92
680.83	217.67
680.97	180.22
681.11	231.71
681.25	191.92
681.39	187.24
681.52	138.09
681.66	166.18
681.80	208.31
681.94	145.11
682.07	147.45
682.21	156.82
682.35	166.18
682.49	149.79
682.62	135.75
682.76	135.75
682.90	163.84
683.04	248.10
683.17	205.97
683.31	173.20
683.45	217.67
683.59	189.58
683.72	198.95
683.86	224.69
684.00	133.41
684.13	266.82
684.27	161.50
684.41	189.58
684.55	184.90
684.68	119.37
684.82	196.60
684.96	121.71
685.09	161.50
685.23	117.03
685.37	191.92
685.50	257.46
685.64	128.73
685.78	189.58
685.91	208.31
686.05	224.69
686.19	180.22
686.32	243.42
686.46	182.56
686.60	117.03
686.73	255.12
686.87	180.22
687.01	166.18
687.14	194.26
687.28	191.92
687.42	191.92
687.55	175.54
687.69	301.93
687.82	208.31
687.96	180.22
688.10	161.50
688.23	159.16
688.37	241.08
688.50	217.67
688.64	294.91
688.78	210.65
688.91	187.24
689.05	145.11
689.18	222.35
689.32	189.58
689.46	201.29
689.59	227.03
689.73	182.56
689.86	140.43
690.00	142.77
690.13	170.86
690.27	74.90
690.41	212.99
690.54	210.65
690.68	163.84
690.81	156.82
690.95	201.29
691.08	166.18
691.22	170.86
691.35	112.35
691.49	173.20
691.62	189.58
691.76	161.50
691.89	224.69
692.03	156.82
692.16	147.45
692.30	149.79
692.43	161.50
692.57	105.32
692.70	102.98
692.84	114.69
692.97	198.95
693.11	138.09
693.24	203.63
693.38	170.86
693.51	217.67
693.65	212.99
693.78	149.79
693.92	159.16
694.05	173.20
694.19	210.65
694.32	210.65
694.45	147.45
694.59	140.43
694.72	126.39
694.86	124.05
694.99	161.50
695.13	117.03
695.26	91.28
695.39	191.92
695.53	243.42
695.66	180.22
695.80	187.24
695.93	126.39
696.07	77.24
696.20	147.45
696.33	203.63
696.47	149.79
696.60	112.35
696.73	98.30
696.87	121.71
697.00	210.65
697.14	107.66
697.27	126.39
697.40	212.99
697.54	154.48
697.67	114.69
697.80	145.11
697.94	98.30
698.07	201.29
698.21	74.90
698.34	154.48
698.47	142.77
698.61	91.28
698.74	140.43
698.87	159.16
699.01	91.28
699.14	124.05
699.27	124.05
699.40	208.31
699.54	138.09
699.67	102.98
699.80	107.66
699.94	142.77
700.07	16.38
700.20	145.11
700.34	182.56
700.47	88.94
700.60	30.43
700.73	124.05
700.87	222.35
701.00	156.82
701.13	194.26
701.26	156.82
701.40	79.58
701.53	119.37
701.66	60.85
701.79	175.54
701.93	105.32
702.06	152.13
702.19	128.73
702.32	201.29
702.46	198.95
702.59	112.35
702.72	86.60
702.85	154.48
702.99	110.01
703.12	154.48
703.25	177.88
703.38	149.79
703.51	177.88
703.65	121.71
703.78	65.54
703.91	152.13
704.04	224.69
704.17	135.75
704.31	105.32
704.44	187.24
704.57	107.66
704.70	145.11
704.83	138.09
704.96	110.01
705.10	208.31
705.23	177.88
>>>>>End Processed Spectral Data<<<<<
