SpectraSuite Data File
++++++++++++++++++++++++++++++++++++
Date: Fri Oct 04 11:41:52 GMT-05:00 2013
User: price-jones
Dark Spectrum Present: No
Reference Spectrum Present: No
Number of Sampled Component Spectra: 1
Spectrometers: USB2+H05261
Integration Time (usec): 100000 (USB2+H05261)
Spectra Averaged: 1 (USB2+H05261)
Boxcar Smoothing: 0 (USB2+H05261)
Correct for Electrical Dark: No (USB2+H05261)
Strobe/Lamp Enabled: No (USB2+H05261)
Correct for Detector Non-linearity: No (USB2+H05261)
Correct for Stray Light: No (USB2+H05261)
Number of Pixels in Processed Spectrum: 2048
>>>>>Begin Processed Spectral Data<<<<<
365.73	0.00
365.92	0.00
366.12	0.00
366.32	0.00
366.52	0.00
366.72	0.00
366.91	0.00
367.11	0.00
367.31	0.00
367.51	0.00
367.70	0.00
367.90	0.00
368.10	0.00
368.30	0.00
368.49	0.00
368.69	0.00
368.89	0.00
369.09	0.00
369.28	0.00
369.48	0.00
369.68	0.00
369.87	0.00
370.07	0.00
370.27	9.36
370.47	4.68
370.66	21.06
370.86	63.19
371.06	119.37
371.25	77.24
371.45	81.92
371.65	63.19
371.84	63.19
372.04	98.30
372.24	51.49
372.44	147.45
372.63	128.73
372.83	135.75
373.03	42.13
373.22	100.64
373.42	44.47
373.62	81.92
373.81	142.77
374.01	72.56
374.21	156.82
374.40	126.39
374.60	156.82
374.79	140.43
374.99	88.94
375.19	145.11
375.38	107.66
375.58	126.39
375.78	95.96
375.97	107.66
376.17	154.48
376.37	117.03
376.56	102.98
376.76	175.54
376.95	135.75
377.15	117.03
377.35	51.49
377.54	58.51
377.74	170.86
377.93	126.39
378.13	110.01
378.33	72.56
378.52	121.71
378.72	142.77
378.91	149.79
379.11	114.69
379.31	95.96
379.50	86.60
379.70	91.28
379.89	152.13
380.09	107.66
380.28	58.51
380.48	117.03
380.68	74.90
380.87	72.56
381.07	79.58
381.26	95.96
381.46	156.82
381.65	128.73
381.85	86.60
382.04	49.15
382.24	140.43
382.43	95.96
382.63	128.73
382.83	145.11
383.02	163.84
383.22	161.50
383.41	175.54
383.61	131.07
383.80	163.84
384.00	107.66
384.19	28.09
384.39	135.75
384.58	119.37
384.78	161.50
384.97	147.45
385.17	77.24
385.36	107.66
385.56	117.03
385.75	107.66
385.95	105.32
386.14	126.39
386.34	88.94
386.53	107.66
386.72	177.88
386.92	142.77
387.11	163.84
387.31	147.45
387.50	79.58
387.70	105.32
387.89	154.48
388.09	133.41
388.28	30.43
388.48	39.79
388.67	105.32
388.86	105.32
389.06	152.13
389.25	112.35
389.45	163.84
389.64	102.98
389.84	98.30
390.03	44.47
390.22	138.09
390.42	86.60
390.61	112.35
390.81	81.92
391.00	107.66
391.19	166.18
391.39	56.17
391.58	138.09
391.78	138.09
391.97	128.73
392.16	173.20
392.36	173.20
392.55	173.20
392.75	114.69
392.94	121.71
393.13	112.35
393.33	184.90
393.52	114.69
393.71	163.84
393.91	79.58
394.10	32.77
394.29	112.35
394.49	86.60
394.68	133.41
394.88	170.86
395.07	119.37
395.26	126.39
395.46	91.28
395.65	128.73
395.84	168.52
396.04	187.24
396.23	100.64
396.42	203.63
396.62	119.37
396.81	152.13
397.00	60.85
397.19	196.60
397.39	163.84
397.58	131.07
397.77	208.31
397.97	105.32
398.16	145.11
398.35	114.69
398.55	168.52
398.74	149.79
398.93	117.03
399.12	166.18
399.32	128.73
399.51	159.16
399.70	135.75
399.90	112.35
400.09	110.01
400.28	168.52
400.47	117.03
400.67	180.22
400.86	124.05
401.05	161.50
401.24	140.43
401.44	152.13
401.63	182.56
401.82	102.98
402.01	166.18
402.21	100.64
402.40	107.66
402.59	140.43
402.78	161.50
402.97	175.54
403.17	126.39
403.36	187.24
403.55	280.86
403.74	433.00
403.93	1338.79
404.13	2511.39
404.32	2913.97
404.51	2403.73
404.70	1378.58
404.89	543.00
405.09	264.48
405.28	191.92
405.47	142.77
405.66	182.56
405.85	189.58
406.05	156.82
406.24	159.16
406.43	142.77
406.62	84.26
406.81	220.01
407.00	325.33
407.20	430.66
407.39	449.38
407.58	472.79
407.77	337.04
407.96	241.08
408.15	177.88
408.34	147.45
408.54	159.16
408.73	205.97
408.92	119.37
409.11	140.43
409.30	147.45
409.49	168.52
409.68	131.07
409.87	142.77
410.07	152.13
410.26	100.64
410.45	112.35
410.64	187.24
410.83	95.96
411.02	145.11
411.21	154.48
411.40	98.30
411.59	224.69
411.78	131.07
411.98	173.20
412.17	91.28
412.36	170.86
412.55	168.52
412.74	264.48
412.93	203.63
413.12	149.79
413.31	128.73
413.50	163.84
413.69	196.60
413.88	177.88
414.07	152.13
414.26	220.01
414.45	161.50
414.64	175.54
414.83	156.82
415.02	212.99
415.22	201.29
415.41	210.65
415.60	205.97
415.79	180.22
415.98	201.29
416.17	154.48
416.36	236.39
416.55	208.31
416.74	175.54
416.93	194.26
417.12	91.28
417.31	210.65
417.50	212.99
417.69	227.03
417.88	154.48
418.07	203.63
418.26	238.73
418.45	208.31
418.64	217.67
418.83	220.01
419.02	250.44
419.21	175.54
419.39	117.03
419.58	110.01
419.77	194.26
419.96	170.86
420.15	250.44
420.34	110.01
420.53	142.77
420.72	173.20
420.91	112.35
421.10	205.97
421.29	217.67
421.48	191.92
421.67	250.44
421.86	198.95
422.05	175.54
422.24	215.33
422.43	166.18
422.61	168.52
422.80	170.86
422.99	191.92
423.18	154.48
423.37	234.05
423.56	236.39
423.75	175.54
423.94	159.16
424.13	203.63
424.32	222.35
424.50	220.01
424.69	194.26
424.88	194.26
425.07	243.42
425.26	241.08
425.45	252.78
425.64	173.20
425.83	166.18
426.01	224.69
426.20	168.52
426.39	194.26
426.58	250.44
426.77	231.71
426.96	287.89
427.15	170.86
427.33	208.31
427.52	173.20
427.71	212.99
427.90	236.39
428.09	208.31
428.28	198.95
428.46	212.99
428.65	215.33
428.84	306.61
429.03	252.78
429.22	184.90
429.40	257.46
429.59	205.97
429.78	227.03
429.97	194.26
430.16	243.42
430.34	231.71
430.53	205.97
430.72	208.31
430.91	210.65
431.10	161.50
431.28	175.54
431.47	276.18
431.66	278.52
431.85	227.03
432.03	341.72
432.22	285.55
432.41	238.73
432.60	250.44
432.79	255.12
432.97	238.73
433.16	271.50
433.35	250.44
433.54	306.61
433.72	362.78
433.91	372.15
434.10	428.32
434.28	416.62
434.47	475.13
434.66	491.51
434.85	695.14
435.03	2289.04
435.22	7606.74
435.41	13121.04
435.59	11290.74
435.78	7396.09
435.97	3691.02
436.16	1458.15
436.34	617.90
436.53	425.98
436.72	360.44
436.90	280.86
437.09	381.51
437.28	320.65
437.46	243.42
437.65	308.95
437.84	330.02
438.02	327.68
438.21	234.05
438.40	252.78
438.58	271.50
438.77	290.23
438.96	252.78
439.14	252.78
439.33	320.65
439.52	248.10
439.70	287.89
439.89	266.82
440.08	337.04
440.26	238.73
440.45	273.84
440.63	308.95
440.82	283.20
441.01	315.97
441.19	252.78
441.38	250.44
441.57	201.29
441.75	344.06
441.94	264.48
442.12	236.39
442.31	266.82
442.50	283.20
442.68	301.93
442.87	292.57
443.05	248.10
443.24	283.20
443.43	257.46
443.61	330.02
443.80	264.48
443.98	243.42
444.17	236.39
444.35	266.82
444.54	269.16
444.73	348.74
444.91	215.33
445.10	212.99
445.28	372.15
445.47	262.14
445.65	229.37
445.84	257.46
446.02	229.37
446.21	325.33
446.39	278.52
446.58	351.08
446.77	318.31
446.95	280.86
447.14	252.78
447.32	341.72
447.51	304.27
447.69	337.04
447.88	332.36
448.06	304.27
448.25	276.18
448.43	224.69
448.62	217.67
448.80	234.05
448.99	330.02
449.17	344.06
449.36	243.42
449.54	308.95
449.73	252.78
449.91	322.99
450.10	318.31
450.28	238.73
450.46	327.68
450.65	362.78
450.83	304.27
451.02	327.68
451.20	294.91
451.39	308.95
451.57	259.80
451.76	311.29
451.94	212.99
452.13	264.48
452.31	294.91
452.49	322.99
452.68	266.82
452.86	311.29
453.05	339.38
453.23	325.33
453.42	327.68
453.60	212.99
453.78	299.59
453.97	231.71
454.15	255.12
454.34	234.05
454.52	283.20
454.70	297.25
454.89	315.97
455.07	215.33
455.26	276.18
455.44	283.20
455.62	229.37
455.81	245.76
455.99	290.23
456.17	299.59
456.36	276.18
456.54	238.73
456.73	313.63
456.91	245.76
457.09	250.44
457.28	278.52
457.46	220.01
457.64	304.27
457.83	252.78
458.01	203.63
458.19	266.82
458.38	287.89
458.56	308.95
458.74	212.99
458.93	311.29
459.11	290.23
459.29	269.16
459.48	273.84
459.66	287.89
459.84	318.31
460.03	231.71
460.21	231.71
460.39	238.73
460.57	341.72
460.76	231.71
460.94	269.16
461.12	201.29
461.31	271.50
461.49	264.48
461.67	229.37
461.85	304.27
462.04	264.48
462.22	713.86
462.40	322.99
462.59	285.55
462.77	236.39
462.95	292.57
463.13	227.03
463.32	301.93
463.50	266.82
463.68	229.37
463.86	224.69
464.05	266.82
464.23	210.65
464.41	262.14
464.59	341.72
464.78	332.36
464.96	299.59
465.14	243.42
465.32	276.18
465.50	231.71
465.69	315.97
465.87	269.16
466.05	212.99
466.23	238.73
466.41	248.10
466.60	348.74
466.78	306.61
466.96	341.72
467.14	257.46
467.32	290.23
467.51	255.12
467.69	297.25
467.87	308.95
468.05	313.63
468.23	299.59
468.41	257.46
468.60	245.76
468.78	184.90
468.96	285.55
469.14	290.23
469.32	194.26
469.50	243.42
469.69	308.95
469.87	262.14
470.05	285.55
470.23	276.18
470.41	245.76
470.59	292.57
470.77	318.31
470.95	269.16
471.14	266.82
471.32	318.31
471.50	266.82
471.68	238.73
471.86	245.76
472.04	198.95
472.22	294.91
472.40	264.48
472.58	299.59
472.77	313.63
472.95	351.08
473.13	358.10
473.31	315.97
473.49	271.50
473.67	278.52
473.85	322.99
474.03	332.36
474.21	266.82
474.39	285.55
474.57	353.42
474.75	379.17
474.93	255.12
475.12	140.43
475.30	257.46
475.48	252.78
475.66	210.65
475.84	318.31
476.02	276.18
476.20	322.99
476.38	210.65
476.56	400.23
476.74	257.46
476.92	344.06
477.10	273.84
477.28	266.82
477.46	273.84
477.64	362.78
477.82	320.65
478.00	280.86
478.18	280.86
478.36	334.70
478.54	250.44
478.72	252.78
478.90	259.80
479.08	264.48
479.26	313.63
479.44	271.50
479.62	362.78
479.80	330.02
479.98	351.08
480.16	341.72
480.34	369.80
480.52	318.31
480.70	383.85
480.88	346.40
481.06	425.98
481.24	409.59
481.41	463.43
481.59	414.27
481.77	428.32
481.95	442.36
482.13	512.58
482.31	472.79
482.49	557.05
482.67	578.11
482.85	638.97
483.03	613.22
483.21	664.71
483.39	723.23
483.57	699.82
483.74	786.42
483.92	746.63
484.10	823.87
484.28	961.96
484.46	985.37
484.64	952.60
484.82	1032.18
485.00	1043.88
485.18	1146.86
485.35	1146.86
485.53	1184.31
485.71	1200.69
485.89	1233.46
486.07	1287.29
486.25	1362.19
486.43	1277.93
486.61	1329.42
486.78	1373.89
486.96	1376.24
487.14	1341.13
487.32	1376.24
487.50	1359.85
487.68	1242.82
487.85	1294.32
488.03	1282.61
488.21	1174.95
488.39	1240.48
488.57	1198.35
488.75	1163.25
488.92	1378.58
489.10	1203.04
489.28	1226.44
489.46	1071.97
489.64	1104.73
489.81	1050.90
489.99	1111.75
490.17	1006.43
490.35	1116.44
490.53	1032.18
490.70	1032.18
490.88	1013.45
491.06	1100.05
491.24	1097.71
491.41	1156.22
491.59	1097.71
491.77	1086.01
491.95	983.02
492.13	938.55
492.30	915.15
492.48	917.49
492.66	891.74
492.84	943.24
493.01	950.26
493.19	987.71
493.37	947.92
493.54	861.32
493.72	940.90
493.90	816.85
494.08	931.53
494.25	828.55
494.43	772.38
494.61	727.91
494.79	737.27
494.96	784.08
495.14	802.80
495.32	765.36
495.49	791.10
495.67	702.16
495.85	718.54
496.02	704.50
496.20	671.73
496.38	734.93
496.55	767.70
496.73	676.41
496.91	704.50
497.09	720.88
497.26	727.91
497.44	685.78
497.62	690.46
497.79	695.14
497.97	636.63
498.14	624.92
498.32	587.47
498.50	702.16
498.67	587.47
498.85	564.07
499.03	594.50
499.20	615.56
499.38	557.05
499.56	543.00
499.73	601.52
499.91	566.41
500.08	444.70
500.26	557.05
500.44	442.36
500.61	528.96
500.79	505.56
500.97	528.96
501.14	552.37
501.32	482.15
501.49	514.92
501.67	470.45
501.84	404.91
502.02	456.40
502.20	519.60
502.37	388.53
502.55	449.38
502.72	365.12
502.90	411.93
503.07	397.89
503.25	346.40
503.43	311.29
503.60	355.76
503.78	395.55
503.95	372.15
504.13	304.27
504.30	365.12
504.48	346.40
504.65	404.91
504.83	369.80
505.01	369.80
505.18	383.85
505.36	386.19
505.53	276.18
505.71	301.93
505.88	383.85
506.06	348.74
506.23	308.95
506.41	292.57
506.58	290.23
506.76	299.59
506.93	327.68
507.11	318.31
507.28	351.08
507.46	222.35
507.63	311.29
507.81	325.33
507.98	299.59
508.16	292.57
508.33	334.70
508.50	341.72
508.68	334.70
508.85	315.97
509.03	346.40
509.20	313.63
509.38	355.76
509.55	308.95
509.73	374.49
509.90	355.76
510.08	311.29
510.25	283.20
510.42	264.48
510.60	320.65
510.77	341.72
510.95	308.95
511.12	276.18
511.30	299.59
511.47	334.70
511.64	334.70
511.82	287.89
511.99	269.16
512.17	339.38
512.34	273.84
512.51	294.91
512.69	360.44
512.86	348.74
513.04	259.80
513.21	273.84
513.38	294.91
513.56	325.33
513.73	280.86
513.90	217.67
514.08	304.27
514.25	355.76
514.43	297.25
514.60	266.82
514.77	290.23
514.95	285.55
515.12	255.12
515.29	266.82
515.47	292.57
515.64	297.25
515.81	276.18
515.99	334.70
516.16	334.70
516.33	285.55
516.51	236.39
516.68	212.99
516.85	285.55
517.03	245.76
517.20	278.52
517.37	332.36
517.54	304.27
517.72	266.82
517.89	238.73
518.06	250.44
518.24	259.80
518.41	250.44
518.58	311.29
518.75	344.06
518.93	297.25
519.10	313.63
519.27	322.99
519.45	262.14
519.62	297.25
519.79	308.95
519.96	236.39
520.14	229.37
520.31	348.74
520.48	330.02
520.65	283.20
520.83	266.82
521.00	365.12
521.17	306.61
521.34	322.99
521.52	292.57
521.69	290.23
521.86	283.20
522.03	322.99
522.20	273.84
522.38	266.82
522.55	297.25
522.72	308.95
522.89	330.02
523.07	327.68
523.24	313.63
523.41	283.20
523.58	269.16
523.75	283.20
523.92	332.36
524.10	238.73
524.27	285.55
524.44	241.08
524.61	294.91
524.78	189.58
524.96	245.76
525.13	330.02
525.30	374.49
525.47	313.63
525.64	308.95
525.81	266.82
525.98	337.04
526.16	250.44
526.33	299.59
526.50	320.65
526.67	262.14
526.84	367.46
527.01	285.55
527.18	283.20
527.36	238.73
527.53	341.72
527.70	287.89
527.87	360.44
528.04	390.87
528.21	271.50
528.38	348.74
528.55	315.97
528.72	379.17
528.89	374.49
529.07	351.08
529.24	358.10
529.41	318.31
529.58	276.18
529.75	285.55
529.92	376.83
530.09	341.72
530.26	395.55
530.43	376.83
530.60	409.59
530.77	306.61
530.94	386.19
531.11	362.78
531.28	337.04
531.46	414.27
531.63	395.55
531.80	327.68
531.97	402.57
532.14	470.45
532.31	514.92
532.48	554.71
532.65	592.16
532.82	702.16
532.99	823.87
533.16	889.40
533.33	856.64
533.50	821.53
533.67	683.44
533.84	613.22
534.01	554.71
534.18	524.28
534.35	489.17
534.52	554.71
534.69	676.41
534.86	606.20
535.03	669.39
535.20	634.29
535.37	617.90
535.54	702.16
535.71	720.88
535.88	772.38
536.05	713.86
536.22	802.80
536.38	877.70
536.55	994.73
536.72	1167.93
536.89	1156.22
537.06	1275.59
537.23	1425.39
537.40	1497.94
537.57	1584.54
537.74	1664.12
537.91	1734.34
538.08	1750.72
538.25	1762.42
538.42	1729.66
538.59	1844.34
538.75	1743.70
538.92	2031.58
539.09	2263.30
539.26	2441.18
539.43	2670.55
539.60	2956.10
539.77	3288.45
539.94	3719.11
540.11	4049.13
540.28	4416.59
540.44	4802.78
540.61	5219.39
540.78	5933.26
540.95	7344.60
541.12	8491.46
541.29	9415.98
541.46	9425.34
541.62	9329.38
541.79	9156.18
541.96	8552.32
542.13	7932.08
542.30	7438.22
542.47	7250.98
542.63	6864.79
542.80	6665.85
542.97	6574.56
543.14	6476.26
543.31	6415.41
543.48	6626.06
543.64	6815.64
543.81	6527.75
543.98	6729.04
544.15	6616.69
544.32	6696.27
544.48	6738.40
544.65	6511.37
544.82	6539.46
544.99	6686.91
545.16	6796.92
545.32	7449.93
545.49	14607.28
545.66	22656.39
545.83	25186.50
546.00	20585.01
546.16	14328.76
546.33	10335.81
546.50	7819.73
546.67	6485.62
546.83	6054.97
547.00	5715.59
547.17	5397.28
547.34	5083.64
547.50	5076.62
547.67	4751.29
547.84	4704.48
548.00	4507.87
548.17	4355.74
548.34	4079.55
548.51	4100.62
548.67	4044.45
548.84	3744.86
549.01	3438.25
549.18	3328.24
549.34	3304.84
549.51	3176.11
549.68	2960.78
549.84	2885.88
550.01	2663.53
550.18	2670.55
550.34	2548.84
550.51	2389.69
550.68	2394.37
550.84	2216.49
551.01	2197.76
551.18	2019.88
551.34	1921.58
551.51	1900.52
551.68	1785.83
551.84	1706.25
552.01	1753.06
552.18	1612.63
552.34	1451.13
552.51	1490.92
552.68	1659.44
552.84	1441.77
553.01	1320.06
553.18	1343.47
553.34	1299.00
553.51	1139.84
553.67	1212.40
553.84	1214.74
554.01	1071.97
554.17	1053.24
554.34	1029.84
554.51	966.64
554.67	922.17
554.84	875.36
555.00	807.48
555.17	819.19
555.33	795.78
555.50	739.61
555.67	660.03
555.83	655.35
556.00	704.50
556.16	814.51
556.33	718.54
556.50	638.97
556.66	627.26
556.83	606.20
556.99	564.07
557.16	573.43
557.32	503.22
557.49	620.24
557.65	571.09
557.82	449.38
557.98	463.43
558.15	510.24
558.32	449.38
558.48	454.06
558.65	465.77
558.81	528.96
558.98	444.70
559.14	477.47
559.31	566.41
559.47	430.66
559.64	430.66
559.80	414.27
559.97	435.34
560.13	440.02
560.30	360.44
560.46	374.49
560.63	416.62
560.79	400.23
560.96	465.77
561.12	461.09
561.29	472.79
561.45	402.57
561.61	470.45
561.78	503.22
561.94	447.04
562.11	374.49
562.27	374.49
562.44	390.87
562.60	390.87
562.77	404.91
562.93	465.77
563.10	374.49
563.26	397.89
563.42	482.15
563.59	421.30
563.75	355.76
563.92	418.96
564.08	397.89
564.24	486.83
564.41	442.36
564.57	320.65
564.74	280.86
564.90	397.89
565.07	358.10
565.23	372.15
565.39	273.84
565.56	400.23
565.72	395.55
565.88	330.02
566.05	393.21
566.21	393.21
566.38	341.72
566.54	390.87
566.70	332.36
566.87	322.99
567.03	365.12
567.19	374.49
567.36	339.38
567.52	341.72
567.68	374.49
567.85	386.19
568.01	411.93
568.17	383.85
568.34	372.15
568.50	416.62
568.66	337.04
568.83	428.32
568.99	404.91
569.15	360.44
569.32	308.95
569.48	341.72
569.64	358.10
569.81	369.80
569.97	287.89
570.13	353.42
570.30	297.25
570.46	262.14
570.62	264.48
570.78	255.12
570.95	287.89
571.11	290.23
571.27	390.87
571.43	271.50
571.60	346.40
571.76	299.59
571.92	271.50
572.09	287.89
572.25	264.48
572.41	318.31
572.57	306.61
572.74	325.33
572.90	351.08
573.06	301.93
573.22	355.76
573.38	301.93
573.55	334.70
573.71	337.04
573.87	351.08
574.03	369.80
574.20	367.46
574.36	372.15
574.52	386.19
574.68	315.97
574.84	374.49
575.01	330.02
575.17	376.83
575.33	393.21
575.49	456.40
575.65	404.91
575.82	451.72
575.98	561.73
576.14	543.00
576.30	1249.85
576.46	3325.90
576.62	4283.18
576.79	4145.09
576.95	3077.80
577.11	2069.03
577.27	1497.94
577.43	1029.84
577.59	894.08
577.75	692.80
577.92	613.22
578.08	678.76
578.24	660.03
578.40	1228.78
578.56	3215.90
578.72	4009.34
578.88	3829.12
579.04	2930.35
579.21	2111.16
579.37	1598.59
579.53	1284.95
579.69	1516.67
579.85	1661.78
580.01	1790.51
580.17	1612.63
580.33	1486.24
580.49	1378.58
580.65	1191.33
580.82	1100.05
580.98	1027.50
581.14	1090.69
581.30	1240.48
581.46	1350.49
581.62	1315.38
581.78	1366.87
581.94	1521.35
582.10	1551.78
582.26	1624.33
582.42	1652.42
582.58	1746.04
582.74	1678.16
582.90	1710.93
583.06	1792.85
583.22	1727.32
583.38	1680.50
583.54	1743.70
583.70	1856.04
583.86	1706.25
584.02	1750.72
584.18	1710.93
584.34	1685.19
584.50	1713.27
584.66	1675.82
584.82	1586.88
584.98	1619.65
585.14	1549.43
585.30	1554.12
585.46	1490.92
585.62	1446.45
585.78	1486.24
585.94	1451.13
586.10	1535.39
586.26	1631.35
586.42	1937.96
586.58	2125.21
586.74	2668.21
586.90	3061.42
587.06	3248.66
587.22	3204.19
587.38	2806.30
587.54	2394.37
587.70	2120.53
587.86	1802.21
588.02	1497.94
588.18	1376.24
588.34	1287.29
588.49	1078.99
588.65	1219.42
588.81	1078.99
588.97	1048.56
589.13	1006.43
589.29	997.07
589.45	1074.31
589.61	994.73
589.77	1109.41
589.93	1071.97
590.08	1076.65
590.24	1160.91
590.40	1210.06
590.56	1181.97
590.72	1074.31
590.88	1203.04
591.04	1235.80
591.20	1277.93
591.35	1369.21
591.51	1357.51
591.67	1362.19
591.83	1537.73
591.99	1614.97
592.15	1809.23
592.31	1888.81
592.46	2024.56
592.62	2214.15
592.78	2354.58
592.94	2352.24
593.10	2296.07
593.26	2176.70
593.41	2052.65
593.57	1891.15
593.73	1624.33
593.89	1488.58
594.05	1416.02
594.20	1270.91
594.36	1184.31
594.52	1100.05
594.68	1078.99
594.84	954.94
594.99	1039.20
595.15	1018.13
595.31	929.19
595.47	978.34
595.62	950.26
595.78	877.70
595.94	894.08
596.10	976.00
596.25	961.96
596.41	990.05
596.57	966.64
596.73	1006.43
596.88	896.43
597.04	950.26
597.20	922.17
597.36	905.79
597.51	950.26
597.67	1006.43
597.83	1011.11
597.99	1158.57
598.14	1210.06
598.30	1217.08
598.46	1343.47
598.61	1366.87
598.77	1458.15
598.93	1511.99
599.09	1521.35
599.24	1479.22
599.40	1514.33
599.56	1476.88
599.71	1334.11
599.87	1399.64
600.03	1203.04
600.18	1158.57
600.34	1116.44
600.50	990.05
600.65	959.62
600.81	915.15
600.97	903.45
601.12	863.66
601.28	875.36
601.44	725.57
601.59	678.76
601.75	781.74
601.91	662.37
602.06	681.10
602.22	732.59
602.37	753.65
602.53	725.57
602.69	655.35
602.84	692.80
603.00	690.46
603.16	676.41
603.31	622.58
603.47	774.72
603.62	613.22
603.78	730.25
603.94	774.72
604.09	711.52
604.25	727.91
604.40	744.29
604.56	732.59
604.71	814.51
604.87	830.89
605.03	847.27
605.18	805.14
605.34	821.53
605.49	887.06
605.65	830.89
605.80	760.67
605.96	823.87
606.12	931.53
606.27	999.41
606.43	990.05
606.58	1006.43
606.74	1170.27
606.89	1097.71
607.05	1198.35
607.20	1203.04
607.36	1327.08
607.51	1348.15
607.67	1427.73
607.82	1394.96
607.98	1631.35
608.13	1720.29
608.29	1834.98
608.44	1975.41
608.60	2008.18
608.75	2438.84
608.91	2656.51
609.06	2703.32
609.22	3054.40
609.37	3080.14
609.53	3620.81
609.68	4154.45
609.84	4559.36
609.99	5502.60
610.15	6616.69
610.30	8088.89
610.46	10274.95
610.61	13390.20
610.76	17053.14
610.92	20329.89
611.07	21762.30
611.23	21912.10
611.38	20531.18
611.54	17965.95
611.69	15199.44
611.84	12556.97
612.00	10490.28
612.15	9046.17
612.31	8053.78
612.46	7068.42
612.62	6834.36
612.77	6448.18
612.92	5781.12
613.08	5675.80
613.23	5401.96
613.39	5298.97
613.54	4858.95
613.69	4898.74
613.85	4943.21
614.00	4835.55
614.15	4966.62
614.31	4819.16
614.46	4676.39
614.62	4418.93
614.77	4369.78
614.92	4053.81
615.08	3653.58
615.23	3574.00
615.38	3307.18
615.54	2981.84
615.69	2780.56
615.84	2375.64
616.00	2267.98
616.15	2127.55
616.30	2071.37
616.46	1886.47
616.61	1844.34
616.76	1757.74
616.92	1652.42
617.07	1596.25
617.22	1509.65
617.37	1451.13
617.53	1500.28
617.68	1343.47
617.83	1355.17
617.99	1266.23
618.14	1249.85
618.29	1198.35
618.45	1291.98
618.60	1188.99
618.75	1160.91
618.90	1203.04
619.06	1156.22
619.21	1144.52
619.36	1109.41
619.51	1043.88
619.67	1130.48
619.82	1062.60
619.97	1207.72
620.12	1245.16
620.28	1181.97
620.43	1149.20
620.58	1233.46
620.73	1252.19
620.89	1303.68
621.04	1235.80
621.19	1296.66
621.34	1186.65
621.49	1184.31
621.65	1259.21
621.80	1231.12
621.95	1139.84
622.10	1289.64
622.25	1219.42
622.41	1153.88
622.56	1228.78
622.71	1296.66
622.86	1306.02
623.01	1242.82
623.16	1362.19
623.32	1224.10
623.47	1380.92
623.62	1273.25
623.77	1282.61
623.92	1376.24
624.07	1313.04
624.23	1235.80
624.38	1299.00
624.53	1320.06
624.68	1357.51
624.83	1359.85
624.98	1294.32
625.13	1334.11
625.29	1329.42
625.44	1409.00
625.59	1348.15
625.74	1425.39
625.89	1338.79
626.04	1341.13
626.19	1373.89
626.34	1275.59
626.49	1320.06
626.65	1273.25
626.80	1303.68
626.95	1270.91
627.10	1289.64
627.25	1191.33
627.40	1266.23
627.55	1165.59
627.70	1207.72
627.85	1277.93
628.00	1261.55
628.15	1188.99
628.30	1235.80
628.45	1228.78
628.60	1095.37
628.76	1146.86
628.91	1308.36
629.06	1224.10
629.21	1219.42
629.36	1373.89
629.51	1313.04
629.66	1331.76
629.81	1425.39
629.96	1547.09
630.11	1748.38
630.26	1996.48
630.41	2026.90
630.56	2298.41
630.71	2349.90
630.86	2380.32
631.01	2272.66
631.16	2225.85
631.31	1923.92
631.46	1647.74
631.61	1460.49
631.76	1270.91
631.91	1128.14
632.06	929.19
632.21	844.93
632.36	770.04
632.51	662.37
632.66	657.69
632.81	594.50
632.96	538.32
633.10	585.13
633.25	571.09
633.40	528.96
633.55	482.15
633.70	470.45
633.85	489.17
634.00	472.79
634.15	456.40
634.30	503.22
634.45	409.59
634.60	458.74
634.75	477.47
634.90	479.81
635.05	503.22
635.19	433.00
635.34	440.02
635.49	425.98
635.64	433.00
635.79	395.55
635.94	484.49
636.09	337.04
636.24	435.34
636.39	416.62
636.53	402.57
636.68	386.19
636.83	273.84
636.98	442.36
637.13	397.89
637.28	463.43
637.43	358.10
637.57	339.38
637.72	367.46
637.87	355.76
638.02	325.33
638.17	418.96
638.32	397.89
638.46	325.33
638.61	404.91
638.76	337.04
638.91	360.44
639.06	245.76
639.20	337.04
639.35	416.62
639.50	358.10
639.65	404.91
639.80	304.27
639.94	341.72
640.09	367.46
640.24	486.83
640.39	308.95
640.54	287.89
640.68	311.29
640.83	332.36
640.98	238.73
641.13	266.82
641.27	318.31
641.42	341.72
641.57	339.38
641.72	348.74
641.86	313.63
642.01	290.23
642.16	318.31
642.31	262.14
642.45	390.87
642.60	252.78
642.75	332.36
642.90	273.84
643.04	339.38
643.19	229.37
643.34	346.40
643.48	369.80
643.63	348.74
643.78	374.49
643.93	421.30
644.07	301.93
644.22	255.12
644.37	292.57
644.51	381.51
644.66	337.04
644.81	308.95
644.95	362.78
645.10	262.14
645.25	278.52
645.39	346.40
645.54	341.72
645.69	393.21
645.83	236.39
645.98	390.87
646.13	245.76
646.27	320.65
646.42	290.23
646.57	327.68
646.71	283.20
646.86	315.97
647.00	376.83
647.15	297.25
647.30	313.63
647.44	292.57
647.59	238.73
647.74	327.68
647.88	250.44
648.03	318.31
648.17	346.40
648.32	241.08
648.47	327.68
648.61	320.65
648.76	322.99
648.90	360.44
649.05	393.21
649.20	294.91
649.34	395.55
649.49	421.30
649.63	409.59
649.78	496.19
649.92	636.63
650.07	685.78
650.21	702.16
650.36	765.36
650.51	758.33
650.65	692.80
650.80	653.01
650.94	535.98
651.09	470.45
651.23	524.28
651.38	482.15
651.52	369.80
651.67	430.66
651.81	362.78
651.96	358.10
652.10	386.19
652.25	381.51
652.39	435.34
652.54	447.04
652.68	468.11
652.83	400.23
652.97	404.91
653.12	433.00
653.26	454.06
653.41	444.70
653.55	449.38
653.70	442.36
653.84	348.74
653.99	297.25
654.13	379.17
654.27	365.12
654.42	358.10
654.56	325.33
654.71	290.23
654.85	353.42
655.00	322.99
655.14	299.59
655.29	217.67
655.43	334.70
655.57	297.25
655.72	337.04
655.86	280.86
656.01	269.16
656.15	241.08
656.30	341.72
656.44	330.02
656.58	205.97
656.73	292.57
656.87	266.82
657.01	341.72
657.16	294.91
657.30	358.10
657.45	395.55
657.59	390.87
657.73	393.21
657.88	231.71
658.02	433.00
658.16	374.49
658.31	325.33
658.45	311.29
658.60	231.71
658.74	255.12
658.88	241.08
659.03	227.03
659.17	229.37
659.31	231.71
659.46	201.29
659.60	337.04
659.74	362.78
659.89	215.33
660.03	341.72
660.17	294.91
660.32	330.02
660.46	252.78
660.60	168.52
660.74	346.40
660.89	388.53
661.03	264.48
661.17	339.38
661.32	327.68
661.46	271.50
661.60	433.00
661.74	407.25
661.89	461.09
662.03	470.45
662.17	463.43
662.31	430.66
662.46	449.38
662.60	519.60
662.74	433.00
662.88	418.96
663.03	322.99
663.17	315.97
663.31	376.83
663.45	355.76
663.60	278.52
663.74	285.55
663.88	210.65
664.02	231.71
664.17	285.55
664.31	227.03
664.45	259.80
664.59	229.37
664.73	257.46
664.88	306.61
665.02	222.35
665.16	243.42
665.30	346.40
665.44	234.05
665.59	248.10
665.73	252.78
665.87	229.37
666.01	327.68
666.15	182.56
666.29	229.37
666.44	283.20
666.58	276.18
666.72	189.58
666.86	227.03
667.00	278.52
667.14	301.93
667.28	318.31
667.43	325.33
667.57	220.01
667.71	205.97
667.85	297.25
667.99	210.65
668.13	290.23
668.27	273.84
668.41	285.55
668.56	243.42
668.70	271.50
668.84	280.86
668.98	243.42
669.12	259.80
669.26	133.41
669.40	259.80
669.54	243.42
669.68	229.37
669.82	269.16
669.96	255.12
670.10	203.63
670.25	243.42
670.39	299.59
670.53	257.46
670.67	264.48
670.81	93.62
670.95	234.05
671.09	269.16
671.23	306.61
671.37	257.46
671.51	189.58
671.65	229.37
671.79	266.82
671.93	285.55
672.07	292.57
672.21	290.23
672.35	262.14
672.49	234.05
672.63	299.59
672.77	229.37
672.91	255.12
673.05	149.79
673.19	208.31
673.33	189.58
673.47	241.08
673.61	227.03
673.75	212.99
673.89	175.54
674.03	196.60
674.17	187.24
674.31	252.78
674.45	250.44
674.59	241.08
674.73	220.01
674.87	273.84
675.01	234.05
675.15	231.71
675.29	234.05
675.43	201.29
675.56	280.86
675.70	236.39
675.84	269.16
675.98	220.01
676.12	177.88
676.26	208.31
676.40	210.65
676.54	238.73
676.68	149.79
676.82	170.86
676.96	154.48
677.10	198.95
677.23	257.46
677.37	212.99
677.51	180.22
677.65	250.44
677.79	182.56
677.93	222.35
678.07	264.48
678.21	117.03
678.34	248.10
678.48	198.95
678.62	229.37
678.76	180.22
678.90	196.60
679.04	84.26
679.18	102.98
679.31	170.86
679.45	121.71
679.59	191.92
679.73	191.92
679.87	208.31
680.00	229.37
680.14	168.52
680.28	229.37
680.42	187.24
680.56	154.48
680.70	224.69
680.83	128.73
680.97	210.65
681.11	266.82
681.25	215.33
681.39	203.63
681.52	243.42
681.66	166.18
681.80	231.71
681.94	201.29
682.07	212.99
682.21	248.10
682.35	163.84
682.49	166.18
682.62	252.78
682.76	180.22
682.90	124.05
683.04	161.50
683.17	180.22
683.31	210.65
683.45	212.99
683.59	184.90
683.72	156.82
683.86	196.60
684.00	184.90
684.13	175.54
684.27	201.29
684.41	257.46
684.55	152.13
684.68	161.50
684.82	149.79
684.96	227.03
685.09	257.46
685.23	147.45
685.37	182.56
685.50	273.84
685.64	189.58
685.78	224.69
685.91	276.18
686.05	208.31
686.19	217.67
686.32	222.35
686.46	248.10
686.60	170.86
686.73	306.61
686.87	250.44
687.01	257.46
687.14	238.73
687.28	248.10
687.42	205.97
687.55	269.16
687.69	322.99
687.82	322.99
687.96	257.46
688.10	339.38
688.23	257.46
688.37	301.93
688.50	259.80
688.64	271.50
688.78	212.99
688.91	166.18
689.05	222.35
689.18	187.24
689.32	131.07
689.46	173.20
689.59	217.67
689.73	177.88
689.86	163.84
690.00	140.43
690.13	191.92
690.27	243.42
690.41	201.29
690.54	203.63
690.68	184.90
690.81	217.67
690.95	191.92
691.08	170.86
691.22	133.41
691.35	112.35
691.49	110.01
691.62	149.79
691.76	124.05
691.89	128.73
692.03	149.79
692.16	149.79
692.30	182.56
692.43	168.52
692.57	222.35
692.70	84.26
692.84	152.13
692.97	259.80
693.11	304.27
693.24	208.31
693.38	243.42
693.51	313.63
693.65	283.20
693.78	220.01
693.92	283.20
694.05	241.08
694.19	278.52
694.32	224.69
694.45	121.71
694.59	154.48
694.72	217.67
694.86	159.16
694.99	252.78
695.13	152.13
695.26	133.41
695.39	91.28
695.53	257.46
695.66	194.26
695.80	159.16
695.93	145.11
696.07	138.09
696.20	191.92
696.33	95.96
696.47	156.82
696.60	86.60
696.73	177.88
696.87	173.20
697.00	210.65
697.14	194.26
697.27	152.13
697.40	191.92
697.54	98.30
697.67	114.69
697.80	180.22
697.94	173.20
698.07	163.84
698.21	88.94
698.34	189.58
698.47	149.79
698.61	70.22
698.74	205.97
698.87	203.63
699.01	98.30
699.14	100.64
699.27	212.99
699.40	262.14
699.54	88.94
699.67	133.41
699.80	93.62
699.94	100.64
700.07	159.16
700.20	135.75
700.34	163.84
700.47	98.30
700.60	166.18
700.73	126.39
700.87	128.73
701.00	114.69
701.13	131.07
701.26	180.22
701.40	135.75
701.53	117.03
701.66	152.13
701.79	191.92
701.93	180.22
702.06	126.39
702.19	203.63
702.32	215.33
702.46	182.56
702.59	56.17
702.72	126.39
702.85	95.96
702.99	86.60
703.12	177.88
703.25	84.26
703.38	114.69
703.51	224.69
703.65	114.69
703.78	147.45
703.91	161.50
704.04	168.52
704.17	182.56
704.31	145.11
704.44	161.50
704.57	191.92
704.70	154.48
704.83	166.18
704.96	217.67
705.10	220.01
705.23	159.16
>>>>>End Processed Spectral Data<<<<<
