SpectraSuite Data File
++++++++++++++++++++++++++++++++++++
Date: Fri Oct 04 11:41:54 GMT-05:00 2013
User: price-jones
Dark Spectrum Present: No
Reference Spectrum Present: No
Number of Sampled Component Spectra: 1
Spectrometers: USB2+H05261
Integration Time (usec): 100000 (USB2+H05261)
Spectra Averaged: 1 (USB2+H05261)
Boxcar Smoothing: 0 (USB2+H05261)
Correct for Electrical Dark: No (USB2+H05261)
Strobe/Lamp Enabled: No (USB2+H05261)
Correct for Detector Non-linearity: No (USB2+H05261)
Correct for Stray Light: No (USB2+H05261)
Number of Pixels in Processed Spectrum: 2048
>>>>>Begin Processed Spectral Data<<<<<
365.73	42.13
365.92	42.13
366.12	42.13
366.32	0.00
366.52	0.00
366.72	0.00
366.91	0.00
367.11	0.00
367.31	0.00
367.51	0.00
367.70	0.00
367.90	0.00
368.10	0.00
368.30	0.00
368.49	0.00
368.69	0.00
368.89	0.00
369.09	0.00
369.28	0.00
369.48	30.43
369.68	0.00
369.87	0.00
370.07	23.41
370.27	2.34
370.47	0.00
370.66	56.17
370.86	35.11
371.06	65.54
371.25	117.03
371.45	42.13
371.65	32.77
371.84	93.62
372.04	58.51
372.24	107.66
372.44	74.90
372.63	156.82
372.83	133.41
373.03	84.26
373.22	128.73
373.42	117.03
373.62	124.05
373.81	39.79
374.01	205.97
374.21	124.05
374.40	215.33
374.60	88.94
374.79	138.09
374.99	74.90
375.19	168.52
375.38	117.03
375.58	91.28
375.78	126.39
375.97	110.01
376.17	191.92
376.37	60.85
376.56	126.39
376.76	138.09
376.95	177.88
377.15	133.41
377.35	142.77
377.54	138.09
377.74	107.66
377.93	133.41
378.13	135.75
378.33	203.63
378.52	86.60
378.72	105.32
378.91	135.75
379.11	110.01
379.31	95.96
379.50	107.66
379.70	119.37
379.89	201.29
380.09	102.98
380.28	105.32
380.48	79.58
380.68	105.32
380.87	39.79
381.07	156.82
381.26	182.56
381.46	42.13
381.65	166.18
381.85	25.75
382.04	112.35
382.24	149.79
382.43	79.58
382.63	124.05
382.83	81.92
383.02	149.79
383.22	124.05
383.41	102.98
383.61	140.43
383.80	112.35
384.00	112.35
384.19	121.71
384.39	140.43
384.58	110.01
384.78	79.58
384.97	121.71
385.17	93.62
385.36	86.60
385.56	102.98
385.75	88.94
385.95	65.54
386.14	159.16
386.34	173.20
386.53	35.11
386.72	88.94
386.92	124.05
387.11	102.98
387.31	117.03
387.50	126.39
387.70	77.24
387.89	187.24
388.09	138.09
388.28	110.01
388.48	110.01
388.67	110.01
388.86	77.24
389.06	114.69
389.25	72.56
389.45	65.54
389.64	161.50
389.84	138.09
390.03	145.11
390.22	84.26
390.42	142.77
390.61	84.26
390.81	70.22
391.00	37.45
391.19	154.48
391.39	147.45
391.58	175.54
391.78	102.98
391.97	170.86
392.16	161.50
392.36	138.09
392.55	79.58
392.75	105.32
392.94	191.92
393.13	93.62
393.33	102.98
393.52	95.96
393.71	220.01
393.91	154.48
394.10	119.37
394.29	39.79
394.49	149.79
394.68	159.16
394.88	86.60
395.07	163.84
395.26	112.35
395.46	161.50
395.65	147.45
395.84	114.69
396.04	222.35
396.23	100.64
396.42	189.58
396.62	124.05
396.81	117.03
397.00	133.41
397.19	140.43
397.39	138.09
397.58	98.30
397.77	91.28
397.97	170.86
398.16	114.69
398.35	149.79
398.55	140.43
398.74	124.05
398.93	135.75
399.12	121.71
399.32	142.77
399.51	147.45
399.70	159.16
399.90	121.71
400.09	107.66
400.28	117.03
400.47	88.94
400.67	117.03
400.86	102.98
401.05	135.75
401.24	149.79
401.44	173.20
401.63	135.75
401.82	154.48
402.01	81.92
402.21	142.77
402.40	107.66
402.59	70.22
402.78	142.77
402.97	191.92
403.17	142.77
403.36	182.56
403.55	285.55
403.74	484.49
403.93	1373.89
404.13	2539.48
404.32	2801.62
404.51	2235.21
404.70	1345.81
404.89	524.28
405.09	273.84
405.28	205.97
405.47	187.24
405.66	149.79
405.85	147.45
406.05	177.88
406.24	117.03
406.43	107.66
406.62	149.79
406.81	208.31
407.00	234.05
407.20	407.25
407.39	489.17
407.58	449.38
407.77	383.85
407.96	229.37
408.15	170.86
408.34	177.88
408.54	166.18
408.73	191.92
408.92	142.77
409.11	102.98
409.30	255.12
409.49	86.60
409.68	243.42
409.87	159.16
410.07	107.66
410.26	224.69
410.45	163.84
410.64	86.60
410.83	161.50
411.02	156.82
411.21	138.09
411.40	149.79
411.59	88.94
411.78	222.35
411.98	119.37
412.17	175.54
412.36	95.96
412.55	138.09
412.74	212.99
412.93	117.03
413.12	205.97
413.31	128.73
413.50	142.77
413.69	187.24
413.88	182.56
414.07	203.63
414.26	191.92
414.45	196.60
414.64	173.20
414.83	262.14
415.02	170.86
415.22	180.22
415.41	196.60
415.60	170.86
415.79	161.50
415.98	145.11
416.17	175.54
416.36	198.95
416.55	70.22
416.74	168.52
416.93	236.39
417.12	212.99
417.31	203.63
417.50	126.39
417.69	220.01
417.88	173.20
418.07	189.58
418.26	175.54
418.45	86.60
418.64	203.63
418.83	161.50
419.02	182.56
419.21	173.20
419.39	198.95
419.58	184.90
419.77	154.48
419.96	175.54
420.15	224.69
420.34	180.22
420.53	194.26
420.72	189.58
420.91	147.45
421.10	227.03
421.29	189.58
421.48	191.92
421.67	243.42
421.86	187.24
422.05	198.95
422.24	208.31
422.43	196.60
422.61	322.99
422.80	224.69
422.99	220.01
423.18	170.86
423.37	184.90
423.56	177.88
423.75	248.10
423.94	173.20
424.13	128.73
424.32	243.42
424.50	184.90
424.69	201.29
424.88	278.52
425.07	191.92
425.26	266.82
425.45	234.05
425.64	212.99
425.83	255.12
426.01	227.03
426.20	189.58
426.39	224.69
426.58	152.13
426.77	217.67
426.96	191.92
427.15	182.56
427.33	163.84
427.52	187.24
427.71	215.33
427.90	229.37
428.09	215.33
428.28	161.50
428.46	252.78
428.65	255.12
428.84	245.76
429.03	238.73
429.22	191.92
429.40	210.65
429.59	189.58
429.78	250.44
429.97	231.71
430.16	215.33
430.34	257.46
430.53	269.16
430.72	194.26
430.91	187.24
431.10	250.44
431.28	163.84
431.47	271.50
431.66	330.02
431.85	248.10
432.03	238.73
432.22	313.63
432.41	236.39
432.60	241.08
432.79	273.84
432.97	250.44
433.16	283.20
433.35	337.04
433.54	241.08
433.72	386.19
433.91	383.85
434.10	367.46
434.28	430.66
434.47	447.04
434.66	545.34
434.85	716.20
435.03	2244.57
435.22	7452.27
435.41	12814.43
435.59	11318.83
435.78	7267.36
435.97	3644.21
436.16	1474.54
436.34	645.99
436.53	449.38
436.72	409.59
436.90	320.65
437.09	322.99
437.28	311.29
437.46	301.93
437.65	294.91
437.84	278.52
438.02	315.97
438.21	297.25
438.40	276.18
438.58	280.86
438.77	252.78
438.96	231.71
439.14	301.93
439.33	229.37
439.52	245.76
439.70	292.57
439.89	290.23
440.08	266.82
440.26	250.44
440.45	271.50
440.63	262.14
440.82	332.36
441.01	297.25
441.19	322.99
441.38	315.97
441.57	234.05
441.75	360.44
441.94	259.80
442.12	283.20
442.31	276.18
442.50	273.84
442.68	266.82
442.87	299.59
443.05	273.84
443.24	341.72
443.43	341.72
443.61	304.27
443.80	250.44
443.98	255.12
444.17	285.55
444.35	297.25
444.54	269.16
444.73	257.46
444.91	311.29
445.10	266.82
445.28	255.12
445.47	231.71
445.65	259.80
445.84	299.59
446.02	259.80
446.21	252.78
446.39	222.35
446.58	269.16
446.77	257.46
446.95	327.68
447.14	241.08
447.32	301.93
447.51	290.23
447.69	294.91
447.88	217.67
448.06	308.95
448.25	280.86
448.43	292.57
448.62	304.27
448.80	238.73
448.99	306.61
449.17	311.29
449.36	332.36
449.54	325.33
449.73	262.14
449.91	322.99
450.10	285.55
450.28	379.17
450.46	280.86
450.65	299.59
450.83	217.67
451.02	318.31
451.20	170.86
451.39	255.12
451.57	276.18
451.76	222.35
451.94	245.76
452.13	325.33
452.31	313.63
452.49	308.95
452.68	262.14
452.86	348.74
453.05	351.08
453.23	287.89
453.42	149.79
453.60	320.65
453.78	334.70
453.97	264.48
454.15	208.31
454.34	290.23
454.52	269.16
454.70	306.61
454.89	297.25
455.07	278.52
455.26	241.08
455.44	280.86
455.62	243.42
455.81	315.97
455.99	306.61
456.17	285.55
456.36	252.78
456.54	271.50
456.73	297.25
456.91	262.14
457.09	252.78
457.28	334.70
457.46	315.97
457.64	285.55
457.83	266.82
458.01	248.10
458.19	280.86
458.38	236.39
458.56	266.82
458.74	355.76
458.93	227.03
459.11	327.68
459.29	184.90
459.48	238.73
459.66	259.80
459.84	269.16
460.03	337.04
460.21	301.93
460.39	194.26
460.57	311.29
460.76	353.42
460.94	259.80
461.12	273.84
461.31	315.97
461.49	278.52
461.67	346.40
461.85	304.27
462.04	306.61
462.22	669.39
462.40	285.55
462.59	346.40
462.77	308.95
462.95	313.63
463.13	273.84
463.32	311.29
463.50	243.42
463.68	285.55
463.86	271.50
464.05	229.37
464.23	353.42
464.41	297.25
464.59	285.55
464.78	266.82
464.96	227.03
465.14	262.14
465.32	304.27
465.50	280.86
465.69	301.93
465.87	283.20
466.05	273.84
466.23	250.44
466.41	255.12
466.60	318.31
466.78	313.63
466.96	285.55
467.14	332.36
467.32	341.72
467.51	280.86
467.69	308.95
467.87	299.59
468.05	290.23
468.23	386.19
468.41	325.33
468.60	231.71
468.78	220.01
468.96	271.50
469.14	269.16
469.32	238.73
469.50	278.52
469.69	369.80
469.87	227.03
470.05	238.73
470.23	259.80
470.41	266.82
470.59	374.49
470.77	266.82
470.95	283.20
471.14	365.12
471.32	257.46
471.50	351.08
471.68	222.35
471.86	283.20
472.04	220.01
472.22	250.44
472.40	283.20
472.58	315.97
472.77	220.01
472.95	266.82
473.13	341.72
473.31	285.55
473.49	241.08
473.67	231.71
473.85	390.87
474.03	273.84
474.21	271.50
474.39	311.29
474.57	351.08
474.75	257.46
474.93	255.12
475.12	262.14
475.30	262.14
475.48	196.60
475.66	297.25
475.84	234.05
476.02	294.91
476.20	311.29
476.38	250.44
476.56	334.70
476.74	189.58
476.92	229.37
477.10	315.97
477.28	308.95
477.46	287.89
477.64	269.16
477.82	276.18
478.00	318.31
478.18	299.59
478.36	238.73
478.54	271.50
478.72	278.52
478.90	280.86
479.08	301.93
479.26	271.50
479.44	358.10
479.62	337.04
479.80	404.91
479.98	325.33
480.16	355.76
480.34	334.70
480.52	322.99
480.70	451.72
480.88	365.12
481.06	383.85
481.24	411.93
481.41	440.02
481.59	404.91
481.77	423.64
481.95	461.09
482.13	519.60
482.31	528.96
482.49	545.34
482.67	547.69
482.85	641.31
483.03	596.84
483.21	751.31
483.39	779.40
483.57	732.59
483.74	777.06
483.92	882.38
484.10	840.25
484.28	931.53
484.46	992.39
484.64	1048.56
484.82	1008.77
485.00	1046.22
485.18	1111.75
485.35	1263.89
485.53	1207.72
485.71	1341.13
485.89	1397.30
486.07	1376.24
486.25	1376.24
486.43	1310.70
486.61	1338.79
486.78	1413.68
486.96	1343.47
487.14	1345.81
487.32	1357.51
487.50	1416.02
487.68	1322.40
487.85	1306.02
488.03	1310.70
488.21	1303.68
488.39	1327.08
488.57	1221.76
488.75	1191.33
488.92	1451.13
489.10	1132.82
489.28	1170.27
489.46	1167.93
489.64	1125.80
489.81	1149.20
489.99	1074.31
490.17	1163.25
490.35	1163.25
490.53	1046.22
490.70	1025.15
490.88	1055.58
491.06	1184.31
491.24	1210.06
491.41	1123.46
491.59	1132.82
491.77	1057.92
491.95	1004.09
492.13	968.98
492.30	985.37
492.48	880.04
492.66	983.02
492.84	1062.60
493.01	966.64
493.19	884.72
493.37	985.37
493.54	950.26
493.72	894.08
493.90	945.58
494.08	854.30
494.25	798.12
494.43	833.23
494.61	868.34
494.79	823.87
494.96	891.74
495.14	880.04
495.32	765.36
495.49	758.33
495.67	863.66
495.85	716.20
496.02	767.70
496.20	807.48
496.38	725.57
496.55	737.27
496.73	786.42
496.91	718.54
497.09	816.85
497.26	711.52
497.44	601.52
497.62	732.59
497.79	650.67
497.97	685.78
498.14	634.29
498.32	594.50
498.50	643.65
498.67	599.18
498.85	669.39
499.03	622.58
499.20	559.39
499.38	620.24
499.56	592.16
499.73	589.82
499.91	615.56
500.08	613.22
500.26	547.69
500.44	451.72
500.61	507.90
500.79	496.19
500.97	465.77
501.14	566.41
501.32	440.02
501.49	395.55
501.67	425.98
501.84	468.11
502.02	468.11
502.20	451.72
502.37	379.17
502.55	360.44
502.72	442.36
502.90	404.91
503.07	411.93
503.25	425.98
503.43	369.80
503.60	379.17
503.78	442.36
503.95	330.02
504.13	255.12
504.30	355.76
504.48	346.40
504.65	447.04
504.83	374.49
505.01	409.59
505.18	287.89
505.36	355.76
505.53	404.91
505.71	330.02
505.88	414.27
506.06	276.18
506.23	367.46
506.41	318.31
506.58	224.69
506.76	346.40
506.93	390.87
507.11	245.76
507.28	299.59
507.46	322.99
507.63	241.08
507.81	243.42
507.98	346.40
508.16	308.95
508.33	304.27
508.50	367.46
508.68	390.87
508.85	266.82
509.03	341.72
509.20	332.36
509.38	381.51
509.55	315.97
509.73	355.76
509.90	365.12
510.08	269.16
510.25	374.49
510.42	337.04
510.60	287.89
510.77	409.59
510.95	374.49
511.12	271.50
511.30	327.68
511.47	294.91
511.64	374.49
511.82	397.89
511.99	313.63
512.17	322.99
512.34	360.44
512.51	294.91
512.69	208.31
512.86	374.49
513.04	276.18
513.21	320.65
513.38	334.70
513.56	243.42
513.73	311.29
513.90	224.69
514.08	299.59
514.25	301.93
514.43	313.63
514.60	313.63
514.77	330.02
514.95	292.57
515.12	276.18
515.29	287.89
515.47	290.23
515.64	304.27
515.81	273.84
515.99	306.61
516.16	301.93
516.33	255.12
516.51	308.95
516.68	191.92
516.85	245.76
517.03	264.48
517.20	255.12
517.37	255.12
517.54	283.20
517.72	252.78
517.89	236.39
518.06	196.60
518.24	365.12
518.41	374.49
518.58	301.93
518.75	285.55
518.93	259.80
519.10	400.23
519.27	306.61
519.45	299.59
519.62	248.10
519.79	308.95
519.96	220.01
520.14	325.33
520.31	290.23
520.48	358.10
520.65	383.85
520.83	285.55
521.00	381.51
521.17	285.55
521.34	238.73
521.52	280.86
521.69	304.27
521.86	187.24
522.03	280.86
522.20	308.95
522.38	241.08
522.55	285.55
522.72	292.57
522.89	330.02
523.07	271.50
523.24	294.91
523.41	273.84
523.58	243.42
523.75	217.67
523.92	252.78
524.10	332.36
524.27	311.29
524.44	259.80
524.61	271.50
524.78	339.38
524.96	308.95
525.13	262.14
525.30	266.82
525.47	372.15
525.64	339.38
525.81	238.73
525.98	353.42
526.16	304.27
526.33	308.95
526.50	262.14
526.67	344.06
526.84	325.33
527.01	285.55
527.18	351.08
527.36	299.59
527.53	320.65
527.70	388.53
527.87	379.17
528.04	334.70
528.21	322.99
528.38	341.72
528.55	327.68
528.72	304.27
528.89	344.06
529.07	278.52
529.24	358.10
529.41	416.62
529.58	320.65
529.75	393.21
529.92	327.68
530.09	351.08
530.26	381.51
530.43	344.06
530.60	351.08
530.77	430.66
530.94	374.49
531.11	372.15
531.28	390.87
531.46	461.09
531.63	376.83
531.80	456.40
531.97	423.64
532.14	510.24
532.31	585.13
532.48	538.32
532.65	617.90
532.82	706.84
532.99	777.06
533.16	854.30
533.33	891.74
533.50	786.42
533.67	709.18
533.84	645.99
534.01	566.41
534.18	540.66
534.35	554.71
534.52	620.24
534.69	643.65
534.86	559.39
535.03	744.29
535.20	613.22
535.37	713.86
535.54	753.65
535.71	702.16
535.88	814.51
536.05	821.53
536.22	837.91
536.38	903.45
536.55	987.71
536.72	1090.69
536.89	1160.91
537.06	1324.74
537.23	1345.81
537.40	1643.06
537.57	1582.20
537.74	1701.57
537.91	1741.36
538.08	1809.23
538.25	1727.32
538.42	1750.72
538.59	1891.15
538.75	1870.09
538.92	2045.63
539.09	2293.72
539.26	2478.63
539.43	2818.00
539.60	3108.23
539.77	3370.37
539.94	3854.86
540.11	4271.48
540.28	4528.94
540.44	5064.92
540.61	5561.11
540.78	6586.27
540.95	7939.10
541.12	8931.48
541.29	9844.29
541.46	10068.98
541.62	9757.69
541.79	9413.63
541.96	8997.02
542.13	8369.76
542.30	7918.03
542.47	7368.01
542.63	7133.95
542.80	6956.07
542.97	6871.81
543.14	6946.71
543.31	6951.39
543.48	6803.94
543.64	6979.48
543.81	6883.52
543.98	7262.68
544.15	7091.82
544.32	6984.16
544.48	7211.19
544.65	6902.24
544.82	6981.82
544.99	6766.49
545.16	7190.13
545.32	7705.04
545.49	15096.46
545.66	24872.87
545.83	26885.73
546.00	22031.46
546.16	15145.61
546.33	11276.70
546.50	8580.40
546.67	6827.34
546.83	6333.49
547.00	5809.21
547.17	5722.61
547.34	5401.96
547.50	5308.34
547.67	5046.20
547.84	4856.61
548.00	4695.11
548.17	4559.36
548.34	4365.10
548.51	4299.56
548.67	3999.98
548.84	3854.86
549.01	3712.09
549.18	3513.14
549.34	3375.05
549.51	3288.45
549.68	3141.00
549.84	2995.89
550.01	2796.94
550.18	2876.52
550.34	2813.32
550.51	2626.08
550.68	2530.12
550.84	2340.54
551.01	2211.81
551.18	2155.63
551.34	2012.86
551.51	1933.28
551.68	1956.69
551.84	1760.08
552.01	1816.26
552.18	1657.10
552.34	1682.85
552.51	1558.80
552.68	1519.01
552.84	1437.09
553.01	1437.09
553.18	1406.66
553.34	1338.79
553.51	1303.68
553.67	1329.42
553.84	1315.38
554.01	1114.10
554.17	1153.88
554.34	1050.90
554.51	1130.48
554.67	910.47
554.84	1060.26
555.00	873.02
555.17	816.85
555.33	809.83
555.50	802.80
555.67	753.65
555.83	697.48
556.00	678.76
556.16	854.30
556.33	606.20
556.50	596.84
556.66	645.99
556.83	568.75
556.99	629.60
557.16	636.63
557.32	669.39
557.49	578.11
557.65	547.69
557.82	496.19
557.98	505.56
558.15	486.83
558.32	521.94
558.48	423.64
558.65	493.85
558.81	552.37
558.98	458.74
559.14	524.28
559.31	468.11
559.47	449.38
559.64	379.17
559.80	437.68
559.97	456.40
560.13	503.22
560.30	479.81
560.46	533.64
560.63	458.74
560.79	428.32
560.96	440.02
561.12	390.87
561.29	421.30
561.45	517.26
561.61	493.85
561.78	524.28
561.94	416.62
562.11	463.43
562.27	425.98
562.44	339.38
562.60	421.30
562.77	390.87
562.93	451.72
563.10	428.32
563.26	458.74
563.42	500.87
563.59	493.85
563.75	402.57
563.92	528.96
564.08	374.49
564.24	421.30
564.41	505.56
564.57	409.59
564.74	393.21
564.90	365.12
565.07	465.77
565.23	409.59
565.39	367.46
565.56	414.27
565.72	322.99
565.88	435.34
566.05	381.51
566.21	341.72
566.38	468.11
566.54	327.68
566.70	360.44
566.87	358.10
567.03	393.21
567.19	418.96
567.36	397.89
567.52	360.44
567.68	339.38
567.85	379.17
568.01	442.36
568.17	451.72
568.34	341.72
568.50	344.06
568.66	381.51
568.83	456.40
568.99	325.33
569.15	355.76
569.32	362.78
569.48	440.02
569.64	376.83
569.81	355.76
569.97	301.93
570.13	351.08
570.30	386.19
570.46	311.29
570.62	313.63
570.78	318.31
570.95	304.27
571.11	409.59
571.27	379.17
571.43	341.72
571.60	383.85
571.76	341.72
571.92	379.17
572.09	299.59
572.25	264.48
572.41	341.72
572.57	353.42
572.74	372.15
572.90	362.78
573.06	322.99
573.22	327.68
573.38	423.64
573.55	311.29
573.71	322.99
573.87	322.99
574.03	322.99
574.20	358.10
574.36	341.72
574.52	390.87
574.68	367.46
574.84	353.42
575.01	407.25
575.17	451.72
575.33	454.06
575.49	451.72
575.65	461.09
575.82	477.47
575.98	517.26
576.14	477.47
576.30	1343.47
576.46	3396.12
576.62	4755.97
576.79	4702.14
576.95	3382.07
577.11	2298.41
577.27	1575.18
577.43	1102.39
577.59	830.89
577.75	725.57
577.92	622.58
578.08	545.34
578.24	634.29
578.40	1397.30
578.56	3141.00
578.72	4201.26
578.88	4198.92
579.04	3229.94
579.21	2237.55
579.37	1727.32
579.53	1362.19
579.69	1526.03
579.85	1729.66
580.01	1851.36
580.17	1769.44
580.33	1528.37
580.49	1392.62
580.65	1221.76
580.82	1200.69
580.98	1149.20
581.14	1139.84
581.30	1156.22
581.46	1217.08
581.62	1418.36
581.78	1511.99
581.94	1633.69
582.10	1650.08
582.26	1678.16
582.42	1785.83
582.58	1813.92
582.74	1802.21
582.90	1858.39
583.06	1872.43
583.22	1877.11
583.38	1940.30
583.54	1837.32
583.70	1905.20
583.86	1837.32
584.02	1734.34
584.18	1937.96
584.34	1717.95
584.50	1732.00
584.66	1764.76
584.82	1668.80
584.98	1741.36
585.14	1645.40
585.30	1633.69
585.46	1565.82
585.62	1544.75
585.78	1638.38
585.94	1600.93
586.10	1626.67
586.26	1638.38
586.42	2012.86
586.58	2452.88
586.74	2846.09
586.90	3325.90
587.06	3529.53
587.22	3433.57
587.38	2993.55
587.54	2562.89
587.70	2169.68
587.86	1823.28
588.02	1710.93
588.18	1420.71
588.34	1369.21
588.49	1238.14
588.65	1294.32
588.81	1090.69
588.97	1025.15
589.13	1172.61
589.29	1165.59
589.45	1121.12
589.61	1095.37
589.77	1100.05
589.93	1156.22
590.08	1074.31
590.24	1083.67
590.40	1177.29
590.56	1205.38
590.72	1174.95
590.88	1310.70
591.04	1320.06
591.20	1362.19
591.35	1476.88
591.51	1448.79
591.67	1516.67
591.83	1593.90
591.99	1687.53
592.15	1870.09
592.31	1989.46
592.46	2157.97
592.62	2354.58
592.78	2450.54
592.94	2541.82
593.10	2321.81
593.26	2443.52
593.41	2242.23
593.57	2012.86
593.73	1750.72
593.89	1523.69
594.05	1371.55
594.20	1263.89
594.36	1212.40
594.52	1177.29
594.68	1144.52
594.84	1001.75
594.99	976.00
595.15	1032.18
595.31	1039.20
595.47	983.02
595.62	976.00
595.78	1067.28
595.94	950.26
596.10	994.73
596.25	931.53
596.41	1022.81
596.57	1046.22
596.73	931.53
596.88	990.05
597.04	894.08
597.20	901.11
597.36	1034.52
597.51	1057.92
597.67	1053.24
597.83	1011.11
597.99	1111.75
598.14	1200.69
598.30	1249.85
598.46	1256.87
598.61	1380.92
598.77	1493.26
598.93	1416.02
599.09	1565.82
599.24	1629.01
599.40	1507.30
599.56	1465.18
599.71	1446.45
599.87	1413.68
600.03	1320.06
600.18	1277.93
600.34	1226.44
600.50	1104.73
600.65	1050.90
600.81	905.79
600.97	884.72
601.12	908.13
601.28	887.06
601.44	828.55
601.59	795.78
601.75	763.01
601.91	807.48
602.06	734.93
602.22	837.91
602.37	671.73
602.53	753.65
602.69	739.61
602.84	732.59
603.00	746.63
603.16	617.90
603.31	695.14
603.47	800.46
603.62	653.01
603.78	727.91
603.94	868.34
604.09	844.93
604.25	779.40
604.40	772.38
604.56	844.93
604.71	800.46
604.87	763.01
605.03	837.91
605.18	877.70
605.34	863.66
605.49	919.83
605.65	854.30
605.80	976.00
605.96	877.70
606.12	910.47
606.27	954.94
606.43	1055.58
606.58	1121.12
606.74	1064.94
606.89	1217.08
607.05	1149.20
607.20	1338.79
607.36	1266.23
607.51	1394.96
607.67	1469.86
607.82	1577.52
607.98	1713.27
608.13	1858.39
608.29	1893.49
608.44	2099.46
608.60	2256.28
608.75	2539.48
608.91	2689.28
609.06	2916.31
609.22	3112.91
609.37	3288.45
609.53	3840.82
609.68	4306.59
609.84	5067.26
609.99	5942.62
610.15	6913.94
610.30	8463.38
610.46	10920.94
610.61	13886.40
610.76	17748.28
610.92	21411.22
611.07	23538.77
611.23	23857.08
611.38	21720.17
611.54	19601.99
611.69	16203.53
611.84	13591.49
612.00	11253.30
612.15	9497.89
612.31	8589.77
612.46	7581.00
612.62	7066.08
612.77	6754.79
612.92	6347.53
613.08	6164.97
613.23	5734.31
613.39	5659.42
613.54	5408.98
613.69	5172.58
613.85	5174.92
614.00	5132.79
614.15	5123.43
614.31	4896.40
614.46	5055.56
614.62	4660.01
614.77	4540.64
614.92	4400.21
615.08	3964.87
615.23	3648.90
615.38	3346.97
615.54	3176.11
615.69	2843.75
615.84	2651.83
616.00	2431.82
616.15	2272.66
616.30	2118.18
616.46	2083.08
616.61	1942.64
616.76	1874.77
616.92	1722.63
617.07	1696.89
617.22	1504.96
617.37	1488.58
617.53	1465.18
617.68	1355.17
617.83	1418.36
617.99	1369.21
618.14	1411.34
618.29	1343.47
618.45	1287.29
618.60	1247.51
618.75	1247.51
618.90	1259.21
619.06	1203.04
619.21	1317.72
619.36	1203.04
619.51	1273.25
619.67	1219.42
619.82	1170.27
619.97	1270.91
620.12	1186.65
620.28	1359.85
620.43	1303.68
620.58	1329.42
620.73	1355.17
620.89	1329.42
621.04	1317.72
621.19	1406.66
621.34	1186.65
621.49	1266.23
621.65	1242.82
621.80	1186.65
621.95	1144.52
622.10	1228.78
622.25	1228.78
622.41	1275.59
622.56	1313.04
622.71	1430.07
622.86	1310.70
623.01	1270.91
623.16	1439.43
623.32	1392.62
623.47	1423.05
623.62	1432.41
623.77	1277.93
623.92	1310.70
624.07	1383.26
624.23	1554.12
624.38	1270.91
624.53	1313.04
624.68	1359.85
624.83	1397.30
624.98	1411.34
625.13	1507.30
625.29	1345.81
625.44	1345.81
625.59	1350.49
625.74	1455.81
625.89	1430.07
626.04	1383.26
626.19	1413.68
626.34	1306.02
626.49	1406.66
626.65	1270.91
626.80	1345.81
626.95	1263.89
627.10	1409.00
627.25	1249.85
627.40	1378.58
627.55	1289.64
627.70	1188.99
627.85	1327.08
628.00	1252.19
628.15	1280.27
628.30	1212.40
628.45	1296.66
628.60	1137.50
628.76	1217.08
628.91	1207.72
629.06	1231.12
629.21	1301.34
629.36	1301.34
629.51	1441.77
629.66	1406.66
629.81	1523.69
629.96	1629.01
630.11	1825.62
630.26	2040.95
630.41	2225.85
630.56	2499.69
630.71	2487.99
630.86	2576.93
631.01	2579.27
631.16	2221.17
631.31	2125.21
631.46	1732.00
631.61	1558.80
631.76	1310.70
631.91	1142.18
632.06	1069.62
632.21	950.26
632.36	767.70
632.51	709.18
632.66	732.59
632.81	601.52
632.96	624.92
633.10	566.41
633.25	540.66
633.40	468.11
633.55	524.28
633.70	603.86
633.85	503.22
634.00	442.36
634.15	416.62
634.30	454.06
634.45	470.45
634.60	521.94
634.75	503.22
634.90	498.53
635.05	437.68
635.19	456.40
635.34	400.23
635.49	447.04
635.64	346.40
635.79	372.15
635.94	451.72
636.09	447.04
636.24	425.98
636.39	386.19
636.53	433.00
636.68	318.31
636.83	372.15
636.98	369.80
637.13	411.93
637.28	421.30
637.43	318.31
637.57	332.36
637.72	404.91
637.87	379.17
638.02	393.21
638.17	423.64
638.32	400.23
638.46	421.30
638.61	390.87
638.76	404.91
638.91	430.66
639.06	332.36
639.20	447.04
639.35	299.59
639.50	255.12
639.65	442.36
639.80	292.57
639.94	339.38
640.09	372.15
640.24	351.08
640.39	348.74
640.54	304.27
640.68	355.76
640.83	353.42
640.98	315.97
641.13	318.31
641.27	360.44
641.42	351.08
641.57	416.62
641.72	355.76
641.86	315.97
642.01	330.02
642.16	358.10
642.31	273.84
642.45	376.83
642.60	393.21
642.75	318.31
642.90	341.72
643.04	318.31
643.19	334.70
643.34	372.15
643.48	383.85
643.63	290.23
643.78	372.15
643.93	386.19
644.07	334.70
644.22	327.68
644.37	353.42
644.51	379.17
644.66	292.57
644.81	341.72
644.95	388.53
645.10	252.78
645.25	353.42
645.39	374.49
645.54	308.95
645.69	299.59
645.83	308.95
645.98	416.62
646.13	264.48
646.27	297.25
646.42	306.61
646.57	325.33
646.71	241.08
646.86	248.10
647.00	276.18
647.15	313.63
647.30	287.89
647.44	257.46
647.59	273.84
647.74	255.12
647.88	411.93
648.03	287.89
648.17	400.23
648.32	325.33
648.47	440.02
648.61	322.99
648.76	280.86
648.90	287.89
649.05	306.61
649.20	297.25
649.34	374.49
649.49	409.59
649.63	489.17
649.78	592.16
649.92	545.34
650.07	751.31
650.21	725.57
650.36	800.46
650.51	791.10
650.65	739.61
650.80	671.73
650.94	496.19
651.09	538.32
651.23	533.64
651.38	498.53
651.52	435.34
651.67	407.25
651.81	390.87
651.96	404.91
652.10	393.21
652.25	400.23
652.39	449.38
652.54	416.62
652.68	442.36
652.83	447.04
652.97	482.15
653.12	449.38
653.26	454.06
653.41	479.81
653.55	407.25
653.70	379.17
653.84	369.80
653.99	407.25
654.13	339.38
654.27	376.83
654.42	341.72
654.56	294.91
654.71	353.42
654.85	304.27
655.00	252.78
655.14	266.82
655.29	283.20
655.43	330.02
655.57	217.67
655.72	257.46
655.86	238.73
656.01	313.63
656.15	358.10
656.30	283.20
656.44	273.84
656.58	330.02
656.73	269.16
656.87	365.12
657.01	322.99
657.16	271.50
657.30	297.25
657.45	372.15
657.59	327.68
657.73	315.97
657.88	397.89
658.02	393.21
658.16	339.38
658.31	311.29
658.45	292.57
658.60	318.31
658.74	346.40
658.88	264.48
659.03	238.73
659.17	210.65
659.31	252.78
659.46	220.01
659.60	287.89
659.74	276.18
659.89	248.10
660.03	259.80
660.17	348.74
660.32	236.39
660.46	264.48
660.60	194.26
660.74	252.78
660.89	252.78
661.03	245.76
661.17	210.65
661.32	248.10
661.46	283.20
661.60	344.06
661.74	386.19
661.89	440.02
662.03	500.87
662.17	505.56
662.31	496.19
662.46	409.59
662.60	503.22
662.74	437.68
662.88	360.44
663.03	423.64
663.17	397.89
663.31	311.29
663.45	290.23
663.60	332.36
663.74	313.63
663.88	257.46
664.02	269.16
664.17	292.57
664.31	304.27
664.45	304.27
664.59	292.57
664.73	255.12
664.88	266.82
665.02	205.97
665.16	177.88
665.30	273.84
665.44	311.29
665.59	306.61
665.73	187.24
665.87	248.10
666.01	278.52
666.15	266.82
666.29	271.50
666.44	308.95
666.58	339.38
666.72	257.46
666.86	304.27
667.00	238.73
667.14	306.61
667.28	290.23
667.43	259.80
667.57	210.65
667.71	271.50
667.85	280.86
667.99	255.12
668.13	229.37
668.27	250.44
668.41	278.52
668.56	198.95
668.70	255.12
668.84	220.01
668.98	231.71
669.12	208.31
669.26	280.86
669.40	301.93
669.54	248.10
669.68	259.80
669.82	166.18
669.96	229.37
670.10	180.22
670.25	276.18
670.39	140.43
670.53	203.63
670.67	299.59
670.81	236.39
670.95	252.78
671.09	161.50
671.23	236.39
671.37	283.20
671.51	205.97
671.65	269.16
671.79	184.90
671.93	273.84
672.07	308.95
672.21	231.71
672.35	243.42
672.49	255.12
672.63	182.56
672.77	285.55
672.91	229.37
673.05	205.97
673.19	210.65
673.33	220.01
673.47	248.10
673.61	205.97
673.75	220.01
673.89	241.08
674.03	271.50
674.17	184.90
674.31	299.59
674.45	280.86
674.59	201.29
674.73	231.71
674.87	194.26
675.01	217.67
675.15	140.43
675.29	196.60
675.43	266.82
675.56	301.93
675.70	208.31
675.84	205.97
675.98	287.89
676.12	159.16
676.26	191.92
676.40	128.73
676.54	224.69
676.68	184.90
676.82	259.80
676.96	177.88
677.10	208.31
677.23	180.22
677.37	161.50
677.51	154.48
677.65	255.12
677.79	210.65
677.93	208.31
678.07	215.33
678.21	119.37
678.34	236.39
678.48	138.09
678.62	156.82
678.76	145.11
678.90	257.46
679.04	234.05
679.18	234.05
679.31	271.50
679.45	227.03
679.59	196.60
679.73	301.93
679.87	187.24
680.00	173.20
680.14	259.80
680.28	156.82
680.42	187.24
680.56	231.71
680.70	182.56
680.83	184.90
680.97	236.39
681.11	215.33
681.25	201.29
681.39	238.73
681.52	215.33
681.66	278.52
681.80	187.24
681.94	222.35
682.07	187.24
682.21	196.60
682.35	234.05
682.49	140.43
682.62	229.37
682.76	105.32
682.90	110.01
683.04	212.99
683.17	238.73
683.31	180.22
683.45	222.35
683.59	243.42
683.72	184.90
683.86	168.52
684.00	203.63
684.13	222.35
684.27	212.99
684.41	175.54
684.55	138.09
684.68	182.56
684.82	180.22
684.96	222.35
685.09	245.76
685.23	131.07
685.37	224.69
685.50	231.71
685.64	234.05
685.78	182.56
685.91	229.37
686.05	191.92
686.19	196.60
686.32	297.25
686.46	285.55
686.60	259.80
686.73	355.76
686.87	250.44
687.01	294.91
687.14	231.71
687.28	257.46
687.42	313.63
687.55	360.44
687.69	358.10
687.82	386.19
687.96	334.70
688.10	360.44
688.23	231.71
688.37	353.42
688.50	234.05
688.64	264.48
688.78	264.48
688.91	236.39
689.05	243.42
689.18	243.42
689.32	196.60
689.46	234.05
689.59	201.29
689.73	182.56
689.86	149.79
690.00	201.29
690.13	170.86
690.27	163.84
690.41	248.10
690.54	161.50
690.68	191.92
690.81	198.95
690.95	112.35
691.08	194.26
691.22	196.60
691.35	159.16
691.49	145.11
691.62	177.88
691.76	145.11
691.89	173.20
692.03	166.18
692.16	117.03
692.30	140.43
692.43	187.24
692.57	131.07
692.70	217.67
692.84	138.09
692.97	222.35
693.11	229.37
693.24	243.42
693.38	196.60
693.51	276.18
693.65	297.25
693.78	245.76
693.92	222.35
694.05	278.52
694.19	236.39
694.32	229.37
694.45	145.11
694.59	215.33
694.72	184.90
694.86	159.16
694.99	180.22
695.13	145.11
695.26	102.98
695.39	142.77
695.53	182.56
695.66	142.77
695.80	152.13
695.93	121.71
696.07	205.97
696.20	166.18
696.33	149.79
696.47	180.22
696.60	194.26
696.73	222.35
696.87	177.88
697.00	163.84
697.14	140.43
697.27	95.96
697.40	208.31
697.54	170.86
697.67	203.63
697.80	110.01
697.94	128.73
698.07	133.41
698.21	163.84
698.34	205.97
698.47	152.13
698.61	128.73
698.74	142.77
698.87	142.77
699.01	177.88
699.14	98.30
699.27	215.33
699.40	259.80
699.54	191.92
699.67	124.05
699.80	133.41
699.94	100.64
700.07	145.11
700.20	117.03
700.34	149.79
700.47	77.24
700.60	166.18
700.73	102.98
700.87	170.86
701.00	166.18
701.13	107.66
701.26	119.37
701.40	159.16
701.53	60.85
701.66	98.30
701.79	102.98
701.93	133.41
702.06	222.35
702.19	91.28
702.32	126.39
702.46	154.48
702.59	112.35
702.72	72.56
702.85	177.88
702.99	212.99
703.12	203.63
703.25	135.75
703.38	173.20
703.51	234.05
703.65	161.50
703.78	145.11
703.91	168.52
704.04	156.82
704.17	201.29
704.31	126.39
704.44	264.48
704.57	208.31
704.70	203.63
704.83	182.56
704.96	191.92
705.10	234.05
705.23	173.20
>>>>>End Processed Spectral Data<<<<<
