SpectraSuite Data File
++++++++++++++++++++++++++++++++++++
Date: Fri Oct 04 11:41:54 GMT-05:00 2013
User: price-jones
Dark Spectrum Present: No
Reference Spectrum Present: No
Number of Sampled Component Spectra: 1
Spectrometers: USB2+H05261
Integration Time (usec): 100000 (USB2+H05261)
Spectra Averaged: 1 (USB2+H05261)
Boxcar Smoothing: 0 (USB2+H05261)
Correct for Electrical Dark: No (USB2+H05261)
Strobe/Lamp Enabled: No (USB2+H05261)
Correct for Detector Non-linearity: No (USB2+H05261)
Correct for Stray Light: No (USB2+H05261)
Number of Pixels in Processed Spectrum: 2048
>>>>>Begin Processed Spectral Data<<<<<
365.73	28.09
365.92	28.09
366.12	28.09
366.32	0.00
366.52	0.00
366.72	0.00
366.91	0.00
367.11	0.00
367.31	0.00
367.51	0.00
367.70	0.00
367.90	0.00
368.10	0.00
368.30	0.00
368.49	0.00
368.69	0.00
368.89	0.00
369.09	0.00
369.28	0.00
369.48	0.00
369.68	0.00
369.87	0.00
370.07	18.72
370.27	23.41
370.47	102.98
370.66	49.15
370.86	63.19
371.06	117.03
371.25	95.96
371.45	117.03
371.65	46.81
371.84	93.62
372.04	56.17
372.24	100.64
372.44	37.45
372.63	175.54
372.83	72.56
373.03	140.43
373.22	25.75
373.42	77.24
373.62	60.85
373.81	135.75
374.01	180.22
374.21	168.52
374.40	154.48
374.60	126.39
374.79	110.01
374.99	184.90
375.19	145.11
375.38	58.51
375.58	88.94
375.78	105.32
375.97	124.05
376.17	187.24
376.37	187.24
376.56	107.66
376.76	114.69
376.95	126.39
377.15	152.13
377.35	88.94
377.54	11.70
377.74	77.24
377.93	84.26
378.13	98.30
378.33	98.30
378.52	25.75
378.72	121.71
378.91	163.84
379.11	138.09
379.31	63.19
379.50	77.24
379.70	58.51
379.89	196.60
380.09	65.54
380.28	105.32
380.48	77.24
380.68	173.20
380.87	105.32
381.07	107.66
381.26	168.52
381.46	163.84
381.65	107.66
381.85	70.22
382.04	138.09
382.24	72.56
382.43	128.73
382.63	0.00
382.83	77.24
383.02	159.16
383.22	67.88
383.41	117.03
383.61	135.75
383.80	110.01
384.00	72.56
384.19	145.11
384.39	67.88
384.58	88.94
384.78	138.09
384.97	161.50
385.17	107.66
385.36	152.13
385.56	198.95
385.75	65.54
385.95	124.05
386.14	81.92
386.34	126.39
386.53	163.84
386.72	138.09
386.92	224.69
387.11	119.37
387.31	100.64
387.50	46.81
387.70	154.48
387.89	102.98
388.09	53.83
388.28	105.32
388.48	114.69
388.67	88.94
388.86	56.17
389.06	81.92
389.25	163.84
389.45	119.37
389.64	194.26
389.84	166.18
390.03	112.35
390.22	112.35
390.42	114.69
390.61	105.32
390.81	93.62
391.00	128.73
391.19	142.77
391.39	131.07
391.58	81.92
391.78	88.94
391.97	100.64
392.16	173.20
392.36	72.56
392.55	138.09
392.75	81.92
392.94	95.96
393.13	95.96
393.33	154.48
393.52	107.66
393.71	182.56
393.91	53.83
394.10	147.45
394.29	128.73
394.49	81.92
394.68	98.30
394.88	124.05
395.07	184.90
395.26	154.48
395.46	147.45
395.65	110.01
395.84	173.20
396.04	203.63
396.23	114.69
396.42	93.62
396.62	156.82
396.81	135.75
397.00	21.06
397.19	182.56
397.39	95.96
397.58	177.88
397.77	112.35
397.97	140.43
398.16	149.79
398.35	105.32
398.55	88.94
398.74	95.96
398.93	93.62
399.12	102.98
399.32	100.64
399.51	140.43
399.70	177.88
399.90	100.64
400.09	21.06
400.28	156.82
400.47	142.77
400.67	107.66
400.86	140.43
401.05	117.03
401.24	163.84
401.44	163.84
401.63	147.45
401.82	208.31
402.01	84.26
402.21	184.90
402.40	124.05
402.59	177.88
402.78	210.65
402.97	107.66
403.17	86.60
403.36	154.48
403.55	138.09
403.74	358.10
403.93	924.51
404.13	1645.40
404.32	1708.59
404.51	1390.28
404.70	894.08
404.89	355.76
405.09	238.73
405.28	145.11
405.47	215.33
405.66	154.48
405.85	212.99
406.05	149.79
406.24	170.86
406.43	156.82
406.62	229.37
406.81	229.37
407.00	299.59
407.20	276.18
407.39	330.02
407.58	348.74
407.77	196.60
407.96	220.01
408.15	124.05
408.34	88.94
408.54	84.26
408.73	196.60
408.92	119.37
409.11	114.69
409.30	107.66
409.49	88.94
409.68	149.79
409.87	170.86
410.07	117.03
410.26	126.39
410.45	95.96
410.64	77.24
410.83	37.45
411.02	74.90
411.21	60.85
411.40	138.09
411.59	107.66
411.78	58.51
411.98	63.19
412.17	159.16
412.36	156.82
412.55	124.05
412.74	159.16
412.93	173.20
413.12	63.19
413.31	177.88
413.50	93.62
413.69	140.43
413.88	236.39
414.07	117.03
414.26	173.20
414.45	126.39
414.64	170.86
414.83	189.58
415.02	124.05
415.22	170.86
415.41	170.86
415.60	147.45
415.79	128.73
415.98	217.67
416.17	259.80
416.36	182.56
416.55	124.05
416.74	138.09
416.93	133.41
417.12	70.22
417.31	156.82
417.50	166.18
417.69	205.97
417.88	210.65
418.07	152.13
418.26	154.48
418.45	170.86
418.64	156.82
418.83	163.84
419.02	203.63
419.21	201.29
419.39	210.65
419.58	138.09
419.77	110.01
419.96	173.20
420.15	173.20
420.34	126.39
420.53	161.50
420.72	191.92
420.91	177.88
421.10	175.54
421.29	234.05
421.48	208.31
421.67	276.18
421.86	180.22
422.05	152.13
422.24	189.58
422.43	128.73
422.61	149.79
422.80	215.33
422.99	224.69
423.18	147.45
423.37	210.65
423.56	147.45
423.75	147.45
423.94	191.92
424.13	128.73
424.32	159.16
424.50	241.08
424.69	187.24
424.88	259.80
425.07	131.07
425.26	194.26
425.45	135.75
425.64	208.31
425.83	224.69
426.01	217.67
426.20	180.22
426.39	124.05
426.58	133.41
426.77	133.41
426.96	271.50
427.15	133.41
427.33	177.88
427.52	184.90
427.71	264.48
427.90	131.07
428.09	182.56
428.28	184.90
428.46	215.33
428.65	229.37
428.84	180.22
429.03	227.03
429.22	238.73
429.40	191.92
429.59	159.16
429.78	262.14
429.97	208.31
430.16	159.16
430.34	203.63
430.53	180.22
430.72	229.37
430.91	184.90
431.10	138.09
431.28	180.22
431.47	163.84
431.66	203.63
431.85	208.31
432.03	182.56
432.22	301.93
432.41	124.05
432.60	205.97
432.79	191.92
432.97	278.52
433.16	201.29
433.35	257.46
433.54	278.52
433.72	257.46
433.91	297.25
434.10	341.72
434.28	374.49
434.47	365.12
434.66	388.53
434.85	578.11
435.03	1710.93
435.22	5210.03
435.41	8086.55
435.59	7117.57
435.78	4587.45
435.97	2167.34
436.16	994.73
436.34	421.30
436.53	322.99
436.72	388.53
436.90	224.69
437.09	255.12
437.28	189.58
437.46	306.61
437.65	229.37
437.84	220.01
438.02	299.59
438.21	262.14
438.40	266.82
438.58	245.76
438.77	187.24
438.96	175.54
439.14	159.16
439.33	287.89
439.52	234.05
439.70	271.50
439.89	236.39
440.08	231.71
440.26	299.59
440.45	285.55
440.63	257.46
440.82	198.95
441.01	234.05
441.19	191.92
441.38	222.35
441.57	208.31
441.75	287.89
441.94	269.16
442.12	194.26
442.31	210.65
442.50	182.56
442.68	248.10
442.87	243.42
443.05	224.69
443.24	147.45
443.43	266.82
443.61	191.92
443.80	227.03
443.98	131.07
444.17	271.50
444.35	161.50
444.54	154.48
444.73	236.39
444.91	266.82
445.10	255.12
445.28	236.39
445.47	217.67
445.65	227.03
445.84	203.63
446.02	189.58
446.21	238.73
446.39	201.29
446.58	262.14
446.77	168.52
446.95	266.82
447.14	215.33
447.32	294.91
447.51	177.88
447.69	222.35
447.88	198.95
448.06	297.25
448.25	224.69
448.43	145.11
448.62	259.80
448.80	273.84
448.99	294.91
449.17	229.37
449.36	269.16
449.54	236.39
449.73	234.05
449.91	245.76
450.10	159.16
450.28	245.76
450.46	248.10
450.65	262.14
450.83	271.50
451.02	203.63
451.20	189.58
451.39	252.78
451.57	224.69
451.76	180.22
451.94	250.44
452.13	252.78
452.31	269.16
452.49	187.24
452.68	285.55
452.86	135.75
453.05	266.82
453.23	191.92
453.42	231.71
453.60	231.71
453.78	191.92
453.97	201.29
454.15	238.73
454.34	133.41
454.52	215.33
454.70	278.52
454.89	266.82
455.07	210.65
455.26	278.52
455.44	304.27
455.62	198.95
455.81	196.60
455.99	264.48
456.17	217.67
456.36	285.55
456.54	184.90
456.73	215.33
456.91	212.99
457.09	220.01
457.28	196.60
457.46	208.31
457.64	280.86
457.83	248.10
458.01	140.43
458.19	133.41
458.38	220.01
458.56	194.26
458.74	205.97
458.93	227.03
459.11	236.39
459.29	243.42
459.48	264.48
459.66	290.23
459.84	271.50
460.03	290.23
460.21	196.60
460.39	294.91
460.57	259.80
460.76	250.44
460.94	187.24
461.12	231.71
461.31	173.20
461.49	236.39
461.67	229.37
461.85	264.48
462.04	278.52
462.22	674.07
462.40	278.52
462.59	215.33
462.77	266.82
462.95	250.44
463.13	229.37
463.32	264.48
463.50	276.18
463.68	248.10
463.86	217.67
464.05	203.63
464.23	294.91
464.41	262.14
464.59	248.10
464.78	189.58
464.96	245.76
465.14	278.52
465.32	140.43
465.50	191.92
465.69	227.03
465.87	222.35
466.05	273.84
466.23	208.31
466.41	234.05
466.60	259.80
466.78	231.71
466.96	224.69
467.14	224.69
467.32	173.20
467.51	283.20
467.69	189.58
467.87	245.76
468.05	250.44
468.23	245.76
468.41	269.16
468.60	203.63
468.78	217.67
468.96	250.44
469.14	133.41
469.32	166.18
469.50	105.32
469.69	196.60
469.87	182.56
470.05	238.73
470.23	205.97
470.41	234.05
470.59	156.82
470.77	271.50
470.95	184.90
471.14	187.24
471.32	231.71
471.50	250.44
471.68	311.29
471.86	276.18
472.04	308.95
472.22	264.48
472.40	236.39
472.58	210.65
472.77	215.33
472.95	250.44
473.13	210.65
473.31	234.05
473.49	257.46
473.67	292.57
473.85	283.20
474.03	278.52
474.21	159.16
474.39	276.18
474.57	283.20
474.75	259.80
474.93	245.76
475.12	201.29
475.30	196.60
475.48	198.95
475.66	252.78
475.84	220.01
476.02	306.61
476.20	276.18
476.38	248.10
476.56	294.91
476.74	285.55
476.92	271.50
477.10	269.16
477.28	248.10
477.46	269.16
477.64	156.82
477.82	250.44
478.00	224.69
478.18	271.50
478.36	276.18
478.54	217.67
478.72	262.14
478.90	264.48
479.08	217.67
479.26	231.71
479.44	273.84
479.62	280.86
479.80	262.14
479.98	322.99
480.16	243.42
480.34	344.06
480.52	208.31
480.70	311.29
480.88	334.70
481.06	339.38
481.24	234.05
481.41	292.57
481.59	402.57
481.77	374.49
481.95	365.12
482.13	463.43
482.31	418.96
482.49	430.66
482.67	447.04
482.85	543.00
483.03	475.13
483.21	505.56
483.39	528.96
483.57	507.90
483.74	603.86
483.92	535.98
484.10	608.54
484.28	636.63
484.46	711.52
484.64	711.52
484.82	713.86
485.00	685.78
485.18	758.33
485.35	821.53
485.53	887.06
485.71	924.51
485.89	800.46
486.07	856.64
486.25	966.64
486.43	826.21
486.61	997.07
486.78	976.00
486.96	922.17
487.14	894.08
487.32	912.81
487.50	919.83
487.68	915.15
487.85	945.58
488.03	950.26
488.21	917.49
488.39	880.04
488.57	905.79
488.75	882.38
488.92	1128.14
489.10	830.89
489.28	779.40
489.46	767.70
489.64	821.53
489.81	702.16
489.99	816.85
490.17	844.93
490.35	798.12
490.53	760.67
490.70	741.95
490.88	755.99
491.06	802.80
491.24	828.55
491.41	830.89
491.59	744.29
491.77	725.57
491.95	713.86
492.13	730.25
492.30	751.31
492.48	645.99
492.66	634.29
492.84	650.67
493.01	627.26
493.19	617.90
493.37	763.01
493.54	660.03
493.72	711.52
493.90	636.63
494.08	568.75
494.25	704.50
494.43	617.90
494.61	683.44
494.79	638.97
494.96	568.75
495.14	547.69
495.32	585.13
495.49	608.54
495.67	545.34
495.85	622.58
496.02	547.69
496.20	578.11
496.38	533.64
496.55	580.45
496.73	512.58
496.91	519.60
497.09	533.64
497.26	500.87
497.44	571.09
497.62	465.77
497.79	458.74
497.97	500.87
498.14	512.58
498.32	547.69
498.50	512.58
498.67	505.56
498.85	484.49
499.03	477.47
499.20	367.46
499.38	482.15
499.56	388.53
499.73	486.83
499.91	458.74
500.08	386.19
500.26	404.91
500.44	353.42
500.61	365.12
500.79	433.00
500.97	362.78
501.14	414.27
501.32	360.44
501.49	362.78
501.67	348.74
501.84	372.15
502.02	301.93
502.20	395.55
502.37	397.89
502.55	337.04
502.72	351.08
502.90	351.08
503.07	358.10
503.25	374.49
503.43	341.72
503.60	290.23
503.78	257.46
503.95	297.25
504.13	315.97
504.30	337.04
504.48	341.72
504.65	360.44
504.83	311.29
505.01	245.76
505.18	255.12
505.36	271.50
505.53	325.33
505.71	322.99
505.88	362.78
506.06	353.42
506.23	273.84
506.41	276.18
506.58	334.70
506.76	339.38
506.93	257.46
507.11	322.99
507.28	248.10
507.46	229.37
507.63	203.63
507.81	299.59
507.98	217.67
508.16	259.80
508.33	330.02
508.50	313.63
508.68	339.38
508.85	325.33
509.03	245.76
509.20	330.02
509.38	229.37
509.55	346.40
509.73	252.78
509.90	325.33
510.08	283.20
510.25	322.99
510.42	266.82
510.60	325.33
510.77	252.78
510.95	341.72
511.12	229.37
511.30	215.33
511.47	334.70
511.64	285.55
511.82	283.20
511.99	287.89
512.17	311.29
512.34	227.03
512.51	318.31
512.69	313.63
512.86	339.38
513.04	290.23
513.21	301.93
513.38	236.39
513.56	283.20
513.73	308.95
513.90	262.14
514.08	201.29
514.25	327.68
514.43	278.52
514.60	245.76
514.77	245.76
514.95	301.93
515.12	248.10
515.29	245.76
515.47	220.01
515.64	322.99
515.81	243.42
515.99	278.52
516.16	304.27
516.33	318.31
516.51	220.01
516.68	173.20
516.85	255.12
517.03	231.71
517.20	238.73
517.37	334.70
517.54	294.91
517.72	287.89
517.89	243.42
518.06	217.67
518.24	215.33
518.41	243.42
518.58	287.89
518.75	271.50
518.93	250.44
519.10	248.10
519.27	187.24
519.45	299.59
519.62	215.33
519.79	229.37
519.96	273.84
520.14	280.86
520.31	236.39
520.48	320.65
520.65	294.91
520.83	292.57
521.00	234.05
521.17	191.92
521.34	227.03
521.52	234.05
521.69	220.01
521.86	280.86
522.03	337.04
522.20	292.57
522.38	294.91
522.55	287.89
522.72	210.65
522.89	273.84
523.07	294.91
523.24	217.67
523.41	271.50
523.58	255.12
523.75	229.37
523.92	287.89
524.10	285.55
524.27	280.86
524.44	290.23
524.61	280.86
524.78	250.44
524.96	344.06
525.13	269.16
525.30	297.25
525.47	290.23
525.64	330.02
525.81	306.61
525.98	241.08
526.16	276.18
526.33	292.57
526.50	252.78
526.67	294.91
526.84	292.57
527.01	250.44
527.18	231.71
527.36	294.91
527.53	262.14
527.70	283.20
527.87	311.29
528.04	360.44
528.21	269.16
528.38	362.78
528.55	346.40
528.72	353.42
528.89	259.80
529.07	299.59
529.24	266.82
529.41	353.42
529.58	252.78
529.75	234.05
529.92	376.83
530.09	376.83
530.26	425.98
530.43	334.70
530.60	262.14
530.77	332.36
530.94	393.21
531.11	388.53
531.28	362.78
531.46	383.85
531.63	297.25
531.80	344.06
531.97	386.19
532.14	374.49
532.31	402.57
532.48	442.36
532.65	545.34
532.82	613.22
532.99	526.62
533.16	599.18
533.33	688.12
533.50	613.22
533.67	500.87
533.84	519.60
534.01	491.51
534.18	463.43
534.35	477.47
534.52	472.79
534.69	491.51
534.86	498.53
535.03	461.09
535.20	510.24
535.37	552.37
535.54	489.17
535.71	524.28
535.88	601.52
536.05	645.99
536.22	650.67
536.38	690.46
536.55	767.70
536.72	763.01
536.89	758.33
537.06	835.57
537.23	884.72
537.40	978.34
537.57	1050.90
537.74	1074.31
537.91	1165.59
538.08	1193.67
538.25	1247.51
538.42	1235.80
538.59	1263.89
538.75	1212.40
538.92	1256.87
539.09	1432.41
539.26	1577.52
539.43	1792.85
539.60	2052.65
539.77	2188.40
539.94	2422.45
540.11	2590.97
540.28	2970.14
540.44	3133.98
540.61	3393.78
540.78	4042.11
540.95	4770.01
541.12	5427.70
541.29	5877.09
541.46	6282.00
541.62	5982.41
541.79	5806.87
541.96	5584.52
542.13	5062.58
542.30	4861.29
542.47	4650.64
542.63	4327.65
542.80	4138.07
542.97	4369.78
543.14	4362.76
543.31	4241.05
543.48	4287.86
543.64	4402.55
543.81	4404.89
543.98	4381.48
544.15	4241.05
544.32	4248.07
544.48	4128.70
544.65	4187.22
544.82	4205.94
544.99	4227.01
545.16	4461.06
545.32	4805.12
545.49	9811.53
545.66	14560.47
545.83	15892.24
546.00	12812.09
546.16	9071.92
546.33	6780.53
546.50	5170.24
546.67	4252.75
546.83	3824.44
547.00	3667.62
547.17	3405.48
547.34	3241.64
547.50	3171.43
547.67	3096.53
547.84	3005.25
548.00	2932.69
548.17	2796.94
548.34	2689.28
548.51	2579.27
548.67	2499.69
548.84	2424.80
549.01	2333.51
549.18	2216.49
549.34	2106.48
549.51	2083.08
549.68	2026.90
549.84	1874.77
550.01	1872.43
550.18	1898.17
550.34	1809.23
550.51	1621.99
550.68	1638.38
550.84	1563.48
551.01	1439.43
551.18	1315.38
551.34	1345.81
551.51	1226.44
551.68	1256.87
551.84	1242.82
552.01	1090.69
552.18	1064.94
552.34	1142.18
552.51	1006.43
552.68	1022.81
552.84	964.30
553.01	910.47
553.18	994.73
553.34	947.92
553.51	856.64
553.67	922.17
553.84	894.08
554.01	763.01
554.17	758.33
554.34	713.86
554.51	617.90
554.67	657.69
554.84	634.29
555.00	655.35
555.17	557.05
555.33	596.84
555.50	552.37
555.67	561.73
555.83	524.28
556.00	540.66
556.16	662.37
556.33	533.64
556.50	404.91
556.66	465.77
556.83	458.74
556.99	454.06
557.16	428.32
557.32	386.19
557.49	425.98
557.65	451.72
557.82	444.70
557.98	369.80
558.15	442.36
558.32	369.80
558.48	367.46
558.65	416.62
558.81	433.00
558.98	367.46
559.14	320.65
559.31	393.21
559.47	400.23
559.64	423.64
559.80	367.46
559.97	308.95
560.13	322.99
560.30	358.10
560.46	353.42
560.63	351.08
560.79	381.51
560.96	362.78
561.12	311.29
561.29	313.63
561.45	337.04
561.61	376.83
561.78	397.89
561.94	313.63
562.11	341.72
562.27	287.89
562.44	308.95
562.60	297.25
562.77	369.80
562.93	414.27
563.10	320.65
563.26	297.25
563.42	386.19
563.59	407.25
563.75	322.99
563.92	421.30
564.08	374.49
564.24	280.86
564.41	400.23
564.57	301.93
564.74	224.69
564.90	330.02
565.07	379.17
565.23	330.02
565.39	271.50
565.56	248.10
565.72	287.89
565.88	299.59
566.05	344.06
566.21	322.99
566.38	280.86
566.54	304.27
566.70	297.25
566.87	285.55
567.03	266.82
567.19	393.21
567.36	322.99
567.52	262.14
567.68	320.65
567.85	266.82
568.01	351.08
568.17	353.42
568.34	337.04
568.50	330.02
568.66	351.08
568.83	409.59
568.99	379.17
569.15	355.76
569.32	285.55
569.48	330.02
569.64	318.31
569.81	276.18
569.97	332.36
570.13	283.20
570.30	259.80
570.46	271.50
570.62	334.70
570.78	278.52
570.95	205.97
571.11	327.68
571.27	287.89
571.43	250.44
571.60	353.42
571.76	301.93
571.92	212.99
572.09	252.78
572.25	297.25
572.41	262.14
572.57	311.29
572.74	264.48
572.90	227.03
573.06	369.80
573.22	283.20
573.38	299.59
573.55	301.93
573.71	318.31
573.87	271.50
574.03	294.91
574.20	259.80
574.36	346.40
574.52	320.65
574.68	280.86
574.84	332.36
575.01	320.65
575.17	318.31
575.33	334.70
575.49	388.53
575.65	381.51
575.82	430.66
575.98	421.30
576.14	475.13
576.30	887.06
576.46	2225.85
576.62	2815.66
576.79	2729.06
576.95	2015.20
577.11	1460.49
577.27	1095.37
577.43	800.46
577.59	573.43
577.75	482.15
577.92	461.09
578.08	496.19
578.24	528.96
578.40	957.28
578.56	1949.67
578.72	2576.93
578.88	2478.63
579.04	2045.63
579.21	1397.30
579.37	1163.25
579.53	919.83
579.69	1050.90
579.85	1177.29
580.01	1186.65
580.17	1104.73
580.33	964.30
580.49	1020.47
580.65	802.80
580.82	802.80
580.98	760.67
581.14	788.76
581.30	833.23
581.46	868.34
581.62	985.37
581.78	1006.43
581.94	1046.22
582.10	990.05
582.26	1177.29
582.42	1111.75
582.58	1167.93
582.74	1184.31
582.90	1198.35
583.06	1231.12
583.22	1186.65
583.38	1233.46
583.54	1116.44
583.70	1144.52
583.86	1123.46
584.02	1125.80
584.18	1142.18
584.34	1160.91
584.50	1163.25
584.66	1114.10
584.82	1011.11
584.98	1109.41
585.14	1053.24
585.30	1062.60
585.46	1107.07
585.62	990.05
585.78	1006.43
585.94	1029.84
586.10	1081.33
586.26	1128.14
586.42	1336.45
586.58	1589.22
586.74	1732.00
586.90	2026.90
587.06	2197.76
587.22	1961.37
587.38	1816.26
587.54	1554.12
587.70	1458.15
587.86	1240.48
588.02	1139.84
588.18	905.79
588.34	887.06
588.49	774.72
588.65	809.83
588.81	748.97
588.97	676.41
589.13	746.63
589.29	732.59
589.45	760.67
589.61	671.73
589.77	706.84
589.93	711.52
590.08	725.57
590.24	751.31
590.40	807.48
590.56	812.17
590.72	812.17
590.88	777.06
591.04	786.42
591.20	898.77
591.35	926.85
591.51	863.66
591.67	936.21
591.83	1093.03
591.99	1109.41
592.15	1153.88
592.31	1240.48
592.46	1320.06
592.62	1523.69
592.78	1507.30
592.94	1577.52
593.10	1589.22
593.26	1380.92
593.41	1376.24
593.57	1233.46
593.73	1083.67
593.89	992.39
594.05	866.00
594.20	884.72
594.36	821.53
594.52	732.59
594.68	718.54
594.84	709.18
594.99	688.12
595.15	716.20
595.31	655.35
595.47	645.99
595.62	629.60
595.78	695.14
595.94	643.65
596.10	690.46
596.25	648.33
596.41	662.37
596.57	692.80
596.73	676.41
596.88	617.90
597.04	704.50
597.20	671.73
597.36	585.13
597.51	655.35
597.67	683.44
597.83	755.99
597.99	802.80
598.14	842.59
598.30	868.34
598.46	807.48
598.61	961.96
598.77	959.62
598.93	990.05
599.09	1032.18
599.24	1090.69
599.40	966.64
599.56	917.49
599.71	992.39
599.87	814.51
600.03	842.59
600.18	779.40
600.34	711.52
600.50	636.63
600.65	695.14
600.81	690.46
600.97	657.69
601.12	636.63
601.28	606.20
601.44	559.39
601.59	535.98
601.75	512.58
601.91	568.75
602.06	568.75
602.22	519.60
602.37	491.51
602.53	489.17
602.69	507.90
602.84	430.66
603.00	507.90
603.16	519.60
603.31	606.20
603.47	564.07
603.62	458.74
603.78	442.36
603.94	573.43
604.09	599.18
604.25	533.64
604.40	500.87
604.56	507.90
604.71	627.26
604.87	599.18
605.03	482.15
605.18	547.69
605.34	596.84
605.49	554.71
605.65	634.29
605.80	596.84
605.96	624.92
606.12	716.20
606.27	622.58
606.43	732.59
606.58	716.20
606.74	716.20
606.89	837.91
607.05	748.97
607.20	805.14
607.36	851.96
607.51	814.51
607.67	933.87
607.82	983.02
607.98	1100.05
608.13	1200.69
608.29	1224.10
608.44	1373.89
608.60	1383.26
608.75	1572.84
608.91	1558.80
609.06	1778.81
609.22	1891.15
609.37	2024.56
609.53	2293.72
609.68	2712.68
609.84	3038.02
609.99	3410.16
610.15	4049.13
610.30	5020.45
610.46	6466.90
610.61	8400.18
610.76	10347.51
610.92	12336.96
611.07	13500.21
611.23	13577.45
611.38	12425.90
611.54	11178.40
611.69	9535.34
611.84	7929.74
612.00	6537.12
612.15	5636.01
612.31	5006.41
612.46	4554.68
612.62	4187.22
612.77	4119.34
612.92	3688.68
613.08	3482.72
613.23	3405.48
613.39	3157.38
613.54	3220.58
613.69	3162.06
613.85	2988.86
614.00	3073.12
614.15	3183.13
614.31	3061.42
614.46	2883.54
614.62	2787.58
614.77	2752.47
614.92	2487.99
615.08	2314.79
615.23	2179.04
615.38	2078.40
615.54	1830.30
615.69	1827.96
615.84	1563.48
616.00	1474.54
616.15	1441.77
616.30	1299.00
616.46	1273.25
616.61	1259.21
616.76	1163.25
616.92	1043.88
617.07	971.32
617.22	964.30
617.37	1039.20
617.53	973.66
617.68	896.43
617.83	933.87
617.99	866.00
618.14	861.32
618.29	866.00
618.45	844.93
618.60	819.19
618.75	847.27
618.90	760.67
619.06	819.19
619.21	791.10
619.36	788.76
619.51	786.42
619.67	819.19
619.82	809.83
619.97	746.63
620.12	793.44
620.28	898.77
620.43	777.06
620.58	828.55
620.73	814.51
620.89	812.17
621.04	788.76
621.19	858.98
621.34	786.42
621.49	819.19
621.65	947.92
621.80	727.91
621.95	767.70
622.10	819.19
622.25	826.21
622.41	873.02
622.56	781.74
622.71	903.45
622.86	903.45
623.01	814.51
623.16	870.68
623.32	940.90
623.47	983.02
623.62	889.40
623.77	922.17
623.92	870.68
624.07	882.38
624.23	950.26
624.38	908.13
624.53	908.13
624.68	866.00
624.83	898.77
624.98	912.81
625.13	858.98
625.29	898.77
625.44	795.78
625.59	851.96
625.74	891.74
625.89	936.21
626.04	868.34
626.19	882.38
626.34	835.57
626.49	882.38
626.65	849.61
626.80	922.17
626.95	847.27
627.10	901.11
627.25	812.17
627.40	837.91
627.55	877.70
627.70	784.08
627.85	880.04
628.00	793.44
628.15	791.10
628.30	784.08
628.45	833.23
628.60	781.74
628.76	830.89
628.91	774.72
629.06	695.14
629.21	823.87
629.36	835.57
629.51	919.83
629.66	812.17
629.81	1029.84
629.96	1020.47
630.11	1179.63
630.26	1282.61
630.41	1352.83
630.56	1465.18
630.71	1509.65
630.86	1547.09
631.01	1516.67
631.16	1448.79
631.31	1219.42
631.46	1088.35
631.61	926.85
631.76	812.17
631.91	779.40
632.06	685.78
632.21	631.94
632.36	449.38
632.51	475.13
632.66	468.11
632.81	449.38
632.96	423.64
633.10	489.17
633.25	468.11
633.40	449.38
633.55	280.86
633.70	395.55
633.85	365.12
634.00	383.85
634.15	292.57
634.30	365.12
634.45	318.31
634.60	353.42
634.75	332.36
634.90	397.89
635.05	374.49
635.19	374.49
635.34	344.06
635.49	330.02
635.64	266.82
635.79	255.12
635.94	365.12
636.09	414.27
636.24	285.55
636.39	353.42
636.53	318.31
636.68	294.91
636.83	325.33
636.98	299.59
637.13	294.91
637.28	358.10
637.43	341.72
637.57	360.44
637.72	313.63
637.87	255.12
638.02	248.10
638.17	264.48
638.32	344.06
638.46	280.86
638.61	327.68
638.76	273.84
638.91	271.50
639.06	252.78
639.20	285.55
639.35	196.60
639.50	278.52
639.65	330.02
639.80	304.27
639.94	355.76
640.09	299.59
640.24	227.03
640.39	285.55
640.54	280.86
640.68	315.97
640.83	269.16
640.98	325.33
641.13	313.63
641.27	255.12
641.42	322.99
641.57	217.67
641.72	285.55
641.86	196.60
642.01	191.92
642.16	341.72
642.31	238.73
642.45	259.80
642.60	243.42
642.75	285.55
642.90	313.63
643.04	210.65
643.19	301.93
643.34	266.82
643.48	245.76
643.63	156.82
643.78	339.38
643.93	259.80
644.07	271.50
644.22	294.91
644.37	278.52
644.51	301.93
644.66	285.55
644.81	257.46
644.95	320.65
645.10	266.82
645.25	227.03
645.39	283.20
645.54	257.46
645.69	348.74
645.83	269.16
645.98	264.48
646.13	327.68
646.27	222.35
646.42	168.52
646.57	210.65
646.71	266.82
646.86	217.67
647.00	297.25
647.15	311.29
647.30	234.05
647.44	229.37
647.59	262.14
647.74	166.18
647.88	269.16
648.03	294.91
648.17	318.31
648.32	341.72
648.47	276.18
648.61	264.48
648.76	301.93
648.90	280.86
649.05	330.02
649.20	280.86
649.34	280.86
649.49	283.20
649.63	330.02
649.78	402.57
649.92	402.57
650.07	428.32
650.21	550.03
650.36	493.85
650.51	566.41
650.65	554.71
650.80	402.57
650.94	372.15
651.09	409.59
651.23	358.10
651.38	311.29
651.52	311.29
651.67	266.82
651.81	362.78
651.96	287.89
652.10	222.35
652.25	297.25
652.39	372.15
652.54	318.31
652.68	379.17
652.83	318.31
652.97	334.70
653.12	332.36
653.26	339.38
653.41	320.65
653.55	276.18
653.70	227.03
653.84	360.44
653.99	306.61
654.13	341.72
654.27	243.42
654.42	182.56
654.56	292.57
654.71	292.57
654.85	212.99
655.00	315.97
655.14	339.38
655.29	241.08
655.43	292.57
655.57	198.95
655.72	259.80
655.86	250.44
656.01	177.88
656.15	229.37
656.30	337.04
656.44	283.20
656.58	182.56
656.73	269.16
656.87	252.78
657.01	273.84
657.16	259.80
657.30	222.35
657.45	381.51
657.59	290.23
657.73	301.93
657.88	278.52
658.02	320.65
658.16	299.59
658.31	248.10
658.45	241.08
658.60	210.65
658.74	245.76
658.88	163.84
659.03	170.86
659.17	156.82
659.31	133.41
659.46	156.82
659.60	170.86
659.74	208.31
659.89	264.48
660.03	231.71
660.17	217.67
660.32	229.37
660.46	224.69
660.60	201.29
660.74	215.33
660.89	245.76
661.03	212.99
661.17	168.52
661.32	234.05
661.46	180.22
661.60	264.48
661.74	294.91
661.89	395.55
662.03	416.62
662.17	367.46
662.31	386.19
662.46	374.49
662.60	365.12
662.74	297.25
662.88	234.05
663.03	315.97
663.17	238.73
663.31	259.80
663.45	308.95
663.60	262.14
663.74	299.59
663.88	252.78
664.02	285.55
664.17	266.82
664.31	259.80
664.45	245.76
664.59	252.78
664.73	196.60
664.88	201.29
665.02	215.33
665.16	184.90
665.30	220.01
665.44	187.24
665.59	205.97
665.73	149.79
665.87	264.48
666.01	184.90
666.15	222.35
666.29	173.20
666.44	285.55
666.58	168.52
666.72	210.65
666.86	210.65
667.00	166.18
667.14	217.67
667.28	259.80
667.43	191.92
667.57	229.37
667.71	163.84
667.85	212.99
667.99	229.37
668.13	149.79
668.27	198.95
668.41	318.31
668.56	257.46
668.70	234.05
668.84	229.37
668.98	227.03
669.12	149.79
669.26	205.97
669.40	215.33
669.54	236.39
669.68	184.90
669.82	145.11
669.96	234.05
670.10	170.86
670.25	259.80
670.39	259.80
670.53	259.80
670.67	203.63
670.81	210.65
670.95	215.33
671.09	201.29
671.23	229.37
671.37	191.92
671.51	196.60
671.65	196.60
671.79	210.65
671.93	191.92
672.07	266.82
672.21	189.58
672.35	210.65
672.49	180.22
672.63	177.88
672.77	250.44
672.91	245.76
673.05	173.20
673.19	175.54
673.33	196.60
673.47	304.27
673.61	133.41
673.75	208.31
673.89	166.18
674.03	210.65
674.17	283.20
674.31	229.37
674.45	229.37
674.59	187.24
674.73	205.97
674.87	173.20
675.01	222.35
675.15	182.56
675.29	308.95
675.43	210.65
675.56	117.03
675.70	234.05
675.84	227.03
675.98	189.58
676.12	191.92
676.26	259.80
676.40	166.18
676.54	191.92
676.68	152.13
676.82	145.11
676.96	161.50
677.10	198.95
677.23	182.56
677.37	203.63
677.51	170.86
677.65	198.95
677.79	156.82
677.93	212.99
678.07	145.11
678.21	201.29
678.34	210.65
678.48	161.50
678.62	215.33
678.76	175.54
678.90	191.92
679.04	215.33
679.18	210.65
679.31	140.43
679.45	168.52
679.59	170.86
679.73	145.11
679.87	152.13
680.00	196.60
680.14	135.75
680.28	205.97
680.42	161.50
680.56	152.13
680.70	112.35
680.83	287.89
680.97	182.56
681.11	224.69
681.25	170.86
681.39	140.43
681.52	191.92
681.66	177.88
681.80	245.76
681.94	180.22
682.07	220.01
682.21	210.65
682.35	208.31
682.49	203.63
682.62	163.84
682.76	212.99
682.90	205.97
683.04	175.54
683.17	140.43
683.31	140.43
683.45	161.50
683.59	121.71
683.72	126.39
683.86	154.48
684.00	58.51
684.13	184.90
684.27	154.48
684.41	184.90
684.55	58.51
684.68	98.30
684.82	175.54
684.96	184.90
685.09	147.45
685.23	212.99
685.37	203.63
685.50	173.20
685.64	215.33
685.78	152.13
685.91	196.60
686.05	205.97
686.19	131.07
686.32	191.92
686.46	182.56
686.60	184.90
686.73	273.84
686.87	215.33
687.01	159.16
687.14	217.67
687.28	198.95
687.42	168.52
687.55	322.99
687.69	262.14
687.82	238.73
687.96	243.42
688.10	224.69
688.23	280.86
688.37	325.33
688.50	287.89
688.64	252.78
688.78	212.99
688.91	236.39
689.05	189.58
689.18	156.82
689.32	133.41
689.46	224.69
689.59	234.05
689.73	147.45
689.86	191.92
690.00	205.97
690.13	163.84
690.27	142.77
690.41	194.26
690.54	191.92
690.68	170.86
690.81	128.73
690.95	119.37
691.08	119.37
691.22	180.22
691.35	142.77
691.49	161.50
691.62	203.63
691.76	16.38
691.89	117.03
692.03	205.97
692.16	147.45
692.30	145.11
692.43	175.54
692.57	98.30
692.70	100.64
692.84	189.58
692.97	84.26
693.11	88.94
693.24	184.90
693.38	126.39
693.51	187.24
693.65	271.50
693.78	210.65
693.92	212.99
694.05	152.13
694.19	163.84
694.32	149.79
694.45	114.69
694.59	126.39
694.72	121.71
694.86	84.26
694.99	205.97
695.13	152.13
695.26	154.48
695.39	145.11
695.53	234.05
695.66	191.92
695.80	149.79
695.93	131.07
696.07	147.45
696.20	163.84
696.33	98.30
696.47	175.54
696.60	74.90
696.73	168.52
696.87	168.52
697.00	184.90
697.14	81.92
697.27	124.05
697.40	138.09
697.54	140.43
697.67	49.15
697.80	182.56
697.94	126.39
698.07	117.03
698.21	121.71
698.34	210.65
698.47	159.16
698.61	161.50
698.74	142.77
698.87	194.26
699.01	194.26
699.14	56.17
699.27	154.48
699.40	170.86
699.54	128.73
699.67	203.63
699.80	159.16
699.94	205.97
700.07	100.64
700.20	119.37
700.34	152.13
700.47	140.43
700.60	74.90
700.73	117.03
700.87	189.58
701.00	107.66
701.13	93.62
701.26	135.75
701.40	140.43
701.53	147.45
701.66	58.51
701.79	182.56
701.93	126.39
702.06	198.95
702.19	133.41
702.32	173.20
702.46	110.01
702.59	72.56
702.72	84.26
702.85	112.35
702.99	154.48
703.12	191.92
703.25	63.19
703.38	161.50
703.51	121.71
703.65	107.66
703.78	173.20
703.91	159.16
704.04	107.66
704.17	168.52
704.31	156.82
704.44	147.45
704.57	159.16
704.70	110.01
704.83	170.86
704.96	131.07
705.10	194.26
705.23	234.05
>>>>>End Processed Spectral Data<<<<<
