SpectraSuite Data File
++++++++++++++++++++++++++++++++++++
Date: Fri Oct 04 11:42:28 GMT-05:00 2013
User: price-jones
Dark Spectrum Present: No
Reference Spectrum Present: No
Number of Sampled Component Spectra: 1
Spectrometers: USB2+H05261
Integration Time (usec): 100000 (USB2+H05261)
Spectra Averaged: 1 (USB2+H05261)
Boxcar Smoothing: 0 (USB2+H05261)
Correct for Electrical Dark: No (USB2+H05261)
Strobe/Lamp Enabled: No (USB2+H05261)
Correct for Detector Non-linearity: No (USB2+H05261)
Correct for Stray Light: No (USB2+H05261)
Number of Pixels in Processed Spectrum: 2048
>>>>>Begin Processed Spectral Data<<<<<
365.73	79.58
365.92	79.58
366.12	79.58
366.32	0.00
366.52	0.00
366.72	0.00
366.91	0.00
367.11	0.00
367.31	0.00
367.51	0.00
367.70	0.00
367.90	0.00
368.10	0.00
368.30	0.00
368.49	0.00
368.69	0.00
368.89	0.00
369.09	0.00
369.28	0.00
369.48	0.00
369.68	0.00
369.87	0.00
370.07	0.00
370.27	7.02
370.47	0.00
370.66	18.72
370.86	39.79
371.06	39.79
371.25	67.88
371.45	72.56
371.65	93.62
371.84	51.49
372.04	4.68
372.24	131.07
372.44	60.85
372.63	107.66
372.83	147.45
373.03	161.50
373.22	149.79
373.42	51.49
373.62	124.05
373.81	182.56
374.01	138.09
374.21	152.13
374.40	194.26
374.60	196.60
374.79	114.69
374.99	145.11
375.19	180.22
375.38	133.41
375.58	84.26
375.78	166.18
375.97	140.43
376.17	175.54
376.37	126.39
376.56	152.13
376.76	126.39
376.95	84.26
377.15	86.60
377.35	100.64
377.54	110.01
377.74	114.69
377.93	72.56
378.13	98.30
378.33	105.32
378.52	114.69
378.72	81.92
378.91	124.05
379.11	119.37
379.31	72.56
379.50	35.11
379.70	194.26
379.89	79.58
380.09	102.98
380.28	84.26
380.48	51.49
380.68	93.62
380.87	166.18
381.07	72.56
381.26	166.18
381.46	135.75
381.65	67.88
381.85	147.45
382.04	72.56
382.24	67.88
382.43	117.03
382.63	131.07
382.83	102.98
383.02	149.79
383.22	119.37
383.41	112.35
383.61	95.96
383.80	67.88
384.00	86.60
384.19	119.37
384.39	105.32
384.58	88.94
384.78	126.39
384.97	37.45
385.17	133.41
385.36	105.32
385.56	152.13
385.75	107.66
385.95	88.94
386.14	119.37
386.34	138.09
386.53	9.36
386.72	93.62
386.92	105.32
387.11	163.84
387.31	140.43
387.50	72.56
387.70	112.35
387.89	98.30
388.09	124.05
388.28	112.35
388.48	88.94
388.67	63.19
388.86	58.51
389.06	117.03
389.25	114.69
389.45	110.01
389.64	159.16
389.84	210.65
390.03	161.50
390.22	147.45
390.42	30.43
390.61	72.56
390.81	84.26
391.00	135.75
391.19	117.03
391.39	152.13
391.58	124.05
391.78	84.26
391.97	84.26
392.16	98.30
392.36	58.51
392.55	102.98
392.75	159.16
392.94	140.43
393.13	152.13
393.33	124.05
393.52	114.69
393.71	156.82
393.91	138.09
394.10	65.54
394.29	98.30
394.49	105.32
394.68	194.26
394.88	91.28
395.07	184.90
395.26	95.96
395.46	159.16
395.65	133.41
395.84	105.32
396.04	140.43
396.23	91.28
396.42	74.90
396.62	124.05
396.81	77.24
397.00	175.54
397.19	145.11
397.39	112.35
397.58	159.16
397.77	128.73
397.97	212.99
398.16	121.71
398.35	159.16
398.55	16.38
398.74	70.22
398.93	72.56
399.12	128.73
399.32	74.90
399.51	184.90
399.70	140.43
399.90	117.03
400.09	100.64
400.28	124.05
400.47	138.09
400.67	175.54
400.86	117.03
401.05	201.29
401.24	152.13
401.44	264.48
401.63	159.16
401.82	201.29
402.01	220.01
402.21	166.18
402.40	105.32
402.59	88.94
402.78	175.54
402.97	95.96
403.17	102.98
403.36	138.09
403.55	191.92
403.74	301.93
403.93	730.25
404.13	1579.86
404.32	2305.43
404.51	2396.71
404.70	1643.06
404.89	582.79
405.09	332.36
405.28	107.66
405.47	168.52
405.66	191.92
405.85	70.22
406.05	147.45
406.24	168.52
406.43	110.01
406.62	163.84
406.81	210.65
407.00	252.78
407.20	278.52
407.39	393.21
407.58	433.00
407.77	421.30
407.96	278.52
408.15	187.24
408.34	128.73
408.54	131.07
408.73	140.43
408.92	105.32
409.11	112.35
409.30	215.33
409.49	156.82
409.68	93.62
409.87	173.20
410.07	84.26
410.26	147.45
410.45	170.86
410.64	140.43
410.83	145.11
411.02	100.64
411.21	145.11
411.40	217.67
411.59	147.45
411.78	163.84
411.98	191.92
412.17	86.60
412.36	180.22
412.55	168.52
412.74	161.50
412.93	262.14
413.12	93.62
413.31	152.13
413.50	112.35
413.69	182.56
413.88	168.52
414.07	145.11
414.26	149.79
414.45	142.77
414.64	194.26
414.83	205.97
415.02	79.58
415.22	243.42
415.41	138.09
415.60	180.22
415.79	149.79
415.98	140.43
416.17	182.56
416.36	259.80
416.55	138.09
416.74	152.13
416.93	163.84
417.12	100.64
417.31	175.54
417.50	114.69
417.69	191.92
417.88	149.79
418.07	128.73
418.26	222.35
418.45	114.69
418.64	196.60
418.83	154.48
419.02	156.82
419.21	198.95
419.39	117.03
419.58	135.75
419.77	142.77
419.96	114.69
420.15	257.46
420.34	156.82
420.53	128.73
420.72	238.73
420.91	163.84
421.10	229.37
421.29	217.67
421.48	166.18
421.67	159.16
421.86	117.03
422.05	182.56
422.24	184.90
422.43	182.56
422.61	102.98
422.80	229.37
422.99	147.45
423.18	140.43
423.37	159.16
423.56	173.20
423.75	154.48
423.94	229.37
424.13	156.82
424.32	170.86
424.50	220.01
424.69	163.84
424.88	250.44
425.07	196.60
425.26	234.05
425.45	257.46
425.64	191.92
425.83	117.03
426.01	203.63
426.20	180.22
426.39	250.44
426.58	191.92
426.77	208.31
426.96	252.78
427.15	245.76
427.33	201.29
427.52	184.90
427.71	224.69
427.90	320.65
428.09	177.88
428.28	212.99
428.46	217.67
428.65	208.31
428.84	280.86
429.03	187.24
429.22	170.86
429.40	210.65
429.59	250.44
429.78	259.80
429.97	154.48
430.16	152.13
430.34	182.56
430.53	173.20
430.72	276.18
430.91	259.80
431.10	229.37
431.28	173.20
431.47	243.42
431.66	229.37
431.85	205.97
432.03	248.10
432.22	297.25
432.41	278.52
432.60	320.65
432.79	229.37
432.97	217.67
433.16	231.71
433.35	318.31
433.54	306.61
433.72	243.42
433.91	278.52
434.10	353.42
434.28	411.93
434.47	346.40
434.66	489.17
434.85	510.24
435.03	1074.31
435.22	3335.26
435.41	7861.86
435.59	10120.48
435.78	7304.81
435.97	3604.42
436.16	1427.73
436.34	517.26
436.53	355.76
436.72	311.29
436.90	334.70
437.09	248.10
437.28	280.86
437.46	227.03
437.65	245.76
437.84	308.95
438.02	334.70
438.21	276.18
438.40	280.86
438.58	236.39
438.77	278.52
438.96	271.50
439.14	271.50
439.33	266.82
439.52	201.29
439.70	250.44
439.89	311.29
440.08	224.69
440.26	325.33
440.45	379.17
440.63	250.44
440.82	243.42
441.01	273.84
441.19	229.37
441.38	189.58
441.57	229.37
441.75	259.80
441.94	252.78
442.12	259.80
442.31	271.50
442.50	245.76
442.68	278.52
442.87	243.42
443.05	243.42
443.24	285.55
443.43	243.42
443.61	308.95
443.80	196.60
443.98	257.46
444.17	238.73
444.35	308.95
444.54	168.52
444.73	222.35
444.91	245.76
445.10	236.39
445.28	215.33
445.47	243.42
445.65	313.63
445.84	271.50
446.02	255.12
446.21	283.20
446.39	273.84
446.58	318.31
446.77	311.29
446.95	205.97
447.14	264.48
447.32	259.80
447.51	236.39
447.69	294.91
447.88	280.86
448.06	320.65
448.25	250.44
448.43	283.20
448.62	187.24
448.80	257.46
448.99	332.36
449.17	297.25
449.36	177.88
449.54	257.46
449.73	259.80
449.91	238.73
450.10	315.97
450.28	351.08
450.46	285.55
450.65	285.55
450.83	285.55
451.02	276.18
451.20	222.35
451.39	224.69
451.57	283.20
451.76	248.10
451.94	220.01
452.13	280.86
452.31	348.74
452.49	205.97
452.68	292.57
452.86	325.33
453.05	304.27
453.23	170.86
453.42	252.78
453.60	234.05
453.78	248.10
453.97	205.97
454.15	212.99
454.34	285.55
454.52	234.05
454.70	287.89
454.89	257.46
455.07	285.55
455.26	217.67
455.44	308.95
455.62	264.48
455.81	278.52
455.99	227.03
456.17	250.44
456.36	250.44
456.54	257.46
456.73	259.80
456.91	273.84
457.09	313.63
457.28	271.50
457.46	283.20
457.64	273.84
457.83	250.44
458.01	250.44
458.19	276.18
458.38	177.88
458.56	187.24
458.74	248.10
458.93	210.65
459.11	243.42
459.29	285.55
459.48	304.27
459.66	241.08
459.84	318.31
460.03	332.36
460.21	241.08
460.39	241.08
460.57	278.52
460.76	194.26
460.94	224.69
461.12	238.73
461.31	334.70
461.49	280.86
461.67	215.33
461.85	273.84
462.04	238.73
462.22	383.85
462.40	252.78
462.59	269.16
462.77	217.67
462.95	262.14
463.13	271.50
463.32	229.37
463.50	259.80
463.68	227.03
463.86	236.39
464.05	224.69
464.23	259.80
464.41	304.27
464.59	276.18
464.78	255.12
464.96	292.57
465.14	243.42
465.32	318.31
465.50	175.54
465.69	271.50
465.87	280.86
466.05	308.95
466.23	231.71
466.41	311.29
466.60	292.57
466.78	217.67
466.96	250.44
467.14	238.73
467.32	292.57
467.51	273.84
467.69	262.14
467.87	224.69
468.05	280.86
468.23	191.92
468.41	292.57
468.60	180.22
468.78	252.78
468.96	285.55
469.14	196.60
469.32	280.86
469.50	311.29
469.69	234.05
469.87	220.01
470.05	215.33
470.23	294.91
470.41	205.97
470.59	250.44
470.77	250.44
470.95	292.57
471.14	238.73
471.32	318.31
471.50	217.67
471.68	212.99
471.86	266.82
472.04	161.50
472.22	170.86
472.40	217.67
472.58	287.89
472.77	255.12
472.95	245.76
473.13	301.93
473.31	301.93
473.49	280.86
473.67	203.63
473.85	220.01
474.03	318.31
474.21	252.78
474.39	217.67
474.57	262.14
474.75	297.25
474.93	273.84
475.12	222.35
475.30	220.01
475.48	311.29
475.66	280.86
475.84	248.10
476.02	222.35
476.20	231.71
476.38	234.05
476.56	227.03
476.74	294.91
476.92	201.29
477.10	245.76
477.28	301.93
477.46	297.25
477.64	266.82
477.82	292.57
478.00	271.50
478.18	266.82
478.36	297.25
478.54	351.08
478.72	255.12
478.90	257.46
479.08	259.80
479.26	362.78
479.44	292.57
479.62	276.18
479.80	308.95
479.98	285.55
480.16	266.82
480.34	294.91
480.52	262.14
480.70	294.91
480.88	283.20
481.06	250.44
481.24	322.99
481.41	346.40
481.59	337.04
481.77	379.17
481.95	315.97
482.13	404.91
482.31	468.11
482.49	435.34
482.67	500.87
482.85	582.79
483.03	573.43
483.21	578.11
483.39	657.69
483.57	653.01
483.74	784.08
483.92	681.10
484.10	727.91
484.28	877.70
484.46	908.13
484.64	891.74
484.82	910.47
485.00	966.64
485.18	1025.15
485.35	1191.33
485.53	1057.92
485.71	1156.22
485.89	1156.22
486.07	1184.31
486.25	1205.38
486.43	1214.74
486.61	1266.23
486.78	1341.13
486.96	1369.21
487.14	1364.53
487.32	1409.00
487.50	1390.28
487.68	1359.85
487.85	1296.66
488.03	1308.36
488.21	1324.74
488.39	1254.53
488.57	1341.13
488.75	1242.82
488.92	1465.18
489.10	1385.60
489.28	1308.36
489.46	1193.67
489.64	1320.06
489.81	1233.46
489.99	1228.78
490.17	1198.35
490.35	1196.01
490.53	1184.31
490.70	1228.78
490.88	1116.44
491.06	1090.69
491.24	1299.00
491.41	1254.53
491.59	1263.89
491.77	1123.46
491.95	1090.69
492.13	1107.07
492.30	1081.33
492.48	1095.37
492.66	952.60
492.84	1057.92
493.01	1111.75
493.19	1074.31
493.37	994.73
493.54	985.37
493.72	926.85
493.90	919.83
494.08	940.90
494.25	978.34
494.43	938.55
494.61	966.64
494.79	905.79
494.96	840.25
495.14	816.85
495.32	840.25
495.49	880.04
495.67	891.74
495.85	849.61
496.02	807.48
496.20	880.04
496.38	873.02
496.55	835.57
496.73	849.61
496.91	826.21
497.09	828.55
497.26	786.42
497.44	774.72
497.62	826.21
497.79	755.99
497.97	788.76
498.14	716.20
498.32	688.12
498.50	667.05
498.67	671.73
498.85	678.76
499.03	657.69
499.20	606.20
499.38	538.32
499.56	624.92
499.73	573.43
499.91	589.82
500.08	561.73
500.26	449.38
500.44	468.11
500.61	458.74
500.79	444.70
500.97	411.93
501.14	498.53
501.32	393.21
501.49	388.53
501.67	381.51
501.84	397.89
502.02	341.72
502.20	367.46
502.37	416.62
502.55	379.17
502.72	365.12
502.90	411.93
503.07	360.44
503.25	348.74
503.43	386.19
503.60	315.97
503.78	397.89
503.95	315.97
504.13	334.70
504.30	283.20
504.48	283.20
504.65	372.15
504.83	423.64
505.01	301.93
505.18	390.87
505.36	341.72
505.53	339.38
505.71	266.82
505.88	227.03
506.06	292.57
506.23	201.29
506.41	184.90
506.58	264.48
506.76	358.10
506.93	327.68
507.11	259.80
507.28	217.67
507.46	241.08
507.63	255.12
507.81	229.37
507.98	287.89
508.16	285.55
508.33	276.18
508.50	250.44
508.68	304.27
508.85	395.55
509.03	224.69
509.20	353.42
509.38	339.38
509.55	353.42
509.73	306.61
509.90	322.99
510.08	320.65
510.25	299.59
510.42	306.61
510.60	339.38
510.77	315.97
510.95	266.82
511.12	301.93
511.30	325.33
511.47	301.93
511.64	381.51
511.82	276.18
511.99	334.70
512.17	334.70
512.34	259.80
512.51	308.95
512.69	283.20
512.86	372.15
513.04	297.25
513.21	304.27
513.38	395.55
513.56	224.69
513.73	262.14
513.90	250.44
514.08	287.89
514.25	229.37
514.43	344.06
514.60	311.29
514.77	278.52
514.95	227.03
515.12	283.20
515.29	355.76
515.47	294.91
515.64	285.55
515.81	259.80
515.99	306.61
516.16	285.55
516.33	313.63
516.51	168.52
516.68	234.05
516.85	297.25
517.03	212.99
517.20	210.65
517.37	203.63
517.54	222.35
517.72	273.84
517.89	241.08
518.06	241.08
518.24	304.27
518.41	358.10
518.58	369.80
518.75	266.82
518.93	297.25
519.10	236.39
519.27	278.52
519.45	294.91
519.62	308.95
519.79	227.03
519.96	252.78
520.14	245.76
520.31	203.63
520.48	290.23
520.65	257.46
520.83	297.25
521.00	292.57
521.17	271.50
521.34	276.18
521.52	271.50
521.69	294.91
521.86	271.50
522.03	266.82
522.20	262.14
522.38	271.50
522.55	299.59
522.72	276.18
522.89	236.39
523.07	325.33
523.24	273.84
523.41	241.08
523.58	304.27
523.75	294.91
523.92	236.39
524.10	292.57
524.27	264.48
524.44	217.67
524.61	285.55
524.78	283.20
524.96	283.20
525.13	308.95
525.30	280.86
525.47	308.95
525.64	266.82
525.81	262.14
525.98	191.92
526.16	238.73
526.33	222.35
526.50	294.91
526.67	248.10
526.84	170.86
527.01	301.93
527.18	322.99
527.36	297.25
527.53	330.02
527.70	327.68
527.87	259.80
528.04	313.63
528.21	243.42
528.38	290.23
528.55	283.20
528.72	306.61
528.89	369.80
529.07	208.31
529.24	278.52
529.41	341.72
529.58	264.48
529.75	299.59
529.92	376.83
530.09	297.25
530.26	334.70
530.43	367.46
530.60	245.76
530.77	294.91
530.94	273.84
531.11	334.70
531.28	304.27
531.46	304.27
531.63	238.73
531.80	292.57
531.97	341.72
532.14	376.83
532.31	379.17
532.48	393.21
532.65	477.47
532.82	475.13
532.99	484.49
533.16	568.75
533.33	671.73
533.50	638.97
533.67	521.94
533.84	477.47
534.01	454.06
534.18	397.89
534.35	421.30
534.52	524.28
534.69	447.04
534.86	442.36
535.03	496.19
535.20	454.06
535.37	580.45
535.54	585.13
535.71	514.92
535.88	582.79
536.05	538.32
536.22	585.13
536.38	538.32
536.55	725.57
536.72	641.31
536.89	753.65
537.06	819.19
537.23	821.53
537.40	922.17
537.57	994.73
537.74	1069.62
537.91	1249.85
538.08	1303.68
538.25	1554.12
538.42	1589.22
538.59	1570.50
538.75	1561.14
538.92	1540.07
539.09	1678.16
539.26	1767.10
539.43	1912.22
539.60	2172.02
539.77	2263.30
539.94	2511.39
540.11	2789.92
540.28	2808.64
540.44	2928.01
540.61	3213.56
540.78	3353.99
540.95	3960.19
541.12	4594.47
541.29	5352.81
541.46	6083.05
541.62	6916.28
541.79	7517.80
541.96	8620.19
542.13	9048.51
542.30	9298.95
542.47	9324.69
542.63	9343.42
542.80	9207.67
542.97	9177.24
543.14	9366.82
543.31	9404.27
543.48	9399.59
543.64	9542.36
543.81	9144.47
543.98	8968.93
544.15	8629.56
544.32	8411.89
544.48	8280.82
544.65	7936.76
544.82	7625.47
544.99	7239.28
545.16	7187.79
545.32	6981.82
545.49	9638.33
545.66	16369.71
545.83	22801.50
546.00	20819.07
546.16	12753.58
546.33	8695.09
546.50	6181.35
546.67	4512.55
546.83	3709.75
547.00	3471.01
547.17	3206.53
547.34	2890.56
547.50	2930.35
547.67	2757.15
547.84	2731.41
548.00	2810.98
548.17	2822.69
548.34	2932.69
548.51	2991.20
548.67	3033.33
548.84	3080.14
549.01	3117.59
549.18	3098.87
549.34	2991.20
549.51	2750.13
549.68	2715.02
549.84	2534.80
550.01	2300.75
550.18	2408.41
550.34	2286.70
550.51	2104.14
550.68	2148.61
550.84	2085.42
551.01	1996.48
551.18	2054.99
551.34	2062.01
551.51	1898.17
551.68	1916.90
551.84	1921.58
552.01	1970.73
552.18	1909.88
552.34	1851.36
552.51	1834.98
552.68	1741.36
552.84	1633.69
553.01	1626.67
553.18	1488.58
553.34	1219.42
553.51	1291.98
553.67	1259.21
553.84	1210.06
554.01	1076.65
554.17	1022.81
554.34	866.00
554.51	791.10
554.67	755.99
554.84	760.67
555.00	608.54
555.17	561.73
555.33	578.11
555.50	601.52
555.67	615.56
555.83	493.85
556.00	524.28
556.16	681.10
556.33	533.64
556.50	559.39
556.66	507.90
556.83	533.64
556.99	458.74
557.16	454.06
557.32	491.51
557.49	397.89
557.65	425.98
557.82	404.91
557.98	447.04
558.15	449.38
558.32	379.17
558.48	362.78
558.65	308.95
558.81	409.59
558.98	386.19
559.14	423.64
559.31	355.76
559.47	463.43
559.64	318.31
559.80	311.29
559.97	320.65
560.13	381.51
560.30	360.44
560.46	376.83
560.63	299.59
560.79	395.55
560.96	369.80
561.12	379.17
561.29	393.21
561.45	376.83
561.61	369.80
561.78	461.09
561.94	318.31
562.11	376.83
562.27	376.83
562.44	353.42
562.60	311.29
562.77	322.99
562.93	374.49
563.10	318.31
563.26	325.33
563.42	348.74
563.59	330.02
563.75	330.02
563.92	344.06
564.08	376.83
564.24	411.93
564.41	372.15
564.57	315.97
564.74	266.82
564.90	348.74
565.07	283.20
565.23	404.91
565.39	245.76
565.56	283.20
565.72	271.50
565.88	318.31
566.05	306.61
566.21	332.36
566.38	308.95
566.54	313.63
566.70	285.55
566.87	327.68
567.03	322.99
567.19	339.38
567.36	283.20
567.52	322.99
567.68	301.93
567.85	290.23
568.01	264.48
568.17	386.19
568.34	318.31
568.50	315.97
568.66	276.18
568.83	461.09
568.99	285.55
569.15	334.70
569.32	266.82
569.48	379.17
569.64	308.95
569.81	294.91
569.97	308.95
570.13	306.61
570.30	273.84
570.46	315.97
570.62	311.29
570.78	264.48
570.95	236.39
571.11	243.42
571.27	344.06
571.43	285.55
571.60	248.10
571.76	278.52
571.92	301.93
572.09	266.82
572.25	241.08
572.41	365.12
572.57	292.57
572.74	414.27
572.90	341.72
573.06	341.72
573.22	414.27
573.38	381.51
573.55	369.80
573.71	360.44
573.87	322.99
574.03	276.18
574.20	332.36
574.36	409.59
574.52	411.93
574.68	411.93
574.84	376.83
575.01	390.87
575.17	390.87
575.33	358.10
575.49	484.49
575.65	437.68
575.82	425.98
575.98	594.50
576.14	582.79
576.30	807.48
576.46	1827.96
576.62	3297.81
576.79	4224.67
576.95	3077.80
577.11	1933.28
577.27	1439.43
577.43	1053.24
577.59	723.23
577.75	578.11
577.92	500.87
578.08	531.30
578.24	566.41
578.40	894.08
578.56	1790.51
578.72	3211.22
578.88	3992.95
579.04	3131.64
579.21	2122.87
579.37	1657.10
579.53	1427.73
579.69	1465.18
579.85	1657.10
580.01	2010.52
580.17	1952.01
580.33	1771.79
580.49	1591.56
580.65	1371.55
580.82	1184.31
580.98	1210.06
581.14	1219.42
581.30	1493.26
581.46	1343.47
581.62	1406.66
581.78	1458.15
581.94	1523.69
582.10	1500.28
582.26	1453.47
582.42	1668.80
582.58	1734.34
582.74	1652.42
582.90	1853.70
583.06	1928.60
583.22	2015.20
583.38	2057.33
583.54	2073.71
583.70	2059.67
583.86	2097.12
584.02	1994.14
584.18	2012.86
584.34	1891.15
584.50	1856.04
584.66	1710.93
584.82	1755.40
584.98	1582.20
585.14	1530.71
585.30	1603.27
585.46	1502.62
585.62	1582.20
585.78	1572.84
585.94	1497.94
586.10	1556.46
586.26	1582.20
586.42	1776.47
586.58	2083.08
586.74	2523.10
586.90	2913.97
587.06	3342.28
587.22	3232.28
587.38	2902.26
587.54	2733.75
587.70	2492.67
587.86	2183.72
588.02	2120.53
588.18	1837.32
588.34	1717.95
588.49	1549.43
588.65	1486.24
588.81	1387.94
588.97	1348.15
589.13	1369.21
589.29	1242.82
589.45	1460.49
589.61	1364.53
589.77	1348.15
589.93	1331.76
590.08	1303.68
590.24	1390.28
590.40	1303.68
590.56	1294.32
590.72	1135.16
590.88	1200.69
591.04	1212.40
591.20	1252.19
591.35	1254.53
591.51	1275.59
591.67	1280.27
591.83	1170.27
591.99	1320.06
592.15	1476.88
592.31	1572.84
592.46	1549.43
592.62	1856.04
592.78	1933.28
592.94	2029.24
593.10	1881.79
593.26	1816.26
593.41	1750.72
593.57	1472.20
593.73	1369.21
593.89	1242.82
594.05	1050.90
594.20	854.30
594.36	851.96
594.52	861.32
594.68	868.34
594.84	774.72
594.99	730.25
595.15	777.06
595.31	674.07
595.47	791.10
595.62	624.92
595.78	758.33
595.94	744.29
596.10	779.40
596.25	713.86
596.41	716.20
596.57	699.82
596.73	734.93
596.88	676.41
597.04	723.23
597.20	692.80
597.36	681.10
597.51	739.61
597.67	695.14
597.83	741.95
597.99	924.51
598.14	947.92
598.30	1032.18
598.46	936.21
598.61	1018.13
598.77	1114.10
598.93	1132.82
599.09	1170.27
599.24	1186.65
599.40	1221.76
599.56	1128.14
599.71	1135.16
599.87	1121.12
600.03	1006.43
600.18	976.00
600.34	959.62
600.50	814.51
600.65	889.40
600.81	777.06
600.97	671.73
601.12	697.48
601.28	709.18
601.44	697.48
601.59	538.32
601.75	613.22
601.91	540.66
602.06	706.84
602.22	681.10
602.37	573.43
602.53	580.45
602.69	592.16
602.84	564.07
603.00	528.96
603.16	580.45
603.31	585.13
603.47	603.86
603.62	442.36
603.78	620.24
603.94	582.79
604.09	669.39
604.25	514.92
604.40	580.45
604.56	634.29
604.71	641.31
604.87	653.01
605.03	643.65
605.18	571.09
605.34	613.22
605.49	699.82
605.65	643.65
605.80	664.71
605.96	678.76
606.12	636.63
606.27	704.50
606.43	772.38
606.58	854.30
606.74	758.33
606.89	858.98
607.05	807.48
607.20	1027.50
607.36	931.53
607.51	999.41
607.67	1090.69
607.82	1198.35
607.98	1224.10
608.13	1142.18
608.29	1327.08
608.44	1535.39
608.60	1542.41
608.75	1703.91
608.91	1895.83
609.06	1998.82
609.22	2214.15
609.37	2441.18
609.53	2703.32
609.68	2979.50
609.84	3398.46
609.99	4051.47
610.15	4772.35
610.30	5940.28
610.46	7379.71
610.61	10019.83
610.76	12662.30
610.92	15833.72
611.07	17750.62
611.23	18401.29
611.38	16828.45
611.54	15227.53
611.69	12725.49
611.84	10588.58
612.00	8814.46
612.15	7403.11
612.31	6431.79
612.46	5788.14
612.62	5373.87
612.77	5123.43
612.92	4926.83
613.08	4580.43
613.23	4337.01
613.39	4304.25
613.54	3920.40
613.69	3927.42
613.85	3955.51
614.00	3850.18
614.15	3875.93
614.31	3878.27
614.46	3824.44
614.62	3686.34
614.77	3501.44
614.92	3309.52
615.08	3131.64
615.23	2906.95
615.38	2724.38
615.54	2345.22
615.69	2150.95
615.84	2106.48
616.00	1982.43
616.15	1771.79
616.30	1701.57
616.46	1753.06
616.61	1701.57
616.76	1610.29
616.92	1603.27
617.07	1511.99
617.22	1465.18
617.37	1299.00
617.53	1380.92
617.68	1441.77
617.83	1320.06
617.99	1341.13
618.14	1345.81
618.29	1242.82
618.45	1270.91
618.60	1273.25
618.75	1348.15
618.90	1301.34
619.06	1256.87
619.21	1432.41
619.36	1404.32
619.51	1411.34
619.67	1425.39
619.82	1500.28
619.97	1537.73
620.12	1519.01
620.28	1418.36
620.43	1488.58
620.58	1528.37
620.73	1437.09
620.89	1561.14
621.04	1441.77
621.19	1458.15
621.34	1327.08
621.49	1385.60
621.65	1348.15
621.80	1380.92
621.95	1287.29
622.10	1252.19
622.25	1352.83
622.41	1294.32
622.56	1226.44
622.71	1149.20
622.86	1174.95
623.01	1156.22
623.16	1207.72
623.32	1123.46
623.47	1210.06
623.62	1062.60
623.77	1116.44
623.92	1151.54
624.07	1196.01
624.23	1186.65
624.38	1165.59
624.53	1123.46
624.68	1081.33
624.83	1125.80
624.98	1130.48
625.13	1076.65
625.29	959.62
625.44	1046.22
625.59	1004.09
625.74	980.68
625.89	997.07
626.04	950.26
626.19	929.19
626.34	908.13
626.49	847.27
626.65	847.27
626.80	880.04
626.95	976.00
627.10	856.64
627.25	919.83
627.40	903.45
627.55	912.81
627.70	887.06
627.85	882.38
628.00	858.98
628.15	875.36
628.30	856.64
628.45	968.98
628.60	968.98
628.76	1006.43
628.91	966.64
629.06	980.68
629.21	922.17
629.36	1013.45
629.51	990.05
629.66	1078.99
629.81	1114.10
629.96	1289.64
630.11	1308.36
630.26	1600.93
630.41	1739.02
630.56	1881.79
630.71	1966.05
630.86	2033.93
631.01	2003.50
631.16	1867.75
631.31	1788.17
631.46	1584.54
631.61	1238.14
631.76	1067.28
631.91	884.72
632.06	828.55
632.21	779.40
632.36	629.60
632.51	498.53
632.66	472.79
632.81	456.40
632.96	578.11
633.10	369.80
633.25	390.87
633.40	423.64
633.55	416.62
633.70	416.62
633.85	362.78
634.00	348.74
634.15	297.25
634.30	367.46
634.45	409.59
634.60	341.72
634.75	367.46
634.90	255.12
635.05	304.27
635.19	346.40
635.34	379.17
635.49	318.31
635.64	395.55
635.79	241.08
635.94	322.99
636.09	393.21
636.24	299.59
636.39	353.42
636.53	360.44
636.68	236.39
636.83	379.17
636.98	411.93
637.13	264.48
637.28	313.63
637.43	308.95
637.57	348.74
637.72	353.42
637.87	362.78
638.02	252.78
638.17	294.91
638.32	337.04
638.46	252.78
638.61	273.84
638.76	341.72
638.91	248.10
639.06	271.50
639.20	353.42
639.35	292.57
639.50	351.08
639.65	301.93
639.80	322.99
639.94	245.76
640.09	252.78
640.24	346.40
640.39	365.12
640.54	283.20
640.68	304.27
640.83	313.63
640.98	306.61
641.13	264.48
641.27	315.97
641.42	292.57
641.57	315.97
641.72	301.93
641.86	292.57
642.01	266.82
642.16	264.48
642.31	294.91
642.45	325.33
642.60	327.68
642.75	252.78
642.90	339.38
643.04	299.59
643.19	259.80
643.34	376.83
643.48	381.51
643.63	334.70
643.78	353.42
643.93	344.06
644.07	266.82
644.22	304.27
644.37	290.23
644.51	362.78
644.66	313.63
644.81	262.14
644.95	372.15
645.10	327.68
645.25	283.20
645.39	308.95
645.54	280.86
645.69	456.40
645.83	250.44
645.98	444.70
646.13	262.14
646.27	238.73
646.42	308.95
646.57	332.36
646.71	320.65
646.86	292.57
647.00	315.97
647.15	294.91
647.30	365.12
647.44	283.20
647.59	278.52
647.74	313.63
647.88	276.18
648.03	294.91
648.17	248.10
648.32	301.93
648.47	301.93
648.61	320.65
648.76	358.10
648.90	224.69
649.05	236.39
649.20	313.63
649.34	297.25
649.49	372.15
649.63	423.64
649.78	418.96
649.92	477.47
650.07	578.11
650.21	636.63
650.36	681.10
650.51	631.94
650.65	669.39
650.80	533.64
650.94	514.92
651.09	402.57
651.23	416.62
651.38	437.68
651.52	365.12
651.67	360.44
651.81	344.06
651.96	402.57
652.10	325.33
652.25	404.91
652.39	341.72
652.54	360.44
652.68	299.59
652.83	369.80
652.97	344.06
653.12	332.36
653.26	400.23
653.41	351.08
653.55	374.49
653.70	250.44
653.84	334.70
653.99	301.93
654.13	238.73
654.27	234.05
654.42	177.88
654.56	245.76
654.71	259.80
654.85	205.97
655.00	294.91
655.14	252.78
655.29	304.27
655.43	250.44
655.57	203.63
655.72	173.20
655.86	234.05
656.01	166.18
656.15	248.10
656.30	231.71
656.44	133.41
656.58	161.50
656.73	276.18
656.87	161.50
657.01	248.10
657.16	255.12
657.30	278.52
657.45	360.44
657.59	248.10
657.73	285.55
657.88	330.02
658.02	306.61
658.16	259.80
658.31	280.86
658.45	301.93
658.60	168.52
658.74	262.14
658.88	205.97
659.03	243.42
659.17	250.44
659.31	177.88
659.46	229.37
659.60	168.52
659.74	191.92
659.89	177.88
660.03	222.35
660.17	231.71
660.32	243.42
660.46	203.63
660.60	152.13
660.74	205.97
660.89	182.56
661.03	191.92
661.17	173.20
661.32	255.12
661.46	297.25
661.60	360.44
661.74	351.08
661.89	416.62
662.03	418.96
662.17	435.34
662.31	440.02
662.46	477.47
662.60	351.08
662.74	362.78
662.88	334.70
663.03	330.02
663.17	292.57
663.31	280.86
663.45	264.48
663.60	301.93
663.74	255.12
663.88	262.14
664.02	255.12
664.17	210.65
664.31	245.76
664.45	262.14
664.59	276.18
664.73	245.76
664.88	276.18
665.02	224.69
665.16	266.82
665.30	308.95
665.44	194.26
665.59	212.99
665.73	177.88
665.87	224.69
666.01	301.93
666.15	250.44
666.29	250.44
666.44	229.37
666.58	325.33
666.72	231.71
666.86	250.44
667.00	250.44
667.14	255.12
667.28	250.44
667.43	266.82
667.57	231.71
667.71	264.48
667.85	264.48
667.99	241.08
668.13	271.50
668.27	248.10
668.41	313.63
668.56	229.37
668.70	320.65
668.84	259.80
668.98	264.48
669.12	229.37
669.26	264.48
669.40	341.72
669.54	231.71
669.68	255.12
669.82	210.65
669.96	191.92
670.10	210.65
670.25	264.48
670.39	229.37
670.53	231.71
670.67	224.69
670.81	156.82
670.95	224.69
671.09	217.67
671.23	266.82
671.37	198.95
671.51	231.71
671.65	229.37
671.79	156.82
671.93	231.71
672.07	224.69
672.21	243.42
672.35	210.65
672.49	149.79
672.63	217.67
672.77	231.71
672.91	241.08
673.05	220.01
673.19	236.39
673.33	250.44
673.47	273.84
673.61	269.16
673.75	245.76
673.89	184.90
674.03	227.03
674.17	196.60
674.31	196.60
674.45	243.42
674.59	156.82
674.73	205.97
674.87	252.78
675.01	187.24
675.15	177.88
675.29	311.29
675.43	156.82
675.56	201.29
675.70	177.88
675.84	248.10
675.98	227.03
676.12	205.97
676.26	166.18
676.40	241.08
676.54	224.69
676.68	187.24
676.82	259.80
676.96	177.88
677.10	187.24
677.23	210.65
677.37	177.88
677.51	173.20
677.65	287.89
677.79	205.97
677.93	198.95
678.07	227.03
678.21	210.65
678.34	168.52
678.48	271.50
678.62	238.73
678.76	227.03
678.90	124.05
679.04	198.95
679.18	215.33
679.31	177.88
679.45	201.29
679.59	262.14
679.73	210.65
679.87	208.31
680.00	255.12
680.14	168.52
680.28	191.92
680.42	180.22
680.56	224.69
680.70	161.50
680.83	177.88
680.97	208.31
681.11	161.50
681.25	236.39
681.39	212.99
681.52	177.88
681.66	128.73
681.80	215.33
681.94	154.48
682.07	156.82
682.21	208.31
682.35	236.39
682.49	217.67
682.62	152.13
682.76	203.63
682.90	177.88
683.04	220.01
683.17	210.65
683.31	175.54
683.45	245.76
683.59	220.01
683.72	152.13
683.86	191.92
684.00	201.29
684.13	264.48
684.27	222.35
684.41	170.86
684.55	133.41
684.68	147.45
684.82	175.54
684.96	168.52
685.09	182.56
685.23	196.60
685.37	161.50
685.50	180.22
685.64	215.33
685.78	208.31
685.91	187.24
686.05	177.88
686.19	173.20
686.32	224.69
686.46	131.07
686.60	170.86
686.73	191.92
686.87	264.48
687.01	231.71
687.14	283.20
687.28	276.18
687.42	257.46
687.55	264.48
687.69	379.17
687.82	245.76
687.96	280.86
688.10	245.76
688.23	159.16
688.37	278.52
688.50	161.50
688.64	264.48
688.78	187.24
688.91	161.50
689.05	201.29
689.18	170.86
689.32	196.60
689.46	198.95
689.59	290.23
689.73	224.69
689.86	149.79
690.00	170.86
690.13	175.54
690.27	140.43
690.41	191.92
690.54	222.35
690.68	173.20
690.81	91.28
690.95	159.16
691.08	142.77
691.22	135.75
691.35	100.64
691.49	173.20
691.62	81.92
691.76	194.26
691.89	173.20
692.03	168.52
692.16	53.83
692.30	107.66
692.43	203.63
692.57	149.79
692.70	154.48
692.84	163.84
692.97	163.84
693.11	154.48
693.24	177.88
693.38	280.86
693.51	271.50
693.65	229.37
693.78	210.65
693.92	224.69
694.05	220.01
694.19	220.01
694.32	283.20
694.45	142.77
694.59	135.75
694.72	138.09
694.86	149.79
694.99	163.84
695.13	161.50
695.26	180.22
695.39	168.52
695.53	220.01
695.66	140.43
695.80	159.16
695.93	107.66
696.07	117.03
696.20	166.18
696.33	208.31
696.47	175.54
696.60	128.73
696.73	229.37
696.87	182.56
697.00	220.01
697.14	114.69
697.27	128.73
697.40	231.71
697.54	88.94
697.67	166.18
697.80	201.29
697.94	170.86
698.07	191.92
698.21	140.43
698.34	168.52
698.47	117.03
698.61	53.83
698.74	161.50
698.87	191.92
699.01	114.69
699.14	135.75
699.27	147.45
699.40	236.39
699.54	140.43
699.67	166.18
699.80	142.77
699.94	135.75
700.07	163.84
700.20	121.71
700.34	145.11
700.47	145.11
700.60	140.43
700.73	154.48
700.87	166.18
701.00	119.37
701.13	154.48
701.26	119.37
701.40	138.09
701.53	107.66
701.66	131.07
701.79	152.13
701.93	77.24
702.06	121.71
702.19	133.41
702.32	173.20
702.46	79.58
702.59	100.64
702.72	98.30
702.85	189.58
702.99	72.56
703.12	149.79
703.25	74.90
703.38	117.03
703.51	126.39
703.65	110.01
703.78	42.13
703.91	119.37
704.04	224.69
704.17	170.86
704.31	131.07
704.44	117.03
704.57	156.82
704.70	177.88
704.83	117.03
704.96	166.18
705.10	212.99
705.23	149.79
>>>>>End Processed Spectral Data<<<<<
