SpectraSuite Data File
++++++++++++++++++++++++++++++++++++
Date: Fri Oct 04 11:42:19 GMT-05:00 2013
User: price-jones
Dark Spectrum Present: No
Reference Spectrum Present: No
Number of Sampled Component Spectra: 1
Spectrometers: USB2+H05261
Integration Time (usec): 100000 (USB2+H05261)
Spectra Averaged: 1 (USB2+H05261)
Boxcar Smoothing: 0 (USB2+H05261)
Correct for Electrical Dark: No (USB2+H05261)
Strobe/Lamp Enabled: No (USB2+H05261)
Correct for Detector Non-linearity: No (USB2+H05261)
Correct for Stray Light: No (USB2+H05261)
Number of Pixels in Processed Spectrum: 2048
>>>>>Begin Processed Spectral Data<<<<<
365.73	28.09
365.92	28.09
366.12	28.09
366.32	0.00
366.52	2.34
366.72	0.00
366.91	0.00
367.11	0.00
367.31	0.00
367.51	0.00
367.70	0.00
367.90	0.00
368.10	0.00
368.30	0.00
368.49	0.00
368.69	16.38
368.89	0.00
369.09	0.00
369.28	0.00
369.48	0.00
369.68	0.00
369.87	0.00
370.07	0.00
370.27	0.00
370.47	9.36
370.66	23.41
370.86	37.45
371.06	70.22
371.25	72.56
371.45	28.09
371.65	102.98
371.84	84.26
372.04	14.04
372.24	98.30
372.44	88.94
372.63	112.35
372.83	117.03
373.03	128.73
373.22	84.26
373.42	65.54
373.62	138.09
373.81	128.73
374.01	215.33
374.21	196.60
374.40	140.43
374.60	152.13
374.79	121.71
374.99	32.77
375.19	138.09
375.38	117.03
375.58	180.22
375.78	152.13
375.97	126.39
376.17	107.66
376.37	88.94
376.56	107.66
376.76	100.64
376.95	124.05
377.15	114.69
377.35	145.11
377.54	95.96
377.74	23.41
377.93	88.94
378.13	98.30
378.33	159.16
378.52	145.11
378.72	100.64
378.91	112.35
379.11	117.03
379.31	135.75
379.50	114.69
379.70	184.90
379.89	105.32
380.09	149.79
380.28	88.94
380.48	154.48
380.68	114.69
380.87	56.17
381.07	93.62
381.26	105.32
381.46	74.90
381.65	119.37
381.85	105.32
382.04	128.73
382.24	145.11
382.43	105.32
382.63	93.62
382.83	58.51
383.02	161.50
383.22	156.82
383.41	124.05
383.61	65.54
383.80	39.79
384.00	95.96
384.19	100.64
384.39	60.85
384.58	53.83
384.78	86.60
384.97	74.90
385.17	95.96
385.36	81.92
385.56	152.13
385.75	84.26
385.95	133.41
386.14	98.30
386.34	112.35
386.53	91.28
386.72	28.09
386.92	126.39
387.11	72.56
387.31	159.16
387.50	84.26
387.70	117.03
387.89	131.07
388.09	131.07
388.28	105.32
388.48	86.60
388.67	102.98
388.86	128.73
389.06	91.28
389.25	100.64
389.45	121.71
389.64	112.35
389.84	142.77
390.03	121.71
390.22	149.79
390.42	140.43
390.61	58.51
390.81	166.18
391.00	166.18
391.19	175.54
391.39	110.01
391.58	126.39
391.78	93.62
391.97	63.19
392.16	0.00
392.36	191.92
392.55	173.20
392.75	107.66
392.94	95.96
393.13	60.85
393.33	149.79
393.52	88.94
393.71	131.07
393.91	128.73
394.10	65.54
394.29	114.69
394.49	114.69
394.68	53.83
394.88	58.51
395.07	131.07
395.26	77.24
395.46	95.96
395.65	86.60
395.84	191.92
396.04	234.05
396.23	105.32
396.42	131.07
396.62	135.75
396.81	114.69
397.00	142.77
397.19	166.18
397.39	124.05
397.58	140.43
397.77	86.60
397.97	114.69
398.16	77.24
398.35	210.65
398.55	117.03
398.74	177.88
398.93	112.35
399.12	142.77
399.32	128.73
399.51	102.98
399.70	93.62
399.90	156.82
400.09	77.24
400.28	133.41
400.47	100.64
400.67	77.24
400.86	168.52
401.05	114.69
401.24	163.84
401.44	159.16
401.63	234.05
401.82	100.64
402.01	161.50
402.21	166.18
402.40	205.97
402.59	126.39
402.78	140.43
402.97	170.86
403.17	203.63
403.36	175.54
403.55	166.18
403.74	517.26
403.93	1507.30
404.13	2860.13
404.32	3234.62
404.51	2576.93
404.70	1568.16
404.89	643.65
405.09	264.48
405.28	126.39
405.47	217.67
405.66	168.52
405.85	205.97
406.05	147.45
406.24	117.03
406.43	67.88
406.62	140.43
406.81	177.88
407.00	304.27
407.20	407.25
407.39	557.05
407.58	489.17
407.77	435.34
407.96	238.73
408.15	154.48
408.34	117.03
408.54	138.09
408.73	182.56
408.92	154.48
409.11	215.33
409.30	222.35
409.49	135.75
409.68	184.90
409.87	126.39
410.07	184.90
410.26	156.82
410.45	163.84
410.64	196.60
410.83	156.82
411.02	135.75
411.21	212.99
411.40	131.07
411.59	189.58
411.78	107.66
411.98	159.16
412.17	154.48
412.36	227.03
412.55	133.41
412.74	140.43
412.93	215.33
413.12	156.82
413.31	266.82
413.50	220.01
413.69	205.97
413.88	224.69
414.07	105.32
414.26	79.58
414.45	201.29
414.64	182.56
414.83	154.48
415.02	154.48
415.22	126.39
415.41	222.35
415.60	156.82
415.79	210.65
415.98	182.56
416.17	278.52
416.36	191.92
416.55	121.71
416.74	257.46
416.93	306.61
417.12	159.16
417.31	124.05
417.50	156.82
417.69	271.50
417.88	184.90
418.07	212.99
418.26	131.07
418.45	222.35
418.64	248.10
418.83	145.11
419.02	173.20
419.21	74.90
419.39	234.05
419.58	203.63
419.77	210.65
419.96	187.24
420.15	245.76
420.34	163.84
420.53	187.24
420.72	198.95
420.91	170.86
421.10	159.16
421.29	168.52
421.48	152.13
421.67	163.84
421.86	252.78
422.05	276.18
422.24	210.65
422.43	135.75
422.61	175.54
422.80	175.54
422.99	212.99
423.18	142.77
423.37	187.24
423.56	161.50
423.75	159.16
423.94	203.63
424.13	243.42
424.32	142.77
424.50	154.48
424.69	182.56
424.88	234.05
425.07	161.50
425.26	255.12
425.45	266.82
425.64	255.12
425.83	250.44
426.01	177.88
426.20	292.57
426.39	212.99
426.58	194.26
426.77	203.63
426.96	189.58
427.15	159.16
427.33	205.97
427.52	112.35
427.71	276.18
427.90	255.12
428.09	138.09
428.28	217.67
428.46	227.03
428.65	248.10
428.84	217.67
429.03	297.25
429.22	278.52
429.40	182.56
429.59	231.71
429.78	334.70
429.97	201.29
430.16	189.58
430.34	201.29
430.53	161.50
430.72	266.82
430.91	290.23
431.10	250.44
431.28	255.12
431.47	238.73
431.66	297.25
431.85	334.70
432.03	220.01
432.22	393.21
432.41	306.61
432.60	292.57
432.79	257.46
432.97	280.86
433.16	283.20
433.35	325.33
433.54	346.40
433.72	395.55
433.91	404.91
434.10	463.43
434.28	517.26
434.47	451.72
434.66	608.54
434.85	683.44
435.03	2382.67
435.22	7922.71
435.41	14560.47
435.59	13221.69
435.78	8688.07
435.97	4390.84
436.16	1809.23
436.34	777.06
436.53	433.00
436.72	376.83
436.90	374.49
437.09	339.38
437.28	383.85
437.46	322.99
437.65	376.83
437.84	297.25
438.02	351.08
438.21	292.57
438.40	248.10
438.58	276.18
438.77	341.72
438.96	243.42
439.14	276.18
439.33	236.39
439.52	276.18
439.70	313.63
439.89	278.52
440.08	222.35
440.26	327.68
440.45	327.68
440.63	337.04
440.82	252.78
441.01	255.12
441.19	325.33
441.38	255.12
441.57	362.78
441.75	337.04
441.94	297.25
442.12	332.36
442.31	252.78
442.50	280.86
442.68	301.93
442.87	315.97
443.05	301.93
443.24	376.83
443.43	273.84
443.61	285.55
443.80	273.84
443.98	182.56
444.17	292.57
444.35	362.78
444.54	304.27
444.73	318.31
444.91	372.15
445.10	304.27
445.28	243.42
445.47	290.23
445.65	339.38
445.84	266.82
446.02	250.44
446.21	304.27
446.39	325.33
446.58	322.99
446.77	236.39
446.95	238.73
447.14	337.04
447.32	372.15
447.51	280.86
447.69	208.31
447.88	220.01
448.06	339.38
448.25	322.99
448.43	252.78
448.62	266.82
448.80	250.44
448.99	280.86
449.17	212.99
449.36	245.76
449.54	339.38
449.73	304.27
449.91	320.65
450.10	273.84
450.28	283.20
450.46	283.20
450.65	311.29
450.83	287.89
451.02	205.97
451.20	273.84
451.39	308.95
451.57	231.71
451.76	287.89
451.94	248.10
452.13	245.76
452.31	330.02
452.49	285.55
452.68	245.76
452.86	308.95
453.05	409.59
453.23	259.80
453.42	276.18
453.60	271.50
453.78	299.59
453.97	259.80
454.15	294.91
454.34	285.55
454.52	334.70
454.70	297.25
454.89	320.65
455.07	252.78
455.26	341.72
455.44	386.19
455.62	250.44
455.81	287.89
455.99	299.59
456.17	290.23
456.36	299.59
456.54	222.35
456.73	269.16
456.91	266.82
457.09	330.02
457.28	290.23
457.46	266.82
457.64	290.23
457.83	306.61
458.01	311.29
458.19	266.82
458.38	299.59
458.56	299.59
458.74	271.50
458.93	376.83
459.11	304.27
459.29	276.18
459.48	283.20
459.66	271.50
459.84	248.10
460.03	346.40
460.21	341.72
460.39	308.95
460.57	322.99
460.76	297.25
460.94	355.76
461.12	332.36
461.31	292.57
461.49	320.65
461.67	292.57
461.85	280.86
462.04	301.93
462.22	395.55
462.40	325.33
462.59	299.59
462.77	379.17
462.95	308.95
463.13	229.37
463.32	315.97
463.50	365.12
463.68	297.25
463.86	301.93
464.05	264.48
464.23	292.57
464.41	344.06
464.59	322.99
464.78	311.29
464.96	311.29
465.14	278.52
465.32	332.36
465.50	327.68
465.69	341.72
465.87	252.78
466.05	250.44
466.23	276.18
466.41	278.52
466.60	278.52
466.78	301.93
466.96	397.89
467.14	332.36
467.32	248.10
467.51	322.99
467.69	287.89
467.87	346.40
468.05	257.46
468.23	292.57
468.41	241.08
468.60	257.46
468.78	278.52
468.96	311.29
469.14	238.73
469.32	245.76
469.50	304.27
469.69	271.50
469.87	241.08
470.05	266.82
470.23	344.06
470.41	271.50
470.59	203.63
470.77	217.67
470.95	269.16
471.14	330.02
471.32	285.55
471.50	334.70
471.68	283.20
471.86	332.36
472.04	287.89
472.22	320.65
472.40	217.67
472.58	318.31
472.77	301.93
472.95	278.52
473.13	397.89
473.31	315.97
473.49	299.59
473.67	278.52
473.85	311.29
474.03	334.70
474.21	327.68
474.39	369.80
474.57	322.99
474.75	198.95
474.93	236.39
475.12	222.35
475.30	334.70
475.48	245.76
475.66	353.42
475.84	257.46
476.02	276.18
476.20	327.68
476.38	355.76
476.56	360.44
476.74	337.04
476.92	271.50
477.10	245.76
477.28	322.99
477.46	353.42
477.64	304.27
477.82	276.18
478.00	337.04
478.18	325.33
478.36	250.44
478.54	262.14
478.72	264.48
478.90	341.72
479.08	379.17
479.26	308.95
479.44	386.19
479.62	393.21
479.80	325.33
479.98	322.99
480.16	332.36
480.34	390.87
480.52	372.15
480.70	395.55
480.88	463.43
481.06	383.85
481.24	510.24
481.41	421.30
481.59	503.22
481.77	505.56
481.95	634.29
482.13	573.43
482.31	550.03
482.49	580.45
482.67	716.20
482.85	809.83
483.03	704.50
483.21	746.63
483.39	765.36
483.57	847.27
483.74	868.34
483.92	908.13
484.10	961.96
484.28	917.49
484.46	1090.69
484.64	1083.67
484.82	1076.65
485.00	1149.20
485.18	1247.51
485.35	1376.24
485.53	1338.79
485.71	1437.09
485.89	1568.16
486.07	1425.39
486.25	1575.18
486.43	1462.83
486.61	1521.35
486.78	1465.18
486.96	1509.65
487.14	1519.01
487.32	1568.16
487.50	1493.26
487.68	1420.71
487.85	1493.26
488.03	1418.36
488.21	1540.07
488.39	1226.44
488.57	1448.79
488.75	1315.38
488.92	1575.18
489.10	1378.58
489.28	1416.02
489.46	1193.67
489.64	1254.53
489.81	1245.16
489.99	1306.02
490.17	1205.38
490.35	1261.55
490.53	1137.50
490.70	1226.44
490.88	1294.32
491.06	1205.38
491.24	1270.91
491.41	1240.48
491.59	1235.80
491.77	1214.74
491.95	1118.78
492.13	1111.75
492.30	1121.12
492.48	1097.71
492.66	1090.69
492.84	1050.90
493.01	1090.69
493.19	1001.75
493.37	987.71
493.54	973.66
493.72	994.73
493.90	875.36
494.08	978.34
494.25	929.19
494.43	971.32
494.61	903.45
494.79	933.87
494.96	919.83
495.14	896.43
495.32	751.31
495.49	809.83
495.67	887.06
495.85	821.53
496.02	880.04
496.20	856.64
496.38	844.93
496.55	823.87
496.73	849.61
496.91	732.59
497.09	725.57
497.26	835.57
497.44	751.31
497.62	770.04
497.79	741.95
497.97	706.84
498.14	678.76
498.32	711.52
498.50	678.76
498.67	662.37
498.85	678.76
499.03	557.05
499.20	566.41
499.38	599.18
499.56	634.29
499.73	606.20
499.91	624.92
500.08	622.58
500.26	615.56
500.44	552.37
500.61	575.77
500.79	524.28
500.97	507.90
501.14	543.00
501.32	489.17
501.49	521.94
501.67	514.92
501.84	482.15
502.02	435.34
502.20	498.53
502.37	479.81
502.55	512.58
502.72	451.72
502.90	411.93
503.07	444.70
503.25	409.59
503.43	433.00
503.60	395.55
503.78	365.12
503.95	379.17
504.13	379.17
504.30	411.93
504.48	390.87
504.65	402.57
504.83	407.25
505.01	388.53
505.18	339.38
505.36	414.27
505.53	250.44
505.71	376.83
505.88	383.85
506.06	355.76
506.23	348.74
506.41	381.51
506.58	353.42
506.76	386.19
506.93	278.52
507.11	411.93
507.28	341.72
507.46	259.80
507.63	376.83
507.81	395.55
507.98	308.95
508.16	339.38
508.33	271.50
508.50	369.80
508.68	339.38
508.85	388.53
509.03	339.38
509.20	334.70
509.38	313.63
509.55	334.70
509.73	315.97
509.90	299.59
510.08	337.04
510.25	381.51
510.42	358.10
510.60	276.18
510.77	290.23
510.95	353.42
511.12	325.33
511.30	308.95
511.47	320.65
511.64	344.06
511.82	271.50
511.99	308.95
512.17	346.40
512.34	311.29
512.51	372.15
512.69	367.46
512.86	313.63
513.04	358.10
513.21	341.72
513.38	330.02
513.56	264.48
513.73	327.68
513.90	327.68
514.08	273.84
514.25	341.72
514.43	337.04
514.60	203.63
514.77	248.10
514.95	297.25
515.12	271.50
515.29	276.18
515.47	306.61
515.64	325.33
515.81	299.59
515.99	306.61
516.16	330.02
516.33	337.04
516.51	255.12
516.68	297.25
516.85	322.99
517.03	365.12
517.20	362.78
517.37	372.15
517.54	297.25
517.72	280.86
517.89	243.42
518.06	212.99
518.24	245.76
518.41	308.95
518.58	311.29
518.75	367.46
518.93	313.63
519.10	325.33
519.27	313.63
519.45	245.76
519.62	292.57
519.79	294.91
519.96	337.04
520.14	365.12
520.31	271.50
520.48	301.93
520.65	224.69
520.83	299.59
521.00	304.27
521.17	243.42
521.34	318.31
521.52	142.77
521.69	248.10
521.86	355.76
522.03	351.08
522.20	365.12
522.38	285.55
522.55	252.78
522.72	262.14
522.89	313.63
523.07	351.08
523.24	271.50
523.41	245.76
523.58	318.31
523.75	332.36
523.92	341.72
524.10	332.36
524.27	264.48
524.44	308.95
524.61	397.89
524.78	292.57
524.96	287.89
525.13	346.40
525.30	351.08
525.47	311.29
525.64	285.55
525.81	322.99
525.98	301.93
526.16	292.57
526.33	287.89
526.50	353.42
526.67	245.76
526.84	348.74
527.01	273.84
527.18	337.04
527.36	372.15
527.53	301.93
527.70	318.31
527.87	346.40
528.04	404.91
528.21	330.02
528.38	337.04
528.55	369.80
528.72	360.44
528.89	353.42
529.07	435.34
529.24	393.21
529.41	374.49
529.58	341.72
529.75	351.08
529.92	374.49
530.09	416.62
530.26	339.38
530.43	332.36
530.60	332.36
530.77	404.91
530.94	400.23
531.11	381.51
531.28	318.31
531.46	393.21
531.63	458.74
531.80	510.24
531.97	493.85
532.14	557.05
532.31	578.11
532.48	564.07
532.65	681.10
532.82	718.54
532.99	835.57
533.16	917.49
533.33	980.68
533.50	861.32
533.67	772.38
533.84	657.69
534.01	667.05
534.18	601.52
534.35	561.73
534.52	578.11
534.69	683.44
534.86	634.29
535.03	725.57
535.20	704.50
535.37	781.74
535.54	755.99
535.71	833.23
535.88	903.45
536.05	861.32
536.22	947.92
536.38	1093.03
536.55	1109.41
536.72	1315.38
536.89	1296.66
537.06	1474.54
537.23	1502.62
537.40	1797.53
537.57	1633.69
537.74	1928.60
537.91	1905.20
538.08	2047.97
538.25	1989.46
538.42	1987.11
538.59	2022.22
538.75	2277.34
538.92	2307.77
539.09	2457.56
539.26	2799.28
539.43	3056.74
539.60	3361.01
539.77	3824.44
539.94	4152.11
540.11	4573.41
540.28	4950.23
540.44	5383.23
540.61	6169.65
540.78	6920.96
540.95	8521.89
541.12	10092.39
541.29	10747.74
541.46	11339.90
541.62	11178.40
541.79	10607.31
541.96	9884.08
542.13	9008.72
542.30	8655.30
542.47	8351.03
542.63	8168.47
542.80	7777.60
542.97	7468.65
543.14	7470.99
543.31	7562.27
543.48	7407.80
543.64	7791.64
543.81	7803.35
543.98	7812.71
544.15	7836.11
544.32	7782.28
544.48	7978.89
544.65	7829.09
544.82	7779.94
544.99	7536.52
545.16	7894.63
545.32	8652.96
545.49	16358.00
545.66	28009.19
545.83	30045.46
546.00	24566.26
546.16	17118.68
546.33	12805.07
546.50	9572.79
546.67	7768.24
546.83	6881.18
547.00	6733.72
547.17	6420.09
547.34	6052.63
547.50	5799.85
547.67	5703.89
547.84	5352.81
548.00	5324.72
548.17	4910.44
548.34	4802.78
548.51	4540.64
548.67	4601.49
548.84	4341.69
549.01	4147.43
549.18	3859.54
549.34	3859.54
549.51	3595.06
549.68	3480.38
549.84	3496.76
550.01	3241.64
550.18	3272.07
550.34	2864.82
550.51	2855.45
550.68	2801.62
550.84	2576.93
551.01	2464.58
551.18	2310.11
551.34	2209.47
551.51	2150.95
551.68	2043.29
551.84	1975.41
552.01	1912.22
552.18	1956.69
552.34	1832.64
552.51	1767.10
552.68	1540.07
552.84	1572.84
553.01	1547.09
553.18	1523.69
553.34	1497.94
553.51	1390.28
553.67	1427.73
553.84	1406.66
554.01	1315.38
554.17	1200.69
554.34	1135.16
554.51	1076.65
554.67	1123.46
554.84	1004.09
555.00	954.94
555.17	912.81
555.33	868.34
555.50	744.29
555.67	746.63
555.83	791.10
556.00	873.02
556.16	917.49
556.33	690.46
556.50	624.92
556.66	695.14
556.83	667.05
556.99	674.07
557.16	669.39
557.32	620.24
557.49	627.26
557.65	561.73
557.82	580.45
557.98	550.03
558.15	582.79
558.32	503.22
558.48	550.03
558.65	543.00
558.81	573.43
558.98	528.96
559.14	557.05
559.31	475.13
559.47	547.69
559.64	470.45
559.80	543.00
559.97	514.92
560.13	449.38
560.30	514.92
560.46	449.38
560.63	468.11
560.79	486.83
560.96	491.51
561.12	454.06
561.29	472.79
561.45	528.96
561.61	461.09
561.78	564.07
561.94	491.51
562.11	472.79
562.27	468.11
562.44	440.02
562.60	341.72
562.77	423.64
562.93	479.81
563.10	454.06
563.26	365.12
563.42	444.70
563.59	458.74
563.75	435.34
563.92	477.47
564.08	482.15
564.24	458.74
564.41	472.79
564.57	397.89
564.74	341.72
564.90	440.02
565.07	365.12
565.23	411.93
565.39	404.91
565.56	402.57
565.72	425.98
565.88	409.59
566.05	395.55
566.21	397.89
566.38	372.15
566.54	489.17
566.70	397.89
566.87	430.66
567.03	351.08
567.19	346.40
567.36	337.04
567.52	383.85
567.68	451.72
567.85	411.93
568.01	409.59
568.17	332.36
568.34	374.49
568.50	440.02
568.66	440.02
568.83	538.32
568.99	351.08
569.15	374.49
569.32	402.57
569.48	472.79
569.64	285.55
569.81	374.49
569.97	301.93
570.13	404.91
570.30	320.65
570.46	269.16
570.62	388.53
570.78	355.76
570.95	278.52
571.11	362.78
571.27	297.25
571.43	325.33
571.60	327.68
571.76	337.04
571.92	362.78
572.09	292.57
572.25	222.35
572.41	308.95
572.57	283.20
572.74	362.78
572.90	437.68
573.06	374.49
573.22	367.46
573.38	360.44
573.55	383.85
573.71	313.63
573.87	344.06
574.03	390.87
574.20	348.74
574.36	409.59
574.52	449.38
574.68	390.87
574.84	379.17
575.01	430.66
575.17	395.55
575.33	442.36
575.49	514.92
575.65	461.09
575.82	491.51
575.98	573.43
576.14	540.66
576.30	1366.87
576.46	3915.72
576.62	5100.03
576.79	5062.58
576.95	3393.78
577.11	2319.47
577.27	1764.76
577.43	1226.44
577.59	973.66
577.75	748.97
577.92	636.63
578.08	746.63
578.24	786.42
578.40	1425.39
578.56	3454.63
578.72	4650.64
578.88	4650.64
579.04	3613.79
579.21	2457.56
579.37	1933.28
579.53	1554.12
579.69	1589.22
579.85	1954.35
580.01	2106.48
580.17	1975.41
580.33	1724.97
580.49	1600.93
580.65	1432.41
580.82	1231.12
580.98	1282.61
581.14	1284.95
581.30	1369.21
581.46	1437.09
581.62	1437.09
581.78	1638.38
581.94	1739.02
582.10	1729.66
582.26	1839.66
582.42	2083.08
582.58	1949.67
582.74	2101.80
582.90	2108.82
583.06	2125.21
583.22	2036.27
583.38	2057.33
583.54	1989.46
583.70	2083.08
583.86	2085.42
584.02	1980.09
584.18	1970.73
584.34	1987.11
584.50	1837.32
584.66	1783.49
584.82	1699.23
584.98	1849.02
585.14	1778.81
585.30	1806.89
585.46	1732.00
585.62	1685.19
585.78	1708.59
585.94	1856.04
586.10	1825.62
586.26	1832.64
586.42	2193.08
586.58	2445.86
586.74	2939.71
586.90	3522.51
587.06	3772.94
587.22	3623.15
587.38	3241.64
587.54	2913.97
587.70	2497.35
587.86	2122.87
588.02	1830.30
588.18	1584.54
588.34	1558.80
588.49	1343.47
588.65	1380.92
588.81	1196.01
588.97	1139.84
589.13	1193.67
589.29	1022.81
589.45	1217.08
589.61	1184.31
589.77	1146.86
589.93	1228.78
590.08	1233.46
590.24	1252.19
590.40	1259.21
590.56	1334.11
590.72	1413.68
590.88	1362.19
591.04	1383.26
591.20	1537.73
591.35	1549.43
591.51	1540.07
591.67	1638.38
591.83	1746.04
591.99	1851.36
592.15	1942.64
592.31	2218.83
592.46	2260.96
592.62	2586.29
592.78	2551.18
592.94	2785.24
593.10	2654.17
593.26	2539.48
593.41	2389.69
593.57	2076.06
593.73	1926.26
593.89	1776.47
594.05	1481.56
594.20	1359.85
594.36	1280.27
594.52	1238.14
594.68	1198.35
594.84	1125.80
594.99	1205.38
595.15	1093.03
595.31	1090.69
595.47	1104.73
595.62	1041.54
595.78	1102.39
595.94	1078.99
596.10	1076.65
596.25	971.32
596.41	1123.46
596.57	1036.86
596.73	1015.79
596.88	1015.79
597.04	1022.81
597.20	1043.88
597.36	1170.27
597.51	1125.80
597.67	1235.80
597.83	1277.93
597.99	1329.42
598.14	1317.72
598.30	1434.75
598.46	1416.02
598.61	1479.22
598.77	1519.01
598.93	1624.33
599.09	1666.46
599.24	1617.31
599.40	1612.63
599.56	1650.08
599.71	1516.67
599.87	1504.96
600.03	1376.24
600.18	1301.34
600.34	1306.02
600.50	1160.91
600.65	1125.80
600.81	1036.86
600.97	985.37
601.12	891.74
601.28	994.73
601.44	891.74
601.59	891.74
601.75	866.00
601.91	901.11
602.06	835.57
602.22	915.15
602.37	784.08
602.53	805.14
602.69	781.74
602.84	791.10
603.00	730.25
603.16	788.76
603.31	718.54
603.47	795.78
603.62	809.83
603.78	791.10
603.94	861.32
604.09	833.23
604.25	889.40
604.40	847.27
604.56	828.55
604.71	840.25
604.87	870.68
605.03	910.47
605.18	887.06
605.34	997.07
605.49	987.71
605.65	973.66
605.80	985.37
605.96	1034.52
606.12	1055.58
606.27	1107.07
606.43	1188.99
606.58	1149.20
606.74	1242.82
606.89	1259.21
607.05	1366.87
607.20	1439.43
607.36	1509.65
607.51	1528.37
607.67	1621.99
607.82	1654.76
607.98	1870.09
608.13	1998.82
608.29	2108.82
608.44	2214.15
608.60	2452.88
608.75	2803.96
608.91	2834.39
609.06	3094.19
609.22	3506.12
609.37	3915.72
609.53	4095.94
609.68	4786.40
609.84	5497.92
609.99	6457.54
610.15	7585.68
610.30	9441.72
610.46	11838.43
610.61	15283.70
610.76	19503.68
610.92	22974.70
611.07	25788.02
611.23	25912.07
611.38	23662.82
611.54	20940.77
611.69	18003.40
611.84	14977.09
612.00	12666.98
612.15	10614.33
612.31	9158.52
612.46	8229.32
612.62	7798.66
612.77	7468.65
612.92	7131.61
613.08	6663.51
613.23	6286.68
613.39	6090.07
613.54	5834.96
613.69	5724.95
613.85	5809.21
614.00	5970.71
614.15	5722.61
614.31	5633.67
614.46	5411.32
614.62	5364.51
614.77	4983.00
614.92	4629.58
615.08	4444.68
615.23	4095.94
615.38	3798.69
615.54	3531.87
615.69	3220.58
615.84	2963.12
616.00	2700.98
616.15	2434.16
616.30	2312.45
616.46	2188.40
616.61	2111.16
616.76	2008.18
616.92	1902.86
617.07	1865.41
617.22	1832.64
617.37	1586.88
617.53	1633.69
617.68	1549.43
617.83	1465.18
617.99	1535.39
618.14	1409.00
618.29	1458.15
618.45	1409.00
618.60	1359.85
618.75	1291.98
618.90	1320.06
619.06	1322.40
619.21	1289.64
619.36	1425.39
619.51	1277.93
619.67	1315.38
619.82	1273.25
619.97	1446.45
620.12	1394.96
620.28	1383.26
620.43	1432.41
620.58	1406.66
620.73	1420.71
620.89	1472.20
621.04	1366.87
621.19	1453.47
621.34	1444.11
621.49	1467.52
621.65	1390.28
621.80	1350.49
621.95	1390.28
622.10	1334.11
622.25	1261.55
622.41	1364.53
622.56	1411.34
622.71	1486.24
622.86	1474.54
623.01	1462.83
623.16	1488.58
623.32	1476.88
623.47	1390.28
623.62	1488.58
623.77	1481.56
623.92	1444.11
624.07	1439.43
624.23	1418.36
624.38	1434.75
624.53	1387.94
624.68	1458.15
624.83	1582.20
624.98	1483.90
625.13	1530.71
625.29	1472.20
625.44	1486.24
625.59	1509.65
625.74	1495.60
625.89	1516.67
626.04	1514.33
626.19	1554.12
626.34	1472.20
626.49	1547.09
626.65	1516.67
626.80	1519.01
626.95	1486.24
627.10	1411.34
627.25	1495.60
627.40	1350.49
627.55	1425.39
627.70	1448.79
627.85	1352.83
628.00	1359.85
628.15	1322.40
628.30	1425.39
628.45	1392.62
628.60	1334.11
628.76	1362.19
628.91	1324.74
629.06	1476.88
629.21	1392.62
629.36	1427.73
629.51	1448.79
629.66	1547.09
629.81	1724.97
629.96	1856.04
630.11	2094.78
630.26	2150.95
630.41	2480.97
630.56	2588.63
630.71	2698.64
630.86	2677.57
631.01	2541.82
631.16	2495.01
631.31	2228.19
631.46	1989.46
631.61	1638.38
631.76	1392.62
631.91	1207.72
632.06	1109.41
632.21	915.15
632.36	873.02
632.51	828.55
632.66	669.39
632.81	660.03
632.96	702.16
633.10	711.52
633.25	599.18
633.40	599.18
633.55	559.39
633.70	554.71
633.85	510.24
634.00	505.56
634.15	535.98
634.30	507.90
634.45	507.90
634.60	489.17
634.75	447.04
634.90	456.40
635.05	435.34
635.19	447.04
635.34	496.19
635.49	451.72
635.64	433.00
635.79	435.34
635.94	468.11
636.09	475.13
636.24	554.71
636.39	503.22
636.53	479.81
636.68	400.23
636.83	444.70
636.98	376.83
637.13	376.83
637.28	344.06
637.43	437.68
637.57	425.98
637.72	456.40
637.87	414.27
638.02	376.83
638.17	362.78
638.32	416.62
638.46	407.25
638.61	355.76
638.76	294.91
638.91	374.49
639.06	418.96
639.20	362.78
639.35	433.00
639.50	337.04
639.65	395.55
639.80	407.25
639.94	362.78
640.09	393.21
640.24	433.00
640.39	390.87
640.54	414.27
640.68	351.08
640.83	402.57
640.98	360.44
641.13	358.10
641.27	355.76
641.42	346.40
641.57	393.21
641.72	360.44
641.86	369.80
642.01	402.57
642.16	447.04
642.31	367.46
642.45	400.23
642.60	425.98
642.75	358.10
642.90	376.83
643.04	418.96
643.19	327.68
643.34	306.61
643.48	374.49
643.63	353.42
643.78	402.57
643.93	360.44
644.07	341.72
644.22	372.15
644.37	344.06
644.51	362.78
644.66	339.38
644.81	379.17
644.95	325.33
645.10	327.68
645.25	276.18
645.39	348.74
645.54	365.12
645.69	313.63
645.83	315.97
645.98	381.51
646.13	383.85
646.27	334.70
646.42	304.27
646.57	304.27
646.71	236.39
646.86	318.31
647.00	416.62
647.15	234.05
647.30	318.31
647.44	386.19
647.59	353.42
647.74	318.31
647.88	320.65
648.03	294.91
648.17	465.77
648.32	346.40
648.47	334.70
648.61	348.74
648.76	306.61
648.90	402.57
649.05	369.80
649.20	397.89
649.34	397.89
649.49	571.09
649.63	491.51
649.78	601.52
649.92	645.99
650.07	767.70
650.21	877.70
650.36	896.43
650.51	891.74
650.65	784.08
650.80	709.18
650.94	645.99
651.09	617.90
651.23	505.56
651.38	461.09
651.52	437.68
651.67	489.17
651.81	418.96
651.96	442.36
652.10	447.04
652.25	414.27
652.39	451.72
652.54	421.30
652.68	461.09
652.83	447.04
652.97	493.85
653.12	521.94
653.26	505.56
653.41	521.94
653.55	411.93
653.70	411.93
653.84	365.12
653.99	358.10
654.13	341.72
654.27	308.95
654.42	348.74
654.56	407.25
654.71	367.46
654.85	301.93
655.00	266.82
655.14	269.16
655.29	308.95
655.43	341.72
655.57	386.19
655.72	194.26
655.86	322.99
656.01	271.50
656.15	337.04
656.30	360.44
656.44	297.25
656.58	325.33
656.73	269.16
656.87	290.23
657.01	313.63
657.16	454.06
657.30	360.44
657.45	388.53
657.59	360.44
657.73	348.74
657.88	362.78
658.02	404.91
658.16	353.42
658.31	306.61
658.45	294.91
658.60	276.18
658.74	320.65
658.88	306.61
659.03	229.37
659.17	262.14
659.31	248.10
659.46	238.73
659.60	311.29
659.74	304.27
659.89	262.14
660.03	255.12
660.17	276.18
660.32	301.93
660.46	290.23
660.60	215.33
660.74	243.42
660.89	208.31
661.03	276.18
661.17	304.27
661.32	301.93
661.46	301.93
661.60	362.78
661.74	454.06
661.89	500.87
662.03	587.47
662.17	606.20
662.31	557.05
662.46	589.82
662.60	517.26
662.74	465.77
662.88	381.51
663.03	404.91
663.17	351.08
663.31	308.95
663.45	301.93
663.60	287.89
663.74	397.89
663.88	231.71
664.02	402.57
664.17	243.42
664.31	292.57
664.45	259.80
664.59	262.14
664.73	325.33
664.88	318.31
665.02	243.42
665.16	243.42
665.30	402.57
665.44	283.20
665.59	269.16
665.73	198.95
665.87	238.73
666.01	306.61
666.15	273.84
666.29	208.31
666.44	278.52
666.58	292.57
666.72	196.60
666.86	255.12
667.00	264.48
667.14	327.68
667.28	194.26
667.43	264.48
667.57	234.05
667.71	266.82
667.85	248.10
667.99	299.59
668.13	257.46
668.27	330.02
668.41	276.18
668.56	238.73
668.70	266.82
668.84	229.37
668.98	283.20
669.12	189.58
669.26	290.23
669.40	339.38
669.54	227.03
669.68	255.12
669.82	236.39
669.96	271.50
670.10	194.26
670.25	292.57
670.39	210.65
670.53	184.90
670.67	255.12
670.81	177.88
670.95	234.05
671.09	243.42
671.23	292.57
671.37	245.76
671.51	285.55
671.65	308.95
671.79	243.42
671.93	259.80
672.07	358.10
672.21	304.27
672.35	208.31
672.49	294.91
672.63	248.10
672.77	159.16
672.91	222.35
673.05	262.14
673.19	262.14
673.33	168.52
673.47	287.89
673.61	208.31
673.75	180.22
673.89	194.26
674.03	306.61
674.17	212.99
674.31	205.97
674.45	266.82
674.59	236.39
674.73	187.24
674.87	248.10
675.01	252.78
675.15	257.46
675.29	198.95
675.43	297.25
675.56	250.44
675.70	229.37
675.84	259.80
675.98	259.80
676.12	208.31
676.26	243.42
676.40	325.33
676.54	201.29
676.68	156.82
676.82	248.10
676.96	210.65
677.10	159.16
677.23	177.88
677.37	212.99
677.51	234.05
677.65	322.99
677.79	166.18
677.93	229.37
678.07	259.80
678.21	182.56
678.34	168.52
678.48	252.78
678.62	271.50
678.76	114.69
678.90	227.03
679.04	175.54
679.18	187.24
679.31	273.84
679.45	156.82
679.59	201.29
679.73	273.84
679.87	208.31
680.00	248.10
680.14	231.71
680.28	283.20
680.42	273.84
680.56	201.29
680.70	189.58
680.83	198.95
680.97	194.26
681.11	238.73
681.25	259.80
681.39	229.37
681.52	245.76
681.66	241.08
681.80	262.14
681.94	196.60
682.07	210.65
682.21	325.33
682.35	152.13
682.49	208.31
682.62	208.31
682.76	236.39
682.90	290.23
683.04	271.50
683.17	243.42
683.31	161.50
683.45	224.69
683.59	283.20
683.72	208.31
683.86	124.05
684.00	145.11
684.13	231.71
684.27	245.76
684.41	210.65
684.55	217.67
684.68	184.90
684.82	238.73
684.96	177.88
685.09	236.39
685.23	238.73
685.37	243.42
685.50	269.16
685.64	208.31
685.78	196.60
685.91	238.73
686.05	152.13
686.19	245.76
686.32	271.50
686.46	220.01
686.60	187.24
686.73	278.52
686.87	280.86
687.01	224.69
687.14	273.84
687.28	306.61
687.42	344.06
687.55	351.08
687.69	393.21
687.82	313.63
687.96	388.53
688.10	407.25
688.23	273.84
688.37	351.08
688.50	245.76
688.64	358.10
688.78	271.50
688.91	248.10
689.05	184.90
689.18	212.99
689.32	175.54
689.46	170.86
689.59	194.26
689.73	236.39
689.86	227.03
690.00	184.90
690.13	163.84
690.27	175.54
690.41	159.16
690.54	222.35
690.68	184.90
690.81	205.97
690.95	135.75
691.08	135.75
691.22	180.22
691.35	180.22
691.49	166.18
691.62	227.03
691.76	105.32
691.89	210.65
692.03	156.82
692.16	138.09
692.30	184.90
692.43	166.18
692.57	154.48
692.70	196.60
692.84	248.10
692.97	124.05
693.11	210.65
693.24	170.86
693.38	182.56
693.51	332.36
693.65	313.63
693.78	266.82
693.92	386.19
694.05	315.97
694.19	252.78
694.32	257.46
694.45	161.50
694.59	184.90
694.72	196.60
694.86	159.16
694.99	177.88
695.13	163.84
695.26	159.16
695.39	159.16
695.53	229.37
695.66	152.13
695.80	163.84
695.93	98.30
696.07	140.43
696.20	236.39
696.33	173.20
696.47	227.03
696.60	131.07
696.73	170.86
696.87	105.32
697.00	175.54
697.14	142.77
697.27	182.56
697.40	215.33
697.54	58.51
697.67	159.16
697.80	203.63
697.94	210.65
698.07	215.33
698.21	184.90
698.34	121.71
698.47	81.92
698.61	184.90
698.74	177.88
698.87	114.69
699.01	163.84
699.14	100.64
699.27	154.48
699.40	283.20
699.54	147.45
699.67	117.03
699.80	222.35
699.94	138.09
700.07	152.13
700.20	114.69
700.34	222.35
700.47	217.67
700.60	107.66
700.73	152.13
700.87	154.48
701.00	205.97
701.13	112.35
701.26	110.01
701.40	163.84
701.53	126.39
701.66	156.82
701.79	126.39
701.93	107.66
702.06	273.84
702.19	191.92
702.32	182.56
702.46	142.77
702.59	131.07
702.72	142.77
702.85	196.60
702.99	138.09
703.12	128.73
703.25	163.84
703.38	156.82
703.51	177.88
703.65	95.96
703.78	191.92
703.91	145.11
704.04	168.52
704.17	189.58
704.31	147.45
704.44	170.86
704.57	152.13
704.70	147.45
704.83	161.50
704.96	287.89
705.10	222.35
705.23	250.44
>>>>>End Processed Spectral Data<<<<<
