SpectraSuite Data File
++++++++++++++++++++++++++++++++++++
Date: Fri Oct 04 11:42:30 GMT-05:00 2013
User: price-jones
Dark Spectrum Present: No
Reference Spectrum Present: No
Number of Sampled Component Spectra: 1
Spectrometers: USB2+H05261
Integration Time (usec): 100000 (USB2+H05261)
Spectra Averaged: 1 (USB2+H05261)
Boxcar Smoothing: 0 (USB2+H05261)
Correct for Electrical Dark: No (USB2+H05261)
Strobe/Lamp Enabled: No (USB2+H05261)
Correct for Detector Non-linearity: No (USB2+H05261)
Correct for Stray Light: No (USB2+H05261)
Number of Pixels in Processed Spectrum: 2048
>>>>>Begin Processed Spectral Data<<<<<
365.73	23.41
365.92	23.41
366.12	23.41
366.32	0.00
366.52	0.00
366.72	0.00
366.91	0.00
367.11	0.00
367.31	0.00
367.51	0.00
367.70	39.79
367.90	0.00
368.10	0.00
368.30	0.00
368.49	0.00
368.69	0.00
368.89	0.00
369.09	0.00
369.28	42.13
369.48	0.00
369.68	0.00
369.87	0.00
370.07	18.72
370.27	105.32
370.47	67.88
370.66	60.85
370.86	0.00
371.06	67.88
371.25	58.51
371.45	77.24
371.65	91.28
371.84	93.62
372.04	39.79
372.24	135.75
372.44	81.92
372.63	131.07
372.83	156.82
373.03	60.85
373.22	88.94
373.42	91.28
373.62	147.45
373.81	119.37
374.01	110.01
374.21	156.82
374.40	119.37
374.60	180.22
374.79	107.66
374.99	102.98
375.19	110.01
375.38	124.05
375.58	184.90
375.78	140.43
375.97	95.96
376.17	191.92
376.37	138.09
376.56	91.28
376.76	140.43
376.95	142.77
377.15	70.22
377.35	145.11
377.54	98.30
377.74	98.30
377.93	18.72
378.13	182.56
378.33	100.64
378.52	128.73
378.72	131.07
378.91	84.26
379.11	126.39
379.31	56.17
379.50	98.30
379.70	154.48
379.89	110.01
380.09	107.66
380.28	107.66
380.48	30.43
380.68	88.94
380.87	81.92
381.07	88.94
381.26	135.75
381.46	119.37
381.65	135.75
381.85	131.07
382.04	72.56
382.24	72.56
382.43	86.60
382.63	65.54
382.83	107.66
383.02	102.98
383.22	163.84
383.41	112.35
383.61	79.58
383.80	105.32
384.00	110.01
384.19	100.64
384.39	65.54
384.58	114.69
384.78	154.48
384.97	100.64
385.17	145.11
385.36	112.35
385.56	117.03
385.75	142.77
385.95	149.79
386.14	180.22
386.34	156.82
386.53	126.39
386.72	184.90
386.92	30.43
387.11	117.03
387.31	100.64
387.50	25.75
387.70	0.00
387.89	145.11
388.09	49.15
388.28	107.66
388.48	91.28
388.67	119.37
388.86	95.96
389.06	32.77
389.25	168.52
389.45	154.48
389.64	112.35
389.84	140.43
390.03	135.75
390.22	70.22
390.42	114.69
390.61	35.11
390.81	65.54
391.00	161.50
391.19	105.32
391.39	65.54
391.58	135.75
391.78	112.35
391.97	107.66
392.16	161.50
392.36	102.98
392.55	35.11
392.75	84.26
392.94	107.66
393.13	152.13
393.33	70.22
393.52	81.92
393.71	140.43
393.91	117.03
394.10	88.94
394.29	98.30
394.49	140.43
394.68	135.75
394.88	126.39
395.07	147.45
395.26	117.03
395.46	98.30
395.65	184.90
395.84	60.85
396.04	95.96
396.23	145.11
396.42	119.37
396.62	138.09
396.81	91.28
397.00	135.75
397.19	79.58
397.39	72.56
397.58	177.88
397.77	56.17
397.97	100.64
398.16	156.82
398.35	196.60
398.55	126.39
398.74	81.92
398.93	63.19
399.12	91.28
399.32	126.39
399.51	102.98
399.70	142.77
399.90	79.58
400.09	88.94
400.28	140.43
400.47	98.30
400.67	187.24
400.86	100.64
401.05	119.37
401.24	159.16
401.44	138.09
401.63	205.97
401.82	173.20
402.01	142.77
402.21	114.69
402.40	166.18
402.59	191.92
402.78	152.13
402.97	133.41
403.17	156.82
403.36	72.56
403.55	39.79
403.74	177.88
403.93	187.24
404.13	196.60
404.32	283.20
404.51	205.97
404.70	252.78
404.89	138.09
405.09	135.75
405.28	60.85
405.47	135.75
405.66	119.37
405.85	163.84
406.05	156.82
406.24	56.17
406.43	110.01
406.62	98.30
406.81	156.82
407.00	112.35
407.20	117.03
407.39	95.96
407.58	124.05
407.77	170.86
407.96	177.88
408.15	102.98
408.34	152.13
408.54	147.45
408.73	168.52
408.92	128.73
409.11	198.95
409.30	133.41
409.49	168.52
409.68	166.18
409.87	168.52
410.07	88.94
410.26	128.73
410.45	128.73
410.64	131.07
410.83	159.16
411.02	93.62
411.21	138.09
411.40	142.77
411.59	161.50
411.78	168.52
411.98	140.43
412.17	138.09
412.36	187.24
412.55	84.26
412.74	140.43
412.93	147.45
413.12	28.09
413.31	138.09
413.50	210.65
413.69	110.01
413.88	196.60
414.07	81.92
414.26	124.05
414.45	100.64
414.64	121.71
414.83	131.07
415.02	152.13
415.22	128.73
415.41	182.56
415.60	159.16
415.79	88.94
415.98	234.05
416.17	135.75
416.36	182.56
416.55	170.86
416.74	159.16
416.93	173.20
417.12	184.90
417.31	142.77
417.50	100.64
417.69	177.88
417.88	93.62
418.07	84.26
418.26	67.88
418.45	224.69
418.64	100.64
418.83	173.20
419.02	149.79
419.21	149.79
419.39	149.79
419.58	77.24
419.77	114.69
419.96	191.92
420.15	112.35
420.34	91.28
420.53	149.79
420.72	205.97
420.91	154.48
421.10	142.77
421.29	170.86
421.48	142.77
421.67	170.86
421.86	168.52
422.05	205.97
422.24	124.05
422.43	124.05
422.61	163.84
422.80	135.75
422.99	184.90
423.18	81.92
423.37	131.07
423.56	182.56
423.75	166.18
423.94	126.39
424.13	180.22
424.32	128.73
424.50	105.32
424.69	102.98
424.88	203.63
425.07	168.52
425.26	117.03
425.45	184.90
425.64	128.73
425.83	131.07
426.01	184.90
426.20	175.54
426.39	84.26
426.58	138.09
426.77	93.62
426.96	170.86
427.15	191.92
427.33	161.50
427.52	112.35
427.71	163.84
427.90	145.11
428.09	121.71
428.28	159.16
428.46	128.73
428.65	161.50
428.84	145.11
429.03	149.79
429.22	166.18
429.40	152.13
429.59	100.64
429.78	189.58
429.97	93.62
430.16	121.71
430.34	84.26
430.53	189.58
430.72	79.58
430.91	205.97
431.10	184.90
431.28	138.09
431.47	105.32
431.66	177.88
431.85	91.28
432.03	121.71
432.22	241.08
432.41	133.41
432.60	217.67
432.79	131.07
432.97	119.37
433.16	175.54
433.35	145.11
433.54	124.05
433.72	182.56
433.91	135.75
434.10	215.33
434.28	142.77
434.47	194.26
434.66	154.48
434.85	189.58
435.03	283.20
435.22	573.43
435.41	987.71
435.59	1032.18
435.78	746.63
435.97	400.23
436.16	212.99
436.34	154.48
436.53	194.26
436.72	173.20
436.90	227.03
437.09	215.33
437.28	114.69
437.46	196.60
437.65	124.05
437.84	222.35
438.02	210.65
438.21	154.48
438.40	182.56
438.58	149.79
438.77	215.33
438.96	159.16
439.14	215.33
439.33	107.66
439.52	205.97
439.70	159.16
439.89	138.09
440.08	175.54
440.26	149.79
440.45	168.52
440.63	154.48
440.82	194.26
441.01	170.86
441.19	168.52
441.38	133.41
441.57	198.95
441.75	201.29
441.94	145.11
442.12	149.79
442.31	215.33
442.50	126.39
442.68	159.16
442.87	191.92
443.05	180.22
443.24	98.30
443.43	201.29
443.61	147.45
443.80	175.54
443.98	163.84
444.17	177.88
444.35	138.09
444.54	198.95
444.73	161.50
444.91	138.09
445.10	166.18
445.28	135.75
445.47	191.92
445.65	175.54
445.84	217.67
446.02	203.63
446.21	112.35
446.39	128.73
446.58	182.56
446.77	187.24
446.95	161.50
447.14	166.18
447.32	168.52
447.51	212.99
447.69	156.82
447.88	98.30
448.06	201.29
448.25	142.77
448.43	145.11
448.62	117.03
448.80	159.16
448.99	208.31
449.17	91.28
449.36	255.12
449.54	203.63
449.73	121.71
449.91	198.95
450.10	140.43
450.28	257.46
450.46	227.03
450.65	262.14
450.83	215.33
451.02	149.79
451.20	154.48
451.39	124.05
451.57	220.01
451.76	175.54
451.94	271.50
452.13	180.22
452.31	161.50
452.49	177.88
452.68	159.16
452.86	168.52
453.05	191.92
453.23	203.63
453.42	147.45
453.60	168.52
453.78	166.18
453.97	229.37
454.15	131.07
454.34	212.99
454.52	180.22
454.70	198.95
454.89	217.67
455.07	119.37
455.26	170.86
455.44	170.86
455.62	154.48
455.81	124.05
455.99	149.79
456.17	145.11
456.36	149.79
456.54	177.88
456.73	234.05
456.91	236.39
457.09	191.92
457.28	238.73
457.46	173.20
457.64	201.29
457.83	234.05
458.01	72.56
458.19	184.90
458.38	112.35
458.56	131.07
458.74	133.41
458.93	217.67
459.11	156.82
459.29	187.24
459.48	184.90
459.66	201.29
459.84	140.43
460.03	250.44
460.21	159.16
460.39	126.39
460.57	131.07
460.76	95.96
460.94	257.46
461.12	224.69
461.31	245.76
461.49	175.54
461.67	102.98
461.85	189.58
462.04	205.97
462.22	355.76
462.40	140.43
462.59	222.35
462.77	191.92
462.95	215.33
463.13	210.65
463.32	149.79
463.50	117.03
463.68	170.86
463.86	205.97
464.05	133.41
464.23	241.08
464.41	187.24
464.59	173.20
464.78	173.20
464.96	138.09
465.14	201.29
465.32	250.44
465.50	175.54
465.69	224.69
465.87	156.82
466.05	163.84
466.23	128.73
466.41	177.88
466.60	177.88
466.78	198.95
466.96	152.13
467.14	210.65
467.32	194.26
467.51	238.73
467.69	205.97
467.87	140.43
468.05	191.92
468.23	252.78
468.41	147.45
468.60	145.11
468.78	168.52
468.96	222.35
469.14	180.22
469.32	163.84
469.50	196.60
469.69	114.69
469.87	135.75
470.05	163.84
470.23	140.43
470.41	154.48
470.59	154.48
470.77	194.26
470.95	215.33
471.14	243.42
471.32	170.86
471.50	227.03
471.68	205.97
471.86	229.37
472.04	140.43
472.22	194.26
472.40	152.13
472.58	121.71
472.77	168.52
472.95	159.16
473.13	166.18
473.31	156.82
473.49	159.16
473.67	196.60
473.85	145.11
474.03	196.60
474.21	208.31
474.39	170.86
474.57	156.82
474.75	131.07
474.93	163.84
475.12	126.39
475.30	142.77
475.48	135.75
475.66	220.01
475.84	131.07
476.02	133.41
476.20	189.58
476.38	184.90
476.56	194.26
476.74	217.67
476.92	173.20
477.10	140.43
477.28	161.50
477.46	215.33
477.64	203.63
477.82	142.77
478.00	142.77
478.18	159.16
478.36	175.54
478.54	140.43
478.72	217.67
478.90	201.29
479.08	201.29
479.26	166.18
479.44	168.52
479.62	203.63
479.80	269.16
479.98	210.65
480.16	248.10
480.34	196.60
480.52	212.99
480.70	194.26
480.88	131.07
481.06	147.45
481.24	187.24
481.41	203.63
481.59	255.12
481.77	252.78
481.95	175.54
482.13	280.86
482.31	280.86
482.49	133.41
482.67	217.67
482.85	257.46
483.03	276.18
483.21	238.73
483.39	236.39
483.57	189.58
483.74	231.71
483.92	241.08
484.10	177.88
484.28	271.50
484.46	313.63
484.64	315.97
484.82	280.86
485.00	273.84
485.18	252.78
485.35	332.36
485.53	243.42
485.71	318.31
485.89	266.82
486.07	264.48
486.25	351.08
486.43	346.40
486.61	266.82
486.78	376.83
486.96	290.23
487.14	451.72
487.32	301.93
487.50	257.46
487.68	397.89
487.85	315.97
488.03	360.44
488.21	346.40
488.39	332.36
488.57	341.72
488.75	346.40
488.92	599.18
489.10	332.36
489.28	322.99
489.46	315.97
489.64	294.91
489.81	330.02
489.99	252.78
490.17	299.59
490.35	407.25
490.53	285.55
490.70	301.93
490.88	210.65
491.06	311.29
491.24	304.27
491.41	315.97
491.59	278.52
491.77	311.29
491.95	264.48
492.13	304.27
492.30	234.05
492.48	311.29
492.66	287.89
492.84	311.29
493.01	236.39
493.19	210.65
493.37	367.46
493.54	245.76
493.72	252.78
493.90	327.68
494.08	210.65
494.25	372.15
494.43	259.80
494.61	304.27
494.79	297.25
494.96	306.61
495.14	257.46
495.32	229.37
495.49	320.65
495.67	262.14
495.85	264.48
496.02	191.92
496.20	332.36
496.38	287.89
496.55	217.67
496.73	248.10
496.91	297.25
497.09	276.18
497.26	325.33
497.44	245.76
497.62	285.55
497.79	220.01
497.97	245.76
498.14	259.80
498.32	269.16
498.50	318.31
498.67	236.39
498.85	224.69
499.03	252.78
499.20	318.31
499.38	241.08
499.56	243.42
499.73	285.55
499.91	308.95
500.08	229.37
500.26	198.95
500.44	280.86
500.61	320.65
500.79	250.44
500.97	294.91
501.14	217.67
501.32	222.35
501.49	271.50
501.67	278.52
501.84	220.01
502.02	208.31
502.20	297.25
502.37	245.76
502.55	243.42
502.72	227.03
502.90	278.52
503.07	250.44
503.25	241.08
503.43	205.97
503.60	248.10
503.78	306.61
503.95	250.44
504.13	257.46
504.30	283.20
504.48	287.89
504.65	306.61
504.83	306.61
505.01	243.42
505.18	255.12
505.36	318.31
505.53	227.03
505.71	210.65
505.88	318.31
506.06	224.69
506.23	301.93
506.41	117.03
506.58	227.03
506.76	184.90
506.93	224.69
507.11	262.14
507.28	194.26
507.46	248.10
507.63	252.78
507.81	180.22
507.98	252.78
508.16	208.31
508.33	299.59
508.50	248.10
508.68	119.37
508.85	201.29
509.03	201.29
509.20	273.84
509.38	194.26
509.55	198.95
509.73	236.39
509.90	212.99
510.08	194.26
510.25	262.14
510.42	208.31
510.60	205.97
510.77	266.82
510.95	276.18
511.12	327.68
511.30	224.69
511.47	269.16
511.64	205.97
511.82	154.48
511.99	234.05
512.17	210.65
512.34	285.55
512.51	170.86
512.69	177.88
512.86	294.91
513.04	203.63
513.21	301.93
513.38	285.55
513.56	292.57
513.73	351.08
513.90	269.16
514.08	234.05
514.25	266.82
514.43	257.46
514.60	149.79
514.77	266.82
514.95	269.16
515.12	234.05
515.29	255.12
515.47	201.29
515.64	241.08
515.81	341.72
515.99	255.12
516.16	278.52
516.33	318.31
516.51	208.31
516.68	224.69
516.85	217.67
517.03	191.92
517.20	255.12
517.37	180.22
517.54	203.63
517.72	205.97
517.89	191.92
518.06	215.33
518.24	238.73
518.41	285.55
518.58	287.89
518.75	168.52
518.93	257.46
519.10	358.10
519.27	243.42
519.45	259.80
519.62	250.44
519.79	299.59
519.96	220.01
520.14	224.69
520.31	177.88
520.48	245.76
520.65	203.63
520.83	224.69
521.00	248.10
521.17	285.55
521.34	255.12
521.52	283.20
521.69	243.42
521.86	248.10
522.03	257.46
522.20	327.68
522.38	248.10
522.55	259.80
522.72	238.73
522.89	297.25
523.07	304.27
523.24	201.29
523.41	238.73
523.58	198.95
523.75	301.93
523.92	313.63
524.10	243.42
524.27	220.01
524.44	306.61
524.61	278.52
524.78	252.78
524.96	278.52
525.13	201.29
525.30	238.73
525.47	248.10
525.64	184.90
525.81	311.29
525.98	262.14
526.16	276.18
526.33	241.08
526.50	231.71
526.67	236.39
526.84	231.71
527.01	210.65
527.18	250.44
527.36	191.92
527.53	220.01
527.70	285.55
527.87	215.33
528.04	346.40
528.21	280.86
528.38	299.59
528.55	297.25
528.72	285.55
528.89	362.78
529.07	248.10
529.24	290.23
529.41	262.14
529.58	337.04
529.75	248.10
529.92	241.08
530.09	203.63
530.26	285.55
530.43	243.42
530.60	231.71
530.77	252.78
530.94	278.52
531.11	266.82
531.28	280.86
531.46	299.59
531.63	313.63
531.80	203.63
531.97	294.91
532.14	280.86
532.31	325.33
532.48	255.12
532.65	248.10
532.82	227.03
532.99	351.08
533.16	297.25
533.33	280.86
533.50	306.61
533.67	315.97
533.84	332.36
534.01	278.52
534.18	257.46
534.35	252.78
534.52	278.52
534.69	276.18
534.86	318.31
535.03	287.89
535.20	297.25
535.37	313.63
535.54	280.86
535.71	325.33
535.88	381.51
536.05	348.74
536.22	322.99
536.38	320.65
536.55	299.59
536.72	346.40
536.89	266.82
537.06	339.38
537.23	269.16
537.40	435.34
537.57	360.44
537.74	414.27
537.91	425.98
538.08	425.98
538.25	402.57
538.42	423.64
538.59	402.57
538.75	283.20
538.92	461.09
539.09	456.40
539.26	463.43
539.43	503.22
539.60	531.30
539.77	580.45
539.94	585.13
540.11	648.33
540.28	648.33
540.44	692.80
540.61	734.93
540.78	842.59
540.95	863.66
541.12	999.41
541.29	1083.67
541.46	1153.88
541.62	1179.63
541.79	1240.48
541.96	1268.57
542.13	1191.33
542.30	1158.57
542.47	1174.95
542.63	1130.48
542.80	1121.12
542.97	1135.16
543.14	1163.25
543.31	1224.10
543.48	1135.16
543.64	1074.31
543.81	1081.33
543.98	999.41
544.15	1064.94
544.32	1118.78
544.48	985.37
544.65	992.39
544.82	1064.94
544.99	1013.45
545.16	1013.45
545.32	1088.35
545.49	1612.63
545.66	2490.33
545.83	2930.35
546.00	2567.57
546.16	1860.73
546.33	1406.66
546.50	1130.48
546.67	877.70
546.83	795.78
547.00	856.64
547.17	699.82
547.34	676.41
547.50	702.16
547.67	613.22
547.84	636.63
548.00	709.18
548.17	653.01
548.34	655.35
548.51	617.90
548.67	631.94
548.84	758.33
549.01	578.11
549.18	559.39
549.34	601.52
549.51	547.69
549.68	543.00
549.84	552.37
550.01	543.00
550.18	601.52
550.34	594.50
550.51	486.83
550.68	538.32
550.84	440.02
551.01	421.30
551.18	507.90
551.34	454.06
551.51	421.30
551.68	484.49
551.84	468.11
552.01	365.12
552.18	505.56
552.34	360.44
552.51	379.17
552.68	409.59
552.84	423.64
553.01	379.17
553.18	367.46
553.34	351.08
553.51	322.99
553.67	414.27
553.84	388.53
554.01	404.91
554.17	299.59
554.34	325.33
554.51	325.33
554.67	278.52
554.84	320.65
555.00	299.59
555.17	390.87
555.33	334.70
555.50	285.55
555.67	346.40
555.83	262.14
556.00	330.02
556.16	395.55
556.33	280.86
556.50	292.57
556.66	266.82
556.83	285.55
556.99	182.56
557.16	222.35
557.32	257.46
557.49	341.72
557.65	344.06
557.82	231.71
557.98	297.25
558.15	259.80
558.32	287.89
558.48	255.12
558.65	175.54
558.81	222.35
558.98	262.14
559.14	234.05
559.31	243.42
559.47	313.63
559.64	238.73
559.80	234.05
559.97	248.10
560.13	287.89
560.30	264.48
560.46	208.31
560.63	292.57
560.79	243.42
560.96	224.69
561.12	269.16
561.29	304.27
561.45	215.33
561.61	245.76
561.78	400.23
561.94	306.61
562.11	248.10
562.27	238.73
562.44	227.03
562.60	285.55
562.77	290.23
562.93	383.85
563.10	222.35
563.26	280.86
563.42	184.90
563.59	229.37
563.75	271.50
563.92	301.93
564.08	290.23
564.24	292.57
564.41	383.85
564.57	273.84
564.74	264.48
564.90	271.50
565.07	252.78
565.23	198.95
565.39	203.63
565.56	262.14
565.72	210.65
565.88	264.48
566.05	283.20
566.21	236.39
566.38	271.50
566.54	280.86
566.70	280.86
566.87	283.20
567.03	238.73
567.19	208.31
567.36	271.50
567.52	278.52
567.68	308.95
567.85	198.95
568.01	184.90
568.17	231.71
568.34	208.31
568.50	313.63
568.66	231.71
568.83	280.86
568.99	224.69
569.15	334.70
569.32	290.23
569.48	259.80
569.64	292.57
569.81	287.89
569.97	325.33
570.13	257.46
570.30	255.12
570.46	231.71
570.62	220.01
570.78	208.31
570.95	220.01
571.11	205.97
571.27	269.16
571.43	264.48
571.60	285.55
571.76	297.25
571.92	278.52
572.09	198.95
572.25	250.44
572.41	210.65
572.57	259.80
572.74	259.80
572.90	224.69
573.06	318.31
573.22	248.10
573.38	266.82
573.55	259.80
573.71	283.20
573.87	273.84
574.03	168.52
574.20	255.12
574.36	311.29
574.52	170.86
574.68	243.42
574.84	224.69
575.01	175.54
575.17	332.36
575.33	262.14
575.49	306.61
575.65	285.55
575.82	315.97
575.98	351.08
576.14	320.65
576.30	404.91
576.46	507.90
576.62	650.67
576.79	805.14
576.95	550.03
577.11	423.64
577.27	320.65
577.43	388.53
577.59	299.59
577.75	238.73
577.92	294.91
578.08	290.23
578.24	264.48
578.40	430.66
578.56	580.45
578.72	559.39
578.88	702.16
579.04	528.96
579.21	479.81
579.37	484.49
579.53	400.23
579.69	383.85
579.85	425.98
580.01	407.25
580.17	386.19
580.33	355.76
580.49	341.72
580.65	355.76
580.82	353.42
580.98	315.97
581.14	351.08
581.30	313.63
581.46	379.17
581.62	421.30
581.78	404.91
581.94	402.57
582.10	360.44
582.26	484.49
582.42	353.42
582.58	379.17
582.74	435.34
582.90	437.68
583.06	423.64
583.22	421.30
583.38	402.57
583.54	362.78
583.70	491.51
583.86	393.21
584.02	465.77
584.18	479.81
584.34	397.89
584.50	402.57
584.66	411.93
584.82	360.44
584.98	393.21
585.14	433.00
585.30	381.51
585.46	458.74
585.62	327.68
585.78	318.31
585.94	330.02
586.10	390.87
586.26	395.55
586.42	468.11
586.58	407.25
586.74	564.07
586.90	617.90
587.06	587.47
587.22	486.83
587.38	524.28
587.54	514.92
587.70	505.56
587.86	472.79
588.02	397.89
588.18	355.76
588.34	322.99
588.49	351.08
588.65	280.86
588.81	362.78
588.97	358.10
589.13	299.59
589.29	351.08
589.45	297.25
589.61	238.73
589.77	332.36
589.93	278.52
590.08	315.97
590.24	308.95
590.40	287.89
590.56	322.99
590.72	334.70
590.88	271.50
591.04	315.97
591.20	304.27
591.35	449.38
591.51	313.63
591.67	285.55
591.83	313.63
591.99	374.49
592.15	369.80
592.31	440.02
592.46	369.80
592.62	386.19
592.78	390.87
592.94	454.06
593.10	400.23
593.26	463.43
593.41	461.09
593.57	411.93
593.73	367.46
593.89	346.40
594.05	285.55
594.20	337.04
594.36	287.89
594.52	245.76
594.68	299.59
594.84	299.59
594.99	337.04
595.15	285.55
595.31	311.29
595.47	327.68
595.62	262.14
595.78	372.15
595.94	285.55
596.10	334.70
596.25	287.89
596.41	287.89
596.57	407.25
596.73	234.05
596.88	184.90
597.04	243.42
597.20	327.68
597.36	320.65
597.51	259.80
597.67	255.12
597.83	285.55
597.99	278.52
598.14	266.82
598.30	337.04
598.46	351.08
598.61	407.25
598.77	397.89
598.93	423.64
599.09	386.19
599.24	397.89
599.40	362.78
599.56	395.55
599.71	393.21
599.87	301.93
600.03	339.38
600.18	330.02
600.34	278.52
600.50	220.01
600.65	386.19
600.81	341.72
600.97	262.14
601.12	311.29
601.28	351.08
601.44	287.89
601.59	311.29
601.75	236.39
601.91	231.71
602.06	266.82
602.22	308.95
602.37	273.84
602.53	280.86
602.69	269.16
602.84	196.60
603.00	243.42
603.16	163.84
603.31	334.70
603.47	248.10
603.62	259.80
603.78	318.31
603.94	322.99
604.09	285.55
604.25	332.36
604.40	203.63
604.56	330.02
604.71	187.24
604.87	248.10
605.03	280.86
605.18	283.20
605.34	311.29
605.49	330.02
605.65	266.82
605.80	290.23
605.96	245.76
606.12	313.63
606.27	294.91
606.43	266.82
606.58	339.38
606.74	315.97
606.89	299.59
607.05	358.10
607.20	238.73
607.36	351.08
607.51	355.76
607.67	297.25
607.82	372.15
607.98	461.09
608.13	418.96
608.29	383.85
608.44	402.57
608.60	447.04
608.75	435.34
608.91	428.32
609.06	552.37
609.22	500.87
609.37	543.00
609.53	524.28
609.68	550.03
609.84	650.67
609.99	734.93
610.15	814.51
610.30	1078.99
610.46	1380.92
610.61	1607.95
610.76	1928.60
610.92	2382.67
611.07	2651.83
611.23	2738.43
611.38	2567.57
611.54	2111.16
611.69	1886.47
611.84	1558.80
612.00	1331.76
612.15	1151.54
612.31	1139.84
612.46	887.06
612.62	938.55
612.77	891.74
612.92	844.93
613.08	966.64
613.23	830.89
613.39	741.95
613.54	760.67
613.69	706.84
613.85	760.67
614.00	695.14
614.15	725.57
614.31	660.03
614.46	781.74
614.62	596.84
614.77	669.39
614.92	645.99
615.08	610.88
615.23	667.05
615.38	613.22
615.54	425.98
615.69	582.79
615.84	458.74
616.00	468.11
616.15	414.27
616.30	358.10
616.46	346.40
616.61	372.15
616.76	404.91
616.92	461.09
617.07	355.76
617.22	388.53
617.37	358.10
617.53	292.57
617.68	325.33
617.83	372.15
617.99	433.00
618.14	390.87
618.29	433.00
618.45	264.48
618.60	248.10
618.75	330.02
618.90	290.23
619.06	344.06
619.21	365.12
619.36	348.74
619.51	351.08
619.67	339.38
619.82	311.29
619.97	344.06
620.12	402.57
620.28	337.04
620.43	327.68
620.58	313.63
620.73	290.23
620.89	351.08
621.04	351.08
621.19	416.62
621.34	374.49
621.49	315.97
621.65	351.08
621.80	285.55
621.95	332.36
622.10	330.02
622.25	231.71
622.41	290.23
622.56	245.76
622.71	292.57
622.86	388.53
623.01	351.08
623.16	386.19
623.32	360.44
623.47	395.55
623.62	299.59
623.77	287.89
623.92	339.38
624.07	292.57
624.23	318.31
624.38	308.95
624.53	301.93
624.68	404.91
624.83	348.74
624.98	304.27
625.13	322.99
625.29	266.82
625.44	318.31
625.59	369.80
625.74	393.21
625.89	367.46
626.04	292.57
626.19	339.38
626.34	243.42
626.49	325.33
626.65	388.53
626.80	372.15
626.95	362.78
627.10	313.63
627.25	393.21
627.40	266.82
627.55	330.02
627.70	346.40
627.85	290.23
628.00	341.72
628.15	250.44
628.30	283.20
628.45	217.67
628.60	271.50
628.76	322.99
628.91	313.63
629.06	292.57
629.21	315.97
629.36	327.68
629.51	290.23
629.66	369.80
629.81	325.33
629.96	388.53
630.11	334.70
630.26	374.49
630.41	444.70
630.56	407.25
630.71	440.02
630.86	409.59
631.01	428.32
631.16	360.44
631.31	397.89
631.46	358.10
631.61	327.68
631.76	313.63
631.91	259.80
632.06	264.48
632.21	241.08
632.36	201.29
632.51	217.67
632.66	248.10
632.81	315.97
632.96	210.65
633.10	259.80
633.25	227.03
633.40	227.03
633.55	224.69
633.70	245.76
633.85	208.31
634.00	224.69
634.15	173.20
634.30	252.78
634.45	231.71
634.60	198.95
634.75	170.86
634.90	170.86
635.05	264.48
635.19	180.22
635.34	187.24
635.49	220.01
635.64	187.24
635.79	262.14
635.94	304.27
636.09	224.69
636.24	203.63
636.39	205.97
636.53	227.03
636.68	229.37
636.83	252.78
636.98	210.65
637.13	217.67
637.28	266.82
637.43	264.48
637.57	231.71
637.72	266.82
637.87	177.88
638.02	241.08
638.17	79.58
638.32	205.97
638.46	156.82
638.61	280.86
638.76	201.29
638.91	257.46
639.06	182.56
639.20	231.71
639.35	205.97
639.50	173.20
639.65	285.55
639.80	168.52
639.94	184.90
640.09	248.10
640.24	196.60
640.39	241.08
640.54	170.86
640.68	212.99
640.83	147.45
640.98	161.50
641.13	198.95
641.27	210.65
641.42	142.77
641.57	217.67
641.72	227.03
641.86	222.35
642.01	194.26
642.16	250.44
642.31	149.79
642.45	215.33
642.60	227.03
642.75	231.71
642.90	173.20
643.04	180.22
643.19	161.50
643.34	173.20
643.48	166.18
643.63	212.99
643.78	175.54
643.93	217.67
644.07	74.90
644.22	121.71
644.37	187.24
644.51	201.29
644.66	201.29
644.81	163.84
644.95	201.29
645.10	156.82
645.25	114.69
645.39	243.42
645.54	189.58
645.69	259.80
645.83	194.26
645.98	238.73
646.13	194.26
646.27	128.73
646.42	175.54
646.57	217.67
646.71	273.84
646.86	161.50
647.00	205.97
647.15	234.05
647.30	152.13
647.44	250.44
647.59	236.39
647.74	152.13
647.88	88.94
648.03	154.48
648.17	175.54
648.32	166.18
648.47	142.77
648.61	187.24
648.76	170.86
648.90	266.82
649.05	198.95
649.20	184.90
649.34	220.01
649.49	212.99
649.63	205.97
649.78	191.92
649.92	238.73
650.07	210.65
650.21	266.82
650.36	273.84
650.51	252.78
650.65	248.10
650.80	161.50
650.94	191.92
651.09	255.12
651.23	175.54
651.38	133.41
651.52	224.69
651.67	241.08
651.81	196.60
651.96	215.33
652.10	191.92
652.25	203.63
652.39	161.50
652.54	189.58
652.68	250.44
652.83	313.63
652.97	196.60
653.12	177.88
653.26	154.48
653.41	236.39
653.55	191.92
653.70	201.29
653.84	184.90
653.99	203.63
654.13	154.48
654.27	187.24
654.42	140.43
654.56	168.52
654.71	203.63
654.85	168.52
655.00	161.50
655.14	191.92
655.29	180.22
655.43	205.97
655.57	215.33
655.72	154.48
655.86	215.33
656.01	191.92
656.15	170.86
656.30	196.60
656.44	187.24
656.58	163.84
656.73	177.88
656.87	198.95
657.01	126.39
657.16	245.76
657.30	138.09
657.45	198.95
657.59	177.88
657.73	217.67
657.88	224.69
658.02	231.71
658.16	133.41
658.31	196.60
658.45	201.29
658.60	210.65
658.74	105.32
658.88	156.82
659.03	145.11
659.17	208.31
659.31	184.90
659.46	217.67
659.60	168.52
659.74	182.56
659.89	180.22
660.03	173.20
660.17	243.42
660.32	241.08
660.46	241.08
660.60	140.43
660.74	208.31
660.89	173.20
661.03	128.73
661.17	133.41
661.32	124.05
661.46	105.32
661.60	212.99
661.74	194.26
661.89	196.60
662.03	161.50
662.17	191.92
662.31	224.69
662.46	210.65
662.60	234.05
662.74	231.71
662.88	161.50
663.03	259.80
663.17	142.77
663.31	227.03
663.45	126.39
663.60	222.35
663.74	156.82
663.88	182.56
664.02	262.14
664.17	107.66
664.31	138.09
664.45	170.86
664.59	285.55
664.73	182.56
664.88	222.35
665.02	177.88
665.16	231.71
665.30	166.18
665.44	189.58
665.59	217.67
665.73	173.20
665.87	177.88
666.01	180.22
666.15	210.65
666.29	173.20
666.44	236.39
666.58	212.99
666.72	161.50
666.86	236.39
667.00	119.37
667.14	182.56
667.28	220.01
667.43	180.22
667.57	177.88
667.71	201.29
667.85	145.11
667.99	215.33
668.13	142.77
668.27	159.16
668.41	156.82
668.56	201.29
668.70	212.99
668.84	58.51
668.98	173.20
669.12	140.43
669.26	173.20
669.40	210.65
669.54	189.58
669.68	220.01
669.82	163.84
669.96	154.48
670.10	145.11
670.25	243.42
670.39	180.22
670.53	88.94
670.67	177.88
670.81	191.92
670.95	166.18
671.09	182.56
671.23	217.67
671.37	234.05
671.51	166.18
671.65	210.65
671.79	224.69
671.93	124.05
672.07	205.97
672.21	198.95
672.35	173.20
672.49	84.26
672.63	159.16
672.77	191.92
672.91	138.09
673.05	222.35
673.19	145.11
673.33	189.58
673.47	182.56
673.61	163.84
673.75	142.77
673.89	93.62
674.03	194.26
674.17	124.05
674.31	149.79
674.45	131.07
674.59	163.84
674.73	93.62
674.87	156.82
675.01	168.52
675.15	102.98
675.29	149.79
675.43	177.88
675.56	140.43
675.70	198.95
675.84	166.18
675.98	91.28
676.12	84.26
676.26	114.69
676.40	112.35
676.54	135.75
676.68	124.05
676.82	212.99
676.96	234.05
677.10	161.50
677.23	124.05
677.37	170.86
677.51	248.10
677.65	205.97
677.79	128.73
677.93	168.52
678.07	152.13
678.21	98.30
678.34	163.84
678.48	175.54
678.62	177.88
678.76	149.79
678.90	212.99
679.04	145.11
679.18	184.90
679.31	138.09
679.45	131.07
679.59	238.73
679.73	168.52
679.87	152.13
680.00	156.82
680.14	133.41
680.28	128.73
680.42	175.54
680.56	201.29
680.70	102.98
680.83	138.09
680.97	170.86
681.11	145.11
681.25	159.16
681.39	168.52
681.52	175.54
681.66	152.13
681.80	212.99
681.94	159.16
682.07	227.03
682.21	198.95
682.35	161.50
682.49	93.62
682.62	161.50
682.76	147.45
682.90	161.50
683.04	166.18
683.17	241.08
683.31	110.01
683.45	140.43
683.59	177.88
683.72	205.97
683.86	84.26
684.00	203.63
684.13	252.78
684.27	159.16
684.41	189.58
684.55	205.97
684.68	93.62
684.82	135.75
684.96	156.82
685.09	163.84
685.23	126.39
685.37	77.24
685.50	142.77
685.64	224.69
685.78	173.20
685.91	201.29
686.05	147.45
686.19	161.50
686.32	154.48
686.46	177.88
686.60	102.98
686.73	149.79
686.87	203.63
687.01	182.56
687.14	72.56
687.28	131.07
687.42	173.20
687.55	168.52
687.69	227.03
687.82	138.09
687.96	229.37
688.10	180.22
688.23	124.05
688.37	189.58
688.50	187.24
688.64	182.56
688.78	133.41
688.91	166.18
689.05	161.50
689.18	79.58
689.32	84.26
689.46	166.18
689.59	224.69
689.73	140.43
689.86	142.77
690.00	161.50
690.13	91.28
690.27	152.13
690.41	140.43
690.54	184.90
690.68	121.71
690.81	121.71
690.95	154.48
691.08	149.79
691.22	107.66
691.35	70.22
691.49	88.94
691.62	84.26
691.76	105.32
691.89	117.03
692.03	138.09
692.16	142.77
692.30	163.84
692.43	154.48
692.57	126.39
692.70	117.03
692.84	163.84
692.97	180.22
693.11	117.03
693.24	170.86
693.38	117.03
693.51	168.52
693.65	124.05
693.78	145.11
693.92	58.51
694.05	191.92
694.19	166.18
694.32	114.69
694.45	163.84
694.59	98.30
694.72	119.37
694.86	138.09
694.99	194.26
695.13	163.84
695.26	177.88
695.39	154.48
695.53	163.84
695.66	198.95
695.80	170.86
695.93	110.01
696.07	161.50
696.20	175.54
696.33	128.73
696.47	105.32
696.60	142.77
696.73	170.86
696.87	159.16
697.00	224.69
697.14	156.82
697.27	121.71
697.40	166.18
697.54	124.05
697.67	88.94
697.80	194.26
697.94	124.05
698.07	121.71
698.21	140.43
698.34	128.73
698.47	126.39
698.61	49.15
698.74	184.90
698.87	81.92
699.01	84.26
699.14	77.24
699.27	124.05
699.40	212.99
699.54	149.79
699.67	140.43
699.80	156.82
699.94	86.60
700.07	133.41
700.20	149.79
700.34	138.09
700.47	107.66
700.60	74.90
700.73	173.20
700.87	145.11
701.00	147.45
701.13	131.07
701.26	131.07
701.40	149.79
701.53	166.18
701.66	42.13
701.79	107.66
701.93	100.64
702.06	184.90
702.19	107.66
702.32	163.84
702.46	105.32
702.59	175.54
702.72	110.01
702.85	131.07
702.99	145.11
703.12	133.41
703.25	112.35
703.38	117.03
703.51	117.03
703.65	117.03
703.78	154.48
703.91	152.13
704.04	100.64
704.17	149.79
704.31	112.35
704.44	140.43
704.57	107.66
704.70	124.05
704.83	93.62
704.96	93.62
705.10	140.43
705.23	133.41
>>>>>End Processed Spectral Data<<<<<
