SpectraSuite Data File
++++++++++++++++++++++++++++++++++++
Date: Fri Oct 04 11:42:25 GMT-05:00 2013
User: price-jones
Dark Spectrum Present: No
Reference Spectrum Present: No
Number of Sampled Component Spectra: 1
Spectrometers: USB2+H05261
Integration Time (usec): 100000 (USB2+H05261)
Spectra Averaged: 1 (USB2+H05261)
Boxcar Smoothing: 0 (USB2+H05261)
Correct for Electrical Dark: No (USB2+H05261)
Strobe/Lamp Enabled: No (USB2+H05261)
Correct for Detector Non-linearity: No (USB2+H05261)
Correct for Stray Light: No (USB2+H05261)
Number of Pixels in Processed Spectrum: 2048
>>>>>Begin Processed Spectral Data<<<<<
365.73	84.26
365.92	84.26
366.12	84.26
366.32	0.00
366.52	0.00
366.72	0.00
366.91	0.00
367.11	0.00
367.31	0.00
367.51	0.00
367.70	0.00
367.90	0.00
368.10	0.00
368.30	0.00
368.49	0.00
368.69	14.04
368.89	0.00
369.09	0.00
369.28	0.00
369.48	0.00
369.68	16.38
369.87	0.00
370.07	7.02
370.27	11.70
370.47	49.15
370.66	7.02
370.86	25.75
371.06	60.85
371.25	102.98
371.45	37.45
371.65	93.62
371.84	72.56
372.04	93.62
372.24	56.17
372.44	105.32
372.63	126.39
372.83	175.54
373.03	135.75
373.22	119.37
373.42	79.58
373.62	77.24
373.81	110.01
374.01	135.75
374.21	140.43
374.40	86.60
374.60	100.64
374.79	173.20
374.99	49.15
375.19	124.05
375.38	126.39
375.58	98.30
375.78	119.37
375.97	53.83
376.17	182.56
376.37	95.96
376.56	77.24
376.76	63.19
376.95	91.28
377.15	170.86
377.35	227.03
377.54	91.28
377.74	126.39
377.93	119.37
378.13	133.41
378.33	81.92
378.52	124.05
378.72	140.43
378.91	187.24
379.11	63.19
379.31	7.02
379.50	121.71
379.70	105.32
379.89	126.39
380.09	119.37
380.28	121.71
380.48	46.81
380.68	37.45
380.87	152.13
381.07	67.88
381.26	107.66
381.46	159.16
381.65	145.11
381.85	72.56
382.04	110.01
382.24	35.11
382.43	86.60
382.63	81.92
382.83	119.37
383.02	147.45
383.22	119.37
383.41	77.24
383.61	0.00
383.80	91.28
384.00	121.71
384.19	112.35
384.39	149.79
384.58	72.56
384.78	114.69
384.97	95.96
385.17	77.24
385.36	86.60
385.56	105.32
385.75	81.92
385.95	84.26
386.14	131.07
386.34	126.39
386.53	98.30
386.72	88.94
386.92	105.32
387.11	236.39
387.31	77.24
387.50	124.05
387.70	53.83
387.89	4.68
388.09	98.30
388.28	159.16
388.48	107.66
388.67	191.92
388.86	110.01
389.06	84.26
389.25	93.62
389.45	32.77
389.64	131.07
389.84	128.73
390.03	147.45
390.22	135.75
390.42	67.88
390.61	105.32
390.81	124.05
391.00	114.69
391.19	124.05
391.39	124.05
391.58	121.71
391.78	70.22
391.97	102.98
392.16	46.81
392.36	133.41
392.55	117.03
392.75	70.22
392.94	91.28
393.13	124.05
393.33	154.48
393.52	102.98
393.71	131.07
393.91	107.66
394.10	95.96
394.29	81.92
394.49	135.75
394.68	170.86
394.88	77.24
395.07	67.88
395.26	70.22
395.46	58.51
395.65	110.01
395.84	161.50
396.04	241.08
396.23	147.45
396.42	140.43
396.62	95.96
396.81	128.73
397.00	156.82
397.19	128.73
397.39	98.30
397.58	131.07
397.77	74.90
397.97	88.94
398.16	154.48
398.35	152.13
398.55	154.48
398.74	189.58
398.93	180.22
399.12	93.62
399.32	163.84
399.51	86.60
399.70	140.43
399.90	84.26
400.09	79.58
400.28	124.05
400.47	100.64
400.67	163.84
400.86	117.03
401.05	105.32
401.24	168.52
401.44	140.43
401.63	166.18
401.82	187.24
402.01	173.20
402.21	208.31
402.40	182.56
402.59	114.69
402.78	70.22
402.97	102.98
403.17	98.30
403.36	112.35
403.55	224.69
403.74	313.63
403.93	814.51
404.13	1673.48
404.32	2043.29
404.51	1802.21
404.70	1060.26
404.89	440.02
405.09	271.50
405.28	159.16
405.47	152.13
405.66	241.08
405.85	135.75
406.05	107.66
406.24	147.45
406.43	159.16
406.62	128.73
406.81	210.65
407.00	205.97
407.20	365.12
407.39	388.53
407.58	418.96
407.77	390.87
407.96	243.42
408.15	168.52
408.34	117.03
408.54	227.03
408.73	201.29
408.92	156.82
409.11	201.29
409.30	142.77
409.49	93.62
409.68	107.66
409.87	126.39
410.07	145.11
410.26	191.92
410.45	217.67
410.64	133.41
410.83	117.03
411.02	147.45
411.21	161.50
411.40	191.92
411.59	175.54
411.78	170.86
411.98	154.48
412.17	145.11
412.36	93.62
412.55	182.56
412.74	65.54
412.93	201.29
413.12	175.54
413.31	184.90
413.50	145.11
413.69	77.24
413.88	166.18
414.07	170.86
414.26	187.24
414.45	81.92
414.64	163.84
414.83	147.45
415.02	159.16
415.22	86.60
415.41	210.65
415.60	198.95
415.79	117.03
415.98	142.77
416.17	217.67
416.36	112.35
416.55	145.11
416.74	180.22
416.93	168.52
417.12	154.48
417.31	147.45
417.50	112.35
417.69	198.95
417.88	180.22
418.07	131.07
418.26	173.20
418.45	208.31
418.64	180.22
418.83	140.43
419.02	147.45
419.21	175.54
419.39	191.92
419.58	121.71
419.77	205.97
419.96	271.50
420.15	318.31
420.34	147.45
420.53	168.52
420.72	159.16
420.91	149.79
421.10	227.03
421.29	163.84
421.48	168.52
421.67	180.22
421.86	177.88
422.05	159.16
422.24	161.50
422.43	147.45
422.61	74.90
422.80	124.05
422.99	227.03
423.18	173.20
423.37	273.84
423.56	248.10
423.75	189.58
423.94	229.37
424.13	128.73
424.32	149.79
424.50	222.35
424.69	170.86
424.88	154.48
425.07	220.01
425.26	236.39
425.45	175.54
425.64	166.18
425.83	180.22
426.01	231.71
426.20	121.71
426.39	112.35
426.58	114.69
426.77	184.90
426.96	175.54
427.15	189.58
427.33	220.01
427.52	156.82
427.71	149.79
427.90	203.63
428.09	177.88
428.28	203.63
428.46	170.86
428.65	198.95
428.84	191.92
429.03	220.01
429.22	175.54
429.40	229.37
429.59	159.16
429.78	229.37
429.97	180.22
430.16	205.97
430.34	194.26
430.53	217.67
430.72	182.56
430.91	184.90
431.10	152.13
431.28	243.42
431.47	215.33
431.66	255.12
431.85	229.37
432.03	149.79
432.22	238.73
432.41	187.24
432.60	264.48
432.79	177.88
432.97	224.69
433.16	222.35
433.35	283.20
433.54	227.03
433.72	290.23
433.91	257.46
434.10	304.27
434.28	344.06
434.47	339.38
434.66	416.62
434.85	454.06
435.03	1303.68
435.22	4205.94
435.41	8170.81
435.59	8086.55
435.78	5296.63
435.97	2663.53
436.16	1102.39
436.34	472.79
436.53	283.20
436.72	315.97
436.90	313.63
437.09	252.78
437.28	189.58
437.46	168.52
437.65	259.80
437.84	187.24
438.02	203.63
438.21	252.78
438.40	203.63
438.58	175.54
438.77	203.63
438.96	248.10
439.14	224.69
439.33	248.10
439.52	278.52
439.70	196.60
439.89	210.65
440.08	250.44
440.26	271.50
440.45	238.73
440.63	215.33
440.82	182.56
441.01	203.63
441.19	252.78
441.38	292.57
441.57	243.42
441.75	255.12
441.94	264.48
442.12	184.90
442.31	252.78
442.50	217.67
442.68	203.63
442.87	238.73
443.05	238.73
443.24	252.78
443.43	280.86
443.61	236.39
443.80	269.16
443.98	210.65
444.17	198.95
444.35	308.95
444.54	205.97
444.73	203.63
444.91	264.48
445.10	177.88
445.28	187.24
445.47	285.55
445.65	187.24
445.84	191.92
446.02	264.48
446.21	182.56
446.39	201.29
446.58	262.14
446.77	264.48
446.95	166.18
447.14	250.44
447.32	283.20
447.51	259.80
447.69	224.69
447.88	285.55
448.06	245.76
448.25	234.05
448.43	250.44
448.62	215.33
448.80	276.18
448.99	271.50
449.17	252.78
449.36	154.48
449.54	210.65
449.73	208.31
449.91	257.46
450.10	271.50
450.28	348.74
450.46	367.46
450.65	252.78
450.83	276.18
451.02	236.39
451.20	229.37
451.39	285.55
451.57	215.33
451.76	212.99
451.94	222.35
452.13	255.12
452.31	318.31
452.49	222.35
452.68	205.97
452.86	215.33
453.05	257.46
453.23	257.46
453.42	224.69
453.60	189.58
453.78	208.31
453.97	163.84
454.15	196.60
454.34	248.10
454.52	241.08
454.70	311.29
454.89	322.99
455.07	182.56
455.26	248.10
455.44	182.56
455.62	238.73
455.81	241.08
455.99	287.89
456.17	241.08
456.36	222.35
456.54	173.20
456.73	227.03
456.91	245.76
457.09	308.95
457.28	245.76
457.46	248.10
457.64	269.16
457.83	215.33
458.01	255.12
458.19	201.29
458.38	208.31
458.56	266.82
458.74	264.48
458.93	264.48
459.11	292.57
459.29	250.44
459.48	189.58
459.66	304.27
459.84	177.88
460.03	301.93
460.21	266.82
460.39	250.44
460.57	266.82
460.76	229.37
460.94	301.93
461.12	238.73
461.31	278.52
461.49	287.89
461.67	259.80
461.85	290.23
462.04	220.01
462.22	299.59
462.40	217.67
462.59	264.48
462.77	243.42
462.95	236.39
463.13	220.01
463.32	227.03
463.50	227.03
463.68	227.03
463.86	243.42
464.05	217.67
464.23	222.35
464.41	252.78
464.59	287.89
464.78	278.52
464.96	189.58
465.14	259.80
465.32	262.14
465.50	208.31
465.69	273.84
465.87	220.01
466.05	252.78
466.23	229.37
466.41	222.35
466.60	264.48
466.78	238.73
466.96	227.03
467.14	262.14
467.32	351.08
467.51	210.65
467.69	208.31
467.87	273.84
468.05	212.99
468.23	217.67
468.41	308.95
468.60	177.88
468.78	175.54
468.96	266.82
469.14	245.76
469.32	250.44
469.50	245.76
469.69	243.42
469.87	245.76
470.05	248.10
470.23	212.99
470.41	140.43
470.59	201.29
470.77	252.78
470.95	140.43
471.14	159.16
471.32	325.33
471.50	236.39
471.68	241.08
471.86	196.60
472.04	168.52
472.22	234.05
472.40	189.58
472.58	236.39
472.77	182.56
472.95	210.65
473.13	269.16
473.31	229.37
473.49	210.65
473.67	210.65
473.85	243.42
474.03	262.14
474.21	283.20
474.39	271.50
474.57	224.69
474.75	252.78
474.93	248.10
475.12	238.73
475.30	229.37
475.48	269.16
475.66	299.59
475.84	173.20
476.02	266.82
476.20	212.99
476.38	222.35
476.56	355.76
476.74	280.86
476.92	210.65
477.10	255.12
477.28	271.50
477.46	173.20
477.64	212.99
477.82	189.58
478.00	273.84
478.18	252.78
478.36	278.52
478.54	182.56
478.72	217.67
478.90	271.50
479.08	248.10
479.26	215.33
479.44	236.39
479.62	252.78
479.80	159.16
479.98	210.65
480.16	318.31
480.34	271.50
480.52	266.82
480.70	376.83
480.88	220.01
481.06	337.04
481.24	320.65
481.41	367.46
481.59	428.32
481.77	362.78
481.95	367.46
482.13	414.27
482.31	447.04
482.49	498.53
482.67	430.66
482.85	528.96
483.03	489.17
483.21	624.92
483.39	543.00
483.57	528.96
483.74	648.33
483.92	699.82
484.10	664.71
484.28	798.12
484.46	793.44
484.64	830.89
484.82	894.08
485.00	814.51
485.18	978.34
485.35	994.73
485.53	1039.20
485.71	1001.75
485.89	1013.45
486.07	1078.99
486.25	1135.16
486.43	1132.82
486.61	1067.28
486.78	1174.95
486.96	1144.52
487.14	1146.86
487.32	1118.78
487.50	1137.50
487.68	1160.91
487.85	1086.01
488.03	1088.35
488.21	1153.88
488.39	1018.13
488.57	1121.12
488.75	1043.88
488.92	1308.36
489.10	1067.28
489.28	1097.71
489.46	1048.56
489.64	1069.62
489.81	1027.50
489.99	1057.92
490.17	980.68
490.35	1011.11
490.53	987.71
490.70	1008.77
490.88	915.15
491.06	992.39
491.24	1128.14
491.41	997.07
491.59	957.28
491.77	936.21
491.95	929.19
492.13	884.72
492.30	882.38
492.48	856.64
492.66	833.23
492.84	884.72
493.01	919.83
493.19	896.43
493.37	870.68
493.54	880.04
493.72	812.17
493.90	807.48
494.08	706.84
494.25	711.52
494.43	704.50
494.61	734.93
494.79	697.48
494.96	737.27
495.14	674.07
495.32	713.86
495.49	594.50
495.67	737.27
495.85	711.52
496.02	667.05
496.20	732.59
496.38	655.35
496.55	622.58
496.73	685.78
496.91	624.92
497.09	662.37
497.26	702.16
497.44	608.54
497.62	655.35
497.79	624.92
497.97	578.11
498.14	573.43
498.32	559.39
498.50	603.86
498.67	582.79
498.85	580.45
499.03	517.26
499.20	547.69
499.38	524.28
499.56	507.90
499.73	557.05
499.91	514.92
500.08	447.04
500.26	496.19
500.44	397.89
500.61	468.11
500.79	444.70
500.97	400.23
501.14	428.32
501.32	372.15
501.49	365.12
501.67	358.10
501.84	339.38
502.02	397.89
502.20	367.46
502.37	294.91
502.55	381.51
502.72	334.70
502.90	337.04
503.07	318.31
503.25	278.52
503.43	327.68
503.60	269.16
503.78	318.31
503.95	238.73
504.13	262.14
504.30	297.25
504.48	276.18
504.65	365.12
504.83	353.42
505.01	287.89
505.18	306.61
505.36	285.55
505.53	311.29
505.71	257.46
505.88	334.70
506.06	210.65
506.23	311.29
506.41	339.38
506.58	266.82
506.76	299.59
506.93	250.44
507.11	287.89
507.28	243.42
507.46	292.57
507.63	248.10
507.81	255.12
507.98	287.89
508.16	252.78
508.33	308.95
508.50	283.20
508.68	280.86
508.85	238.73
509.03	327.68
509.20	175.54
509.38	196.60
509.55	278.52
509.73	313.63
509.90	360.44
510.08	271.50
510.25	301.93
510.42	285.55
510.60	273.84
510.77	299.59
510.95	238.73
511.12	285.55
511.30	255.12
511.47	313.63
511.64	416.62
511.82	252.78
511.99	250.44
512.17	278.52
512.34	229.37
512.51	245.76
512.69	217.67
512.86	252.78
513.04	264.48
513.21	262.14
513.38	297.25
513.56	252.78
513.73	290.23
513.90	236.39
514.08	231.71
514.25	252.78
514.43	271.50
514.60	311.29
514.77	231.71
514.95	245.76
515.12	210.65
515.29	299.59
515.47	290.23
515.64	304.27
515.81	266.82
515.99	297.25
516.16	322.99
516.33	210.65
516.51	252.78
516.68	262.14
516.85	208.31
517.03	285.55
517.20	318.31
517.37	238.73
517.54	245.76
517.72	327.68
517.89	184.90
518.06	243.42
518.24	276.18
518.41	315.97
518.58	299.59
518.75	259.80
518.93	252.78
519.10	184.90
519.27	262.14
519.45	353.42
519.62	285.55
519.79	241.08
519.96	215.33
520.14	205.97
520.31	252.78
520.48	283.20
520.65	227.03
520.83	250.44
521.00	276.18
521.17	248.10
521.34	255.12
521.52	212.99
521.69	271.50
521.86	245.76
522.03	259.80
522.20	346.40
522.38	234.05
522.55	257.46
522.72	241.08
522.89	243.42
523.07	252.78
523.24	241.08
523.41	276.18
523.58	245.76
523.75	198.95
523.92	358.10
524.10	262.14
524.27	231.71
524.44	306.61
524.61	348.74
524.78	231.71
524.96	383.85
525.13	318.31
525.30	250.44
525.47	374.49
525.64	236.39
525.81	320.65
525.98	278.52
526.16	231.71
526.33	250.44
526.50	278.52
526.67	252.78
526.84	266.82
527.01	337.04
527.18	341.72
527.36	311.29
527.53	273.84
527.70	266.82
527.87	285.55
528.04	313.63
528.21	290.23
528.38	297.25
528.55	287.89
528.72	318.31
528.89	287.89
529.07	264.48
529.24	271.50
529.41	337.04
529.58	227.03
529.75	273.84
529.92	351.08
530.09	266.82
530.26	315.97
530.43	365.12
530.60	320.65
530.77	285.55
530.94	234.05
531.11	330.02
531.28	337.04
531.46	322.99
531.63	292.57
531.80	358.10
531.97	395.55
532.14	311.29
532.31	423.64
532.48	430.66
532.65	379.17
532.82	451.72
532.99	561.73
533.16	641.31
533.33	671.73
533.50	610.88
533.67	596.84
533.84	514.92
534.01	482.15
534.18	395.55
534.35	425.98
534.52	402.57
534.69	465.77
534.86	386.19
535.03	402.57
535.20	601.52
535.37	545.34
535.54	582.79
535.71	566.41
535.88	667.05
536.05	571.09
536.22	610.88
536.38	678.76
536.55	723.23
536.72	746.63
536.89	814.51
537.06	805.14
537.23	980.68
537.40	1067.28
537.57	1130.48
537.74	1123.46
537.91	1226.44
538.08	1324.74
538.25	1327.08
538.42	1394.96
538.59	1521.35
538.75	1458.15
538.92	1511.99
539.09	1708.59
539.26	1696.89
539.43	1961.37
539.60	2188.40
539.77	2349.90
539.94	2614.38
540.11	2944.39
540.28	3045.04
540.44	3248.66
540.61	3552.93
540.78	3974.23
540.95	4905.76
541.12	5654.73
541.29	6333.49
541.46	6750.10
541.62	7000.54
541.79	7414.82
541.96	7211.19
542.13	7433.54
542.30	7159.70
542.47	6981.82
542.63	6733.72
542.80	6548.82
542.97	6738.40
543.14	6722.02
543.31	6715.00
543.48	6628.40
543.64	6867.13
543.81	6745.42
543.98	6616.69
544.15	6555.84
544.32	6377.96
544.48	6176.67
544.65	6174.33
544.82	5935.60
544.99	5668.78
545.16	5724.95
545.32	5987.09
545.49	10090.05
545.66	17469.76
545.83	19843.06
546.00	16135.65
546.16	11080.10
546.33	7901.65
546.50	5844.32
546.67	4554.68
546.83	4067.85
547.00	3700.39
547.17	3543.57
547.34	3489.74
547.50	3274.41
547.67	3187.81
547.84	3007.59
548.00	2993.55
548.17	3000.57
548.34	2988.86
548.51	2920.99
548.67	2911.63
548.84	2890.56
549.01	2850.77
549.18	2796.94
549.34	2656.51
549.51	2530.12
549.68	2396.71
549.84	2289.04
550.01	2176.70
550.18	2279.68
550.34	2069.03
550.51	1928.60
550.68	1989.46
550.84	1727.32
551.01	1757.74
551.18	1767.10
551.34	1708.59
551.51	1647.74
551.68	1694.55
551.84	1586.88
552.01	1507.30
552.18	1519.01
552.34	1493.26
552.51	1409.00
552.68	1355.17
552.84	1362.19
553.01	1221.76
553.18	1191.33
553.34	1102.39
553.51	1064.94
553.67	1093.03
553.84	990.05
554.01	898.77
554.17	898.77
554.34	791.10
554.51	727.91
554.67	779.40
554.84	613.22
555.00	634.29
555.17	603.86
555.33	622.58
555.50	601.52
555.67	543.00
555.83	514.92
556.00	587.47
556.16	631.94
556.33	507.90
556.50	538.32
556.66	475.13
556.83	493.85
556.99	360.44
557.16	435.34
557.32	430.66
557.49	477.47
557.65	435.34
557.82	393.21
557.98	486.83
558.15	400.23
558.32	409.59
558.48	355.76
558.65	362.78
558.81	374.49
558.98	351.08
559.14	341.72
559.31	339.38
559.47	402.57
559.64	416.62
559.80	379.17
559.97	318.31
560.13	367.46
560.30	416.62
560.46	372.15
560.63	454.06
560.79	418.96
560.96	325.33
561.12	421.30
561.29	425.98
561.45	372.15
561.61	372.15
561.78	465.77
561.94	287.89
562.11	353.42
562.27	449.38
562.44	320.65
562.60	383.85
562.77	351.08
562.93	437.68
563.10	334.70
563.26	341.72
563.42	334.70
563.59	325.33
563.75	344.06
563.92	341.72
564.08	362.78
564.24	334.70
564.41	418.96
564.57	322.99
564.74	330.02
564.90	369.80
565.07	344.06
565.23	386.19
565.39	252.78
565.56	313.63
565.72	243.42
565.88	337.04
566.05	313.63
566.21	299.59
566.38	308.95
566.54	285.55
566.70	327.68
566.87	241.08
567.03	238.73
567.19	278.52
567.36	379.17
567.52	278.52
567.68	301.93
567.85	266.82
568.01	320.65
568.17	250.44
568.34	369.80
568.50	388.53
568.66	362.78
568.83	355.76
568.99	341.72
569.15	369.80
569.32	292.57
569.48	283.20
569.64	203.63
569.81	369.80
569.97	220.01
570.13	210.65
570.30	407.25
570.46	297.25
570.62	313.63
570.78	294.91
570.95	297.25
571.11	322.99
571.27	292.57
571.43	259.80
571.60	360.44
571.76	273.84
571.92	358.10
572.09	250.44
572.25	271.50
572.41	273.84
572.57	294.91
572.74	353.42
572.90	264.48
573.06	355.76
573.22	395.55
573.38	353.42
573.55	339.38
573.71	306.61
573.87	409.59
574.03	348.74
574.20	294.91
574.36	290.23
574.52	339.38
574.68	337.04
574.84	358.10
575.01	348.74
575.17	397.89
575.33	273.84
575.49	351.08
575.65	409.59
575.82	423.64
575.98	482.15
576.14	444.70
576.30	770.04
576.46	2239.89
576.62	3239.30
576.79	3389.10
576.95	2429.48
577.11	1591.56
577.27	1259.21
577.43	854.30
577.59	653.01
577.75	535.98
577.92	559.39
578.08	491.51
578.24	587.47
578.40	901.11
578.56	2193.08
578.72	3131.64
578.88	3117.59
579.04	2464.58
579.21	1839.66
579.37	1280.27
579.53	1186.65
579.69	1252.19
579.85	1479.22
580.01	1629.01
580.17	1453.47
580.33	1345.81
580.49	1226.44
580.65	1116.44
580.82	959.62
580.98	983.02
581.14	1043.88
581.30	1135.16
581.46	1132.82
581.62	1188.99
581.78	1198.35
581.94	1214.74
582.10	1301.34
582.26	1329.42
582.42	1306.02
582.58	1444.11
582.74	1378.58
582.90	1558.80
583.06	1614.97
583.22	1673.48
583.38	1631.35
583.54	1577.52
583.70	1633.69
583.86	1586.88
584.02	1600.93
584.18	1640.72
584.34	1533.05
584.50	1526.03
584.66	1441.77
584.82	1322.40
584.98	1294.32
585.14	1357.51
585.30	1282.61
585.46	1291.98
585.62	1364.53
585.78	1294.32
585.94	1231.12
586.10	1313.04
586.26	1355.17
586.42	1519.01
586.58	1792.85
586.74	2012.86
586.90	2410.75
587.06	2682.25
587.22	2635.44
587.38	2544.16
587.54	2127.55
587.70	1989.46
587.86	1802.21
588.02	1481.56
588.18	1446.45
588.34	1287.29
588.49	1207.72
588.65	1114.10
588.81	943.24
588.97	1020.47
589.13	957.28
589.29	1013.45
589.45	1013.45
589.61	940.90
589.77	1022.81
589.93	938.55
590.08	964.30
590.24	1013.45
590.40	943.24
590.56	950.26
590.72	1011.11
590.88	990.05
591.04	983.02
591.20	1078.99
591.35	1036.86
591.51	1074.31
591.67	1074.31
591.83	1191.33
591.99	1256.87
592.15	1263.89
592.31	1397.30
592.46	1420.71
592.62	1586.88
592.78	1685.19
592.94	1774.13
593.10	1767.10
593.26	1715.61
593.41	1547.09
593.57	1352.83
593.73	1172.61
593.89	1139.84
594.05	983.02
594.20	849.61
594.36	816.85
594.52	851.96
594.68	702.16
594.84	788.76
594.99	699.82
595.15	692.80
595.31	720.88
595.47	737.27
595.62	709.18
595.78	641.31
595.94	734.93
596.10	805.14
596.25	634.29
596.41	603.86
596.57	582.79
596.73	683.44
596.88	725.57
597.04	641.31
597.20	662.37
597.36	702.16
597.51	681.10
597.67	739.61
597.83	786.42
597.99	805.14
598.14	795.78
598.30	919.83
598.46	882.38
598.61	901.11
598.77	1048.56
598.93	1111.75
599.09	1032.18
599.24	1071.97
599.40	1144.52
599.56	1076.65
599.71	961.96
599.87	1022.81
600.03	926.85
600.18	854.30
600.34	781.74
600.50	739.61
600.65	702.16
600.81	699.82
600.97	634.29
601.12	631.94
601.28	653.01
601.44	629.60
601.59	543.00
601.75	528.96
601.91	507.90
602.06	596.84
602.22	667.05
602.37	596.84
602.53	493.85
602.69	528.96
602.84	468.11
603.00	517.26
603.16	489.17
603.31	496.19
603.47	519.60
603.62	512.58
603.78	528.96
603.94	498.53
604.09	578.11
604.25	603.86
604.40	599.18
604.56	592.16
604.71	627.26
604.87	559.39
605.03	573.43
605.18	561.73
605.34	594.50
605.49	543.00
605.65	629.60
605.80	662.37
605.96	620.24
606.12	732.59
606.27	662.37
606.43	643.65
606.58	807.48
606.74	709.18
606.89	765.36
607.05	767.70
607.20	868.34
607.36	849.61
607.51	919.83
607.67	903.45
607.82	1057.92
607.98	1181.97
608.13	1210.06
608.29	1188.99
608.44	1338.79
608.60	1373.89
608.75	1579.86
608.91	1643.06
609.06	1853.70
609.22	2050.31
609.37	2200.10
609.53	2516.08
609.68	2771.19
609.84	3253.34
609.99	3707.41
610.15	4269.14
610.30	5521.32
610.46	7016.93
610.61	9231.07
610.76	11894.60
610.92	14288.97
611.07	15983.52
611.23	15976.50
611.38	14794.53
611.54	12556.97
611.69	11063.71
611.84	9083.62
612.00	7445.24
612.15	6408.39
612.31	5423.02
612.46	5102.37
612.62	4716.18
612.77	4545.32
612.92	4351.06
613.08	3943.80
613.23	3775.28
613.39	3611.45
613.54	3548.25
613.69	3435.91
613.85	3382.07
614.00	3517.83
614.15	3316.54
614.31	3356.33
614.46	3419.52
614.62	3171.43
614.77	3002.91
614.92	2787.58
615.08	2689.28
615.23	2441.18
615.38	2246.91
615.54	2003.50
615.69	1898.17
615.84	1790.51
616.00	1638.38
616.15	1533.05
616.30	1526.03
616.46	1451.13
616.61	1430.07
616.76	1266.23
616.92	1313.04
617.07	1196.01
617.22	1200.69
617.37	1076.65
617.53	1165.59
617.68	1142.18
617.83	1025.15
617.99	1043.88
618.14	1022.81
618.29	999.41
618.45	1086.01
618.60	1050.90
618.75	976.00
618.90	1015.79
619.06	1041.54
619.21	1142.18
619.36	1142.18
619.51	1022.81
619.67	1088.35
619.82	1053.24
619.97	1137.50
620.12	1109.41
620.28	1151.54
620.43	1109.41
620.58	1135.16
620.73	1217.08
620.89	1217.08
621.04	1146.86
621.19	1139.84
621.34	1083.67
621.49	1008.77
621.65	1001.75
621.80	1039.20
621.95	1053.24
622.10	1027.50
622.25	933.87
622.41	938.55
622.56	1053.24
622.71	973.66
622.86	978.34
623.01	978.34
623.16	1018.13
623.32	1036.86
623.47	1071.97
623.62	1046.22
623.77	1104.73
623.92	931.53
624.07	1006.43
624.23	1001.75
624.38	1018.13
624.53	947.92
624.68	964.30
624.83	1088.35
624.98	901.11
625.13	894.08
625.29	917.49
625.44	929.19
625.59	976.00
625.74	961.96
625.89	976.00
626.04	917.49
626.19	917.49
626.34	903.45
626.49	905.79
626.65	877.70
626.80	861.32
626.95	823.87
627.10	929.19
627.25	851.96
627.40	884.72
627.55	889.40
627.70	870.68
627.85	851.96
628.00	809.83
628.15	889.40
628.30	777.06
628.45	786.42
628.60	858.98
628.76	910.47
628.91	912.81
629.06	917.49
629.21	973.66
629.36	891.74
629.51	950.26
629.66	940.90
629.81	1020.47
629.96	1060.26
630.11	1249.85
630.26	1315.38
630.41	1465.18
630.56	1554.12
630.71	1764.76
630.86	1760.08
631.01	1844.34
631.16	1582.20
631.31	1514.33
631.46	1320.06
631.61	1076.65
631.76	875.36
631.91	788.76
632.06	734.93
632.21	674.07
632.36	566.41
632.51	491.51
632.66	526.62
632.81	442.36
632.96	416.62
633.10	379.17
633.25	337.04
633.40	409.59
633.55	514.92
633.70	411.93
633.85	393.21
634.00	334.70
634.15	355.76
634.30	327.68
634.45	313.63
634.60	346.40
634.75	374.49
634.90	402.57
635.05	351.08
635.19	285.55
635.34	353.42
635.49	423.64
635.64	397.89
635.79	369.80
635.94	306.61
636.09	346.40
636.24	308.95
636.39	332.36
636.53	320.65
636.68	325.33
636.83	320.65
636.98	313.63
637.13	243.42
637.28	332.36
637.43	308.95
637.57	222.35
637.72	266.82
637.87	283.20
638.02	318.31
638.17	231.71
638.32	252.78
638.46	250.44
638.61	337.04
638.76	170.86
638.91	276.18
639.06	304.27
639.20	351.08
639.35	308.95
639.50	308.95
639.65	217.67
639.80	327.68
639.94	271.50
640.09	205.97
640.24	304.27
640.39	325.33
640.54	229.37
640.68	337.04
640.83	290.23
640.98	283.20
641.13	217.67
641.27	236.39
641.42	227.03
641.57	395.55
641.72	283.20
641.86	273.84
642.01	231.71
642.16	243.42
642.31	278.52
642.45	264.48
642.60	259.80
642.75	269.16
642.90	304.27
643.04	259.80
643.19	255.12
643.34	322.99
643.48	245.76
643.63	315.97
643.78	269.16
643.93	313.63
644.07	318.31
644.22	306.61
644.37	212.99
644.51	292.57
644.66	337.04
644.81	290.23
644.95	353.42
645.10	304.27
645.25	266.82
645.39	262.14
645.54	264.48
645.69	372.15
645.83	278.52
645.98	346.40
646.13	297.25
646.27	294.91
646.42	241.08
646.57	187.24
646.71	201.29
646.86	273.84
647.00	280.86
647.15	327.68
647.30	243.42
647.44	243.42
647.59	320.65
647.74	257.46
647.88	294.91
648.03	198.95
648.17	311.29
648.32	210.65
648.47	280.86
648.61	278.52
648.76	231.71
648.90	255.12
649.05	248.10
649.20	241.08
649.34	297.25
649.49	234.05
649.63	353.42
649.78	383.85
649.92	454.06
650.07	535.98
650.21	526.62
650.36	610.88
650.51	550.03
650.65	554.71
650.80	540.66
650.94	433.00
651.09	369.80
651.23	351.08
651.38	355.76
651.52	381.51
651.67	365.12
651.81	395.55
651.96	266.82
652.10	404.91
652.25	224.69
652.39	215.33
652.54	367.46
652.68	353.42
652.83	411.93
652.97	334.70
653.12	313.63
653.26	337.04
653.41	379.17
653.55	353.42
653.70	292.57
653.84	264.48
653.99	290.23
654.13	322.99
654.27	257.46
654.42	297.25
654.56	262.14
654.71	257.46
654.85	339.38
655.00	212.99
655.14	278.52
655.29	194.26
655.43	234.05
655.57	187.24
655.72	201.29
655.86	266.82
656.01	222.35
656.15	236.39
656.30	259.80
656.44	203.63
656.58	311.29
656.73	252.78
656.87	264.48
657.01	212.99
657.16	259.80
657.30	294.91
657.45	386.19
657.59	264.48
657.73	322.99
657.88	325.33
658.02	358.10
658.16	273.84
658.31	276.18
658.45	264.48
658.60	163.84
658.74	222.35
658.88	138.09
659.03	147.45
659.17	238.73
659.31	173.20
659.46	238.73
659.60	227.03
659.74	156.82
659.89	149.79
660.03	187.24
660.17	301.93
660.32	280.86
660.46	177.88
660.60	276.18
660.74	259.80
660.89	170.86
661.03	238.73
661.17	259.80
661.32	145.11
661.46	250.44
661.60	294.91
661.74	306.61
661.89	346.40
662.03	376.83
662.17	407.25
662.31	411.93
662.46	454.06
662.60	372.15
662.74	250.44
662.88	360.44
663.03	308.95
663.17	273.84
663.31	292.57
663.45	306.61
663.60	278.52
663.74	217.67
663.88	227.03
664.02	280.86
664.17	222.35
664.31	248.10
664.45	271.50
664.59	196.60
664.73	229.37
664.88	205.97
665.02	163.84
665.16	173.20
665.30	241.08
665.44	250.44
665.59	238.73
665.73	229.37
665.87	262.14
666.01	166.18
666.15	234.05
666.29	205.97
666.44	201.29
666.58	285.55
666.72	262.14
666.86	227.03
667.00	224.69
667.14	243.42
667.28	194.26
667.43	278.52
667.57	250.44
667.71	224.69
667.85	227.03
667.99	201.29
668.13	189.58
668.27	241.08
668.41	194.26
668.56	194.26
668.70	285.55
668.84	238.73
668.98	217.67
669.12	231.71
669.26	217.67
669.40	229.37
669.54	187.24
669.68	203.63
669.82	231.71
669.96	245.76
670.10	257.46
670.25	259.80
670.39	215.33
670.53	156.82
670.67	224.69
670.81	133.41
670.95	203.63
671.09	220.01
671.23	168.52
671.37	280.86
671.51	198.95
671.65	252.78
671.79	201.29
671.93	306.61
672.07	191.92
672.21	187.24
672.35	229.37
672.49	194.26
672.63	177.88
672.77	198.95
672.91	177.88
673.05	217.67
673.19	259.80
673.33	220.01
673.47	210.65
673.61	231.71
673.75	243.42
673.89	222.35
674.03	117.03
674.17	175.54
674.31	241.08
674.45	264.48
674.59	138.09
674.73	238.73
674.87	177.88
675.01	79.58
675.15	177.88
675.29	294.91
675.43	170.86
675.56	212.99
675.70	257.46
675.84	124.05
675.98	215.33
676.12	203.63
676.26	175.54
676.40	227.03
676.54	217.67
676.68	208.31
676.82	217.67
676.96	187.24
677.10	266.82
677.23	166.18
677.37	173.20
677.51	156.82
677.65	170.86
677.79	255.12
677.93	212.99
678.07	231.71
678.21	234.05
678.34	128.73
678.48	180.22
678.62	173.20
678.76	191.92
678.90	156.82
679.04	234.05
679.18	124.05
679.31	203.63
679.45	154.48
679.59	173.20
679.73	196.60
679.87	175.54
680.00	255.12
680.14	259.80
680.28	182.56
680.42	107.66
680.56	159.16
680.70	100.64
680.83	184.90
680.97	133.41
681.11	243.42
681.25	217.67
681.39	196.60
681.52	224.69
681.66	262.14
681.80	182.56
681.94	208.31
682.07	217.67
682.21	173.20
682.35	196.60
682.49	140.43
682.62	210.65
682.76	133.41
682.90	140.43
683.04	217.67
683.17	210.65
683.31	163.84
683.45	182.56
683.59	203.63
683.72	145.11
683.86	117.03
684.00	110.01
684.13	100.64
684.27	119.37
684.41	170.86
684.55	234.05
684.68	203.63
684.82	187.24
684.96	196.60
685.09	175.54
685.23	95.96
685.37	149.79
685.50	175.54
685.64	285.55
685.78	145.11
685.91	191.92
686.05	224.69
686.19	177.88
686.32	194.26
686.46	241.08
686.60	161.50
686.73	220.01
686.87	250.44
687.01	187.24
687.14	238.73
687.28	264.48
687.42	264.48
687.55	241.08
687.69	327.68
687.82	266.82
687.96	236.39
688.10	236.39
688.23	217.67
688.37	229.37
688.50	248.10
688.64	201.29
688.78	217.67
688.91	208.31
689.05	102.98
689.18	161.50
689.32	217.67
689.46	234.05
689.59	100.64
689.73	126.39
689.86	128.73
690.00	196.60
690.13	145.11
690.27	131.07
690.41	149.79
690.54	175.54
690.68	152.13
690.81	140.43
690.95	210.65
691.08	182.56
691.22	117.03
691.35	84.26
691.49	131.07
691.62	147.45
691.76	51.49
691.89	182.56
692.03	117.03
692.16	88.94
692.30	149.79
692.43	93.62
692.57	187.24
692.70	140.43
692.84	131.07
692.97	149.79
693.11	140.43
693.24	140.43
693.38	168.52
693.51	212.99
693.65	238.73
693.78	149.79
693.92	224.69
694.05	252.78
694.19	163.84
694.32	203.63
694.45	107.66
694.59	168.52
694.72	203.63
694.86	145.11
694.99	131.07
695.13	154.48
695.26	170.86
695.39	138.09
695.53	203.63
695.66	133.41
695.80	128.73
695.93	112.35
696.07	63.19
696.20	208.31
696.33	74.90
696.47	212.99
696.60	163.84
696.73	210.65
696.87	77.24
697.00	220.01
697.14	147.45
697.27	203.63
697.40	217.67
697.54	95.96
697.67	79.58
697.80	170.86
697.94	159.16
698.07	166.18
698.21	37.45
698.34	138.09
698.47	117.03
698.61	131.07
698.74	126.39
698.87	175.54
699.01	142.77
699.14	114.69
699.27	175.54
699.40	330.02
699.54	159.16
699.67	133.41
699.80	51.49
699.94	131.07
700.07	63.19
700.20	142.77
700.34	117.03
700.47	124.05
700.60	128.73
700.73	100.64
700.87	182.56
701.00	182.56
701.13	145.11
701.26	156.82
701.40	110.01
701.53	182.56
701.66	154.48
701.79	180.22
701.93	107.66
702.06	149.79
702.19	77.24
702.32	168.52
702.46	135.75
702.59	168.52
702.72	140.43
702.85	79.58
702.99	110.01
703.12	63.19
703.25	159.16
703.38	119.37
703.51	191.92
703.65	205.97
703.78	173.20
703.91	159.16
704.04	145.11
704.17	88.94
704.31	121.71
704.44	124.05
704.57	121.71
704.70	210.65
704.83	194.26
704.96	152.13
705.10	170.86
705.23	145.11
>>>>>End Processed Spectral Data<<<<<
