SpectraSuite Data File
++++++++++++++++++++++++++++++++++++
Date: Fri Oct 04 11:42:16 GMT-05:00 2013
User: price-jones
Dark Spectrum Present: No
Reference Spectrum Present: No
Number of Sampled Component Spectra: 1
Spectrometers: USB2+H05261
Integration Time (usec): 100000 (USB2+H05261)
Spectra Averaged: 1 (USB2+H05261)
Boxcar Smoothing: 0 (USB2+H05261)
Correct for Electrical Dark: No (USB2+H05261)
Strobe/Lamp Enabled: No (USB2+H05261)
Correct for Detector Non-linearity: No (USB2+H05261)
Correct for Stray Light: No (USB2+H05261)
Number of Pixels in Processed Spectrum: 2048
>>>>>Begin Processed Spectral Data<<<<<
365.73	77.24
365.92	77.24
366.12	77.24
366.32	0.00
366.52	0.00
366.72	0.00
366.91	7.02
367.11	0.00
367.31	0.00
367.51	14.04
367.70	0.00
367.90	0.00
368.10	0.00
368.30	0.00
368.49	0.00
368.69	0.00
368.89	0.00
369.09	0.00
369.28	0.00
369.48	0.00
369.68	0.00
369.87	0.00
370.07	0.00
370.27	0.00
370.47	81.92
370.66	241.08
370.86	248.10
371.06	325.33
371.25	327.68
371.45	304.27
371.65	203.63
371.84	175.54
372.04	170.86
372.24	273.84
372.44	283.20
372.63	297.25
372.83	320.65
373.03	166.18
373.22	196.60
373.42	236.39
373.62	299.59
373.81	304.27
374.01	271.50
374.21	297.25
374.40	203.63
374.60	280.86
374.79	308.95
374.99	327.68
375.19	362.78
375.38	222.35
375.58	304.27
375.78	294.91
375.97	264.48
376.17	440.02
376.37	243.42
376.56	301.93
376.76	273.84
376.95	311.29
377.15	390.87
377.35	383.85
377.54	423.64
377.74	318.31
377.93	348.74
378.13	421.30
378.33	367.46
378.52	315.97
378.72	355.76
378.91	351.08
379.11	294.91
379.31	313.63
379.50	278.52
379.70	365.12
379.89	395.55
380.09	339.38
380.28	367.46
380.48	374.49
380.68	416.62
380.87	393.21
381.07	376.83
381.26	325.33
381.46	276.18
381.65	315.97
381.85	248.10
382.04	355.76
382.24	297.25
382.43	248.10
382.63	241.08
382.83	250.44
383.02	238.73
383.22	283.20
383.41	304.27
383.61	248.10
383.80	297.25
384.00	306.61
384.19	337.04
384.39	362.78
384.58	402.57
384.78	287.89
384.97	344.06
385.17	360.44
385.36	304.27
385.56	395.55
385.75	365.12
385.95	402.57
386.14	437.68
386.34	388.53
386.53	418.96
386.72	390.87
386.92	456.40
387.11	362.78
387.31	351.08
387.50	383.85
387.70	220.01
387.89	409.59
388.09	360.44
388.28	468.11
388.48	411.93
388.67	360.44
388.86	489.17
389.06	472.79
389.25	456.40
389.45	475.13
389.64	430.66
389.84	421.30
390.03	477.47
390.22	358.10
390.42	477.47
390.61	524.28
390.81	411.93
391.00	472.79
391.19	580.45
391.39	521.94
391.58	486.83
391.78	447.04
391.97	386.19
392.16	449.38
392.36	454.06
392.55	311.29
392.75	330.02
392.94	196.60
393.13	271.50
393.33	255.12
393.52	325.33
393.71	395.55
393.91	388.53
394.10	372.15
394.29	402.57
394.49	500.87
394.68	571.09
394.88	620.24
395.07	531.30
395.26	470.45
395.46	489.17
395.65	519.60
395.84	451.72
396.04	404.91
396.23	346.40
396.42	292.57
396.62	306.61
396.81	353.42
397.00	395.55
397.19	447.04
397.39	479.81
397.58	601.52
397.77	557.05
397.97	631.94
398.16	564.07
398.35	559.39
398.55	526.62
398.74	657.69
398.93	631.94
399.12	573.43
399.32	564.07
399.51	643.65
399.70	580.45
399.90	645.99
400.09	688.12
400.28	767.70
400.47	741.95
400.67	737.27
400.86	716.20
401.05	688.12
401.24	805.14
401.44	732.59
401.63	751.31
401.82	805.14
402.01	723.23
402.21	737.27
402.40	671.73
402.59	681.10
402.78	683.44
402.97	667.05
403.17	678.76
403.36	704.50
403.55	753.65
403.74	725.57
403.93	751.31
404.13	748.97
404.32	748.97
404.51	777.06
404.70	912.81
404.89	807.48
405.09	821.53
405.28	685.78
405.47	622.58
405.66	730.25
405.85	833.23
406.05	704.50
406.24	692.80
406.43	763.01
406.62	795.78
406.81	826.21
407.00	683.44
407.20	730.25
407.39	730.25
407.58	744.29
407.77	755.99
407.96	739.61
408.15	767.70
408.34	758.33
408.54	819.19
408.73	805.14
408.92	812.17
409.11	798.12
409.30	784.08
409.49	760.67
409.68	681.10
409.87	657.69
410.07	779.40
410.26	823.87
410.45	784.08
410.64	814.51
410.83	882.38
411.02	847.27
411.21	950.26
411.40	884.72
411.59	894.08
411.78	847.27
411.98	842.59
412.17	875.36
412.36	844.93
412.55	830.89
412.74	884.72
412.93	882.38
413.12	765.36
413.31	868.34
413.50	894.08
413.69	887.06
413.88	875.36
414.07	891.74
414.26	758.33
414.45	814.51
414.64	952.60
414.83	908.13
415.02	905.79
415.22	866.00
415.41	957.28
415.60	884.72
415.79	943.24
415.98	985.37
416.17	1062.60
416.36	968.98
416.55	854.30
416.74	983.02
416.93	936.21
417.12	889.40
417.31	805.14
417.50	863.66
417.69	1020.47
417.88	945.58
418.07	940.90
418.26	936.21
418.45	940.90
418.64	1034.52
418.83	987.71
419.02	990.05
419.21	954.94
419.39	905.79
419.58	861.32
419.77	791.10
419.96	884.72
420.15	1008.77
420.34	966.64
420.53	1020.47
420.72	976.00
420.91	945.58
421.10	1064.94
421.29	987.71
421.48	987.71
421.67	1039.20
421.86	947.92
422.05	880.04
422.24	856.64
422.43	936.21
422.61	952.60
422.80	950.26
422.99	964.30
423.18	1020.47
423.37	983.02
423.56	966.64
423.75	912.81
423.94	964.30
424.13	903.45
424.32	915.15
424.50	877.70
424.69	870.68
424.88	976.00
425.07	905.79
425.26	931.53
425.45	903.45
425.64	896.43
425.83	931.53
426.01	943.24
426.20	903.45
426.39	976.00
426.58	896.43
426.77	835.57
426.96	858.98
427.15	812.17
427.33	936.21
427.52	786.42
427.71	954.94
427.90	870.68
428.09	870.68
428.28	833.23
428.46	968.98
428.65	915.15
428.84	870.68
429.03	978.34
429.22	833.23
429.40	781.74
429.59	720.88
429.78	781.74
429.97	657.69
430.16	741.95
430.34	624.92
430.53	669.39
430.72	713.86
430.91	842.59
431.10	840.25
431.28	943.24
431.47	1013.45
431.66	990.05
431.85	1034.52
432.03	985.37
432.22	973.66
432.41	889.40
432.60	940.90
432.79	1034.52
432.97	1048.56
433.16	994.73
433.35	954.94
433.54	954.94
433.72	861.32
433.91	940.90
434.10	1034.52
434.28	938.55
434.47	1018.13
434.66	1046.22
434.85	1057.92
435.03	1104.73
435.22	1479.22
435.41	1846.68
435.59	1905.20
435.78	1743.70
435.97	1366.87
436.16	1203.04
436.34	1090.69
436.53	992.39
436.72	1078.99
436.90	1057.92
437.09	1046.22
437.28	1027.50
437.46	1086.01
437.65	997.07
437.84	999.41
438.02	943.24
438.21	976.00
438.40	1006.43
438.58	1011.11
438.77	1100.05
438.96	1074.31
439.14	1130.48
439.33	1132.82
439.52	1118.78
439.70	1196.01
439.89	1128.14
440.08	1043.88
440.26	952.60
440.45	1114.10
440.63	1240.48
440.82	1165.59
441.01	1153.88
441.19	1196.01
441.38	1151.54
441.57	1210.06
441.75	1177.29
441.94	1273.25
442.12	1345.81
442.31	1254.53
442.50	1228.78
442.68	1228.78
442.87	1214.74
443.05	1158.57
443.24	1184.31
443.43	1151.54
443.61	1273.25
443.80	1350.49
443.98	1291.98
444.17	1226.44
444.35	1261.55
444.54	1284.95
444.73	1231.12
444.91	1263.89
445.10	1212.40
445.28	1123.46
445.47	1188.99
445.65	1090.69
445.84	1203.04
446.02	1252.19
446.21	1261.55
446.39	1217.08
446.58	1203.04
446.77	1270.91
446.95	1273.25
447.14	1291.98
447.32	1432.41
447.51	1306.02
447.69	1200.69
447.88	1299.00
448.06	1373.89
448.25	1277.93
448.43	1259.21
448.62	1235.80
448.80	1287.29
448.99	1200.69
449.17	1282.61
449.36	1299.00
449.54	1301.34
449.73	1362.19
449.91	1418.36
450.10	1357.51
450.28	1535.39
450.46	1364.53
450.65	1331.76
450.83	1364.53
451.02	1315.38
451.20	1373.89
451.39	1348.15
451.57	1308.36
451.76	1366.87
451.94	1329.42
452.13	1357.51
452.31	1331.76
452.49	1277.93
452.68	1259.21
452.86	1181.97
453.05	1186.65
453.23	1221.76
453.42	1357.51
453.60	1294.32
453.78	1380.92
453.97	1320.06
454.15	1317.72
454.34	1247.51
454.52	1320.06
454.70	1228.78
454.89	1348.15
455.07	1294.32
455.26	1397.30
455.44	1413.68
455.62	1306.02
455.81	1291.98
455.99	1301.34
456.17	1296.66
456.36	1411.34
456.54	1362.19
456.73	1320.06
456.91	1322.40
457.09	1378.58
457.28	1434.75
457.46	1458.15
457.64	1390.28
457.83	1301.34
458.01	1324.74
458.19	1385.60
458.38	1362.19
458.56	1432.41
458.74	1406.66
458.93	1350.49
459.11	1404.32
459.29	1383.26
459.48	1434.75
459.66	1343.47
459.84	1383.26
460.03	1476.88
460.21	1451.13
460.39	1378.58
460.57	1453.47
460.76	1453.47
460.94	1469.86
461.12	1455.81
461.31	1392.62
461.49	1359.85
461.67	1418.36
461.85	1556.46
462.04	1385.60
462.22	1633.69
462.40	1514.33
462.59	1432.41
462.77	1359.85
462.95	1437.09
463.13	1373.89
463.32	1437.09
463.50	1420.71
463.68	1423.05
463.86	1350.49
464.05	1331.76
464.23	1310.70
464.41	1329.42
464.59	1263.89
464.78	1439.43
464.96	1397.30
465.14	1324.74
465.32	1366.87
465.50	1465.18
465.69	1495.60
465.87	1453.47
466.05	1406.66
466.23	1221.76
466.41	1348.15
466.60	1378.58
466.78	1336.45
466.96	1411.34
467.14	1376.24
467.32	1490.92
467.51	1434.75
467.69	1378.58
467.87	1472.20
468.05	1366.87
468.23	1504.96
468.41	1343.47
468.60	1411.34
468.78	1399.64
468.96	1472.20
469.14	1495.60
469.32	1380.92
469.50	1299.00
469.69	1376.24
469.87	1287.29
470.05	1366.87
470.23	1380.92
470.41	1369.21
470.59	1310.70
470.77	1362.19
470.95	1366.87
471.14	1554.12
471.32	1425.39
471.50	1528.37
471.68	1366.87
471.86	1455.81
472.04	1544.75
472.22	1526.03
472.40	1507.30
472.58	1469.86
472.77	1373.89
472.95	1523.69
473.13	1544.75
473.31	1479.22
473.49	1488.58
473.67	1409.00
473.85	1528.37
474.03	1537.73
474.21	1497.94
474.39	1565.82
474.57	1582.20
474.75	1516.67
474.93	1502.62
475.12	1432.41
475.30	1369.21
475.48	1504.96
475.66	1514.33
475.84	1540.07
476.02	1472.20
476.20	1338.79
476.38	1413.68
476.56	1685.19
476.74	1612.63
476.92	1600.93
477.10	1626.67
477.28	1668.80
477.46	1619.65
477.64	1607.95
477.82	1643.06
478.00	1586.88
478.18	1519.01
478.36	1729.66
478.54	1689.87
478.72	1631.35
478.90	1584.54
479.08	1673.48
479.26	1591.56
479.44	1776.47
479.62	1703.91
479.80	1736.68
479.98	1678.16
480.16	1729.66
480.34	1703.91
480.52	1664.12
480.70	1755.40
480.88	1820.94
481.06	1825.62
481.24	1802.21
481.41	1900.52
481.59	1872.43
481.77	1905.20
481.95	1891.15
482.13	1827.96
482.31	1792.85
482.49	1907.54
482.67	1879.45
482.85	1905.20
483.03	1980.09
483.21	1930.94
483.39	1954.35
483.57	1928.60
483.74	1942.64
483.92	1886.47
484.10	1909.88
484.28	2066.69
484.46	2106.48
484.64	1891.15
484.82	2045.63
485.00	1900.52
485.18	1858.39
485.35	1874.77
485.53	1720.29
485.71	1575.18
485.89	1647.74
486.07	1734.34
486.25	1792.85
486.43	1750.72
486.61	1886.47
486.78	1998.82
486.96	1963.71
487.14	1996.48
487.32	1996.48
487.50	2169.68
487.68	2017.54
487.85	2143.93
488.03	2134.57
488.21	2141.59
488.39	2101.80
488.57	2043.29
488.75	2033.93
488.92	2448.20
489.10	2167.34
489.28	2291.38
489.46	2282.02
489.64	2239.89
489.81	2291.38
489.99	2321.81
490.17	2363.94
490.35	2455.22
490.53	2246.91
490.70	2230.53
490.88	2298.41
491.06	2370.96
491.24	2296.07
491.41	2363.94
491.59	2183.72
491.77	2054.99
491.95	2211.81
492.13	2282.02
492.30	2352.24
492.48	2377.98
492.66	2466.92
492.84	2457.56
493.01	2429.48
493.19	2392.03
493.37	2424.80
493.54	2317.13
493.72	2373.30
493.90	2363.94
494.08	2438.84
494.25	2457.56
494.43	2523.10
494.61	2668.21
494.79	2462.24
494.96	2506.71
495.14	2567.57
495.32	2485.65
495.49	2401.39
495.67	2487.99
495.85	2679.91
496.02	2544.16
496.20	2586.29
496.38	2562.89
496.55	2525.44
496.73	2647.15
496.91	2548.84
497.09	2640.12
497.26	2663.53
497.44	2567.57
497.62	2609.70
497.79	2513.74
497.97	2443.52
498.14	2480.97
498.32	2476.29
498.50	2544.16
498.67	2579.27
498.85	2532.46
499.03	2705.66
499.20	2626.08
499.38	2726.72
499.56	2605.02
499.73	2548.84
499.91	2579.27
500.08	2593.31
500.26	2445.86
500.44	2464.58
500.61	2586.29
500.79	2581.61
500.97	2490.33
501.14	2530.12
501.32	2450.54
501.49	2443.52
501.67	2396.71
501.84	2518.42
502.02	2441.18
502.20	2497.35
502.37	2621.40
502.55	2509.05
502.72	2525.44
502.90	2520.76
503.07	2473.95
503.25	2373.30
503.43	2385.01
503.60	2209.47
503.78	2246.91
503.95	2394.37
504.13	2464.58
504.30	2649.49
504.48	2712.68
504.65	2637.78
504.83	2658.85
505.01	2614.38
505.18	2743.11
505.36	2579.27
505.53	2647.15
505.71	2605.02
505.88	2810.98
506.06	2656.51
506.23	2621.40
506.41	2506.71
506.58	2672.89
506.76	2576.93
506.93	2593.31
507.11	2661.19
507.28	2574.59
507.46	2509.05
507.63	2534.80
507.81	2555.86
507.98	2518.42
508.16	2647.15
508.33	2677.57
508.50	2684.59
508.68	2703.32
508.85	2761.83
509.03	2677.57
509.20	2754.81
509.38	2633.10
509.55	2609.70
509.73	2663.53
509.90	2656.51
510.08	2708.00
510.25	2731.41
510.42	2651.83
510.60	2607.36
510.77	2651.83
510.95	2855.45
511.12	2827.37
511.30	2715.02
511.47	2841.41
511.64	2897.58
511.82	2808.64
511.99	2806.30
512.17	2731.41
512.34	2708.00
512.51	2532.46
512.69	2595.65
512.86	2668.21
513.04	2757.15
513.21	2689.28
513.38	2715.02
513.56	2569.91
513.73	2586.29
513.90	2621.40
514.08	2518.42
514.25	2654.17
514.43	2555.86
514.60	2663.53
514.77	2633.10
514.95	2661.19
515.12	2649.49
515.29	2778.22
515.47	2752.47
515.64	2829.71
515.81	2717.36
515.99	2647.15
516.16	2525.44
516.33	2363.94
516.51	2300.75
516.68	2188.40
516.85	2127.55
517.03	2150.95
517.20	2361.60
517.37	2518.42
517.54	2670.55
517.72	2464.58
517.89	2328.83
518.06	2354.58
518.24	2387.35
518.41	2574.59
518.58	2562.89
518.75	2588.63
518.93	2619.06
519.10	2684.59
519.27	2518.42
519.45	2574.59
519.62	2700.98
519.79	2715.02
519.96	2698.64
520.14	2778.22
520.31	2658.85
520.48	2579.27
520.65	2736.09
520.83	2670.55
521.00	2738.43
521.17	2679.91
521.34	2715.02
521.52	2665.87
521.69	2738.43
521.86	2778.22
522.03	2822.69
522.20	2675.23
522.38	2420.11
522.55	2476.29
522.72	2593.31
522.89	2593.31
523.07	2637.78
523.24	2686.94
523.41	2731.41
523.58	2766.51
523.75	2902.26
523.92	2839.07
524.10	2785.24
524.27	2829.71
524.44	2761.83
524.61	2729.06
524.78	2780.56
524.96	2752.47
525.13	2722.04
525.30	2644.81
525.47	2899.92
525.64	2733.75
525.81	2719.70
525.98	2635.44
526.16	2565.23
526.33	2480.97
526.50	2429.48
526.67	2408.41
526.84	2415.43
527.01	2392.03
527.18	2490.33
527.36	2605.02
527.53	2703.32
527.70	2745.45
527.87	2764.17
528.04	2696.30
528.21	2705.66
528.38	2892.90
528.55	2857.79
528.72	2848.43
528.89	2916.31
529.07	2829.71
529.24	2871.84
529.41	2892.90
529.58	2722.04
529.75	2862.48
529.92	2729.06
530.09	2736.09
530.26	2920.99
530.43	2998.23
530.60	2876.52
530.77	2944.39
530.94	2984.18
531.11	2920.99
531.28	2864.82
531.46	2731.41
531.63	2810.98
531.80	2768.85
531.97	2686.94
532.14	2530.12
532.31	2602.68
532.48	2626.08
532.65	2544.16
532.82	2679.91
532.99	2782.90
533.16	2799.28
533.33	2829.71
533.50	2857.79
533.67	2787.58
533.84	2733.75
534.01	2654.17
534.18	2780.56
534.35	2789.92
534.52	2663.53
534.69	2785.24
534.86	2813.32
535.03	2787.58
535.20	2911.63
535.37	2946.73
535.54	2881.20
535.71	2796.94
535.88	2906.95
536.05	2780.56
536.22	2864.82
536.38	2815.66
536.55	2663.53
536.72	2792.26
536.89	2635.44
537.06	2876.52
537.23	2775.88
537.40	2785.24
537.57	2818.00
537.74	2815.66
537.91	2857.79
538.08	2834.39
538.25	2953.76
538.42	2834.39
538.59	2860.13
538.75	2825.03
538.92	2785.24
539.09	2808.64
539.26	2855.45
539.43	2876.52
539.60	2836.73
539.77	2937.37
539.94	2899.92
540.11	2766.51
540.28	2860.13
540.44	2897.58
540.61	2869.50
540.78	3063.76
540.95	2981.84
541.12	3419.52
541.29	3368.03
541.46	3323.56
541.62	3353.99
541.79	3478.04
541.96	3372.71
542.13	3414.84
542.30	3311.86
542.47	3370.37
542.63	3185.47
542.80	3201.85
542.97	3197.17
543.14	3206.53
543.31	3293.13
543.48	3323.56
543.64	3449.95
543.81	3447.61
543.98	3468.67
544.15	3253.34
544.32	3239.30
544.48	3171.43
544.65	3342.28
544.82	3328.24
544.99	3260.37
545.16	3227.60
545.32	3342.28
545.49	3786.99
545.66	4430.63
545.83	4973.64
546.00	4582.77
546.16	3908.69
546.33	3494.42
546.50	3344.63
546.67	3262.71
546.83	3141.00
547.00	3073.12
547.17	3129.30
547.34	2918.65
547.50	2871.84
547.67	3002.91
547.84	2972.48
548.00	3026.31
548.17	2935.03
548.34	3054.40
548.51	2984.18
548.67	2967.80
548.84	3052.06
549.01	3028.65
549.18	2909.29
549.34	2935.03
549.51	2923.33
549.68	2930.35
549.84	2822.69
550.01	2846.09
550.18	2843.75
550.34	2883.54
550.51	2939.71
550.68	2937.37
550.84	2773.53
551.01	2733.75
551.18	2825.03
551.34	2864.82
551.51	2696.30
551.68	2920.99
551.84	2785.24
552.01	2834.39
552.18	2757.15
552.34	2703.32
552.51	2661.19
552.68	2665.87
552.84	2693.96
553.01	2731.41
553.18	2509.05
553.34	2602.68
553.51	2679.91
553.67	2616.72
553.84	2806.30
554.01	2799.28
554.17	2649.49
554.34	2693.96
554.51	2647.15
554.67	2729.06
554.84	2567.57
555.00	2647.15
555.17	2663.53
555.33	2775.88
555.50	2607.36
555.67	2581.61
555.83	2541.82
556.00	2504.37
556.16	2715.02
556.33	2572.25
556.50	2609.70
556.66	2518.42
556.83	2487.99
556.99	2532.46
557.16	2471.61
557.32	2511.39
557.49	2588.63
557.65	2602.68
557.82	2509.05
557.98	2464.58
558.15	2445.86
558.32	2434.16
558.48	2403.73
558.65	2417.77
558.81	2363.94
558.98	2342.88
559.14	2574.59
559.31	2387.35
559.47	2527.78
559.64	2368.62
559.80	2457.56
559.97	2403.73
560.13	2326.49
560.30	2579.27
560.46	2513.74
560.63	2553.52
560.79	2565.23
560.96	2537.14
561.12	2469.27
561.29	2382.67
561.45	2293.72
561.61	2445.86
561.78	2616.72
561.94	2509.05
562.11	2380.32
562.27	2462.24
562.44	2553.52
562.60	2394.37
562.77	2490.33
562.93	2525.44
563.10	2537.14
563.26	2387.35
563.42	2544.16
563.59	2492.67
563.75	2452.88
563.92	2424.80
564.08	2457.56
564.24	2441.18
564.41	2483.31
564.57	2455.22
564.74	2466.92
564.90	2431.82
565.07	2466.92
565.23	2319.47
565.39	2375.64
565.56	2307.77
565.72	2239.89
565.88	2314.79
566.05	2349.90
566.21	2366.28
566.38	2420.11
566.54	2389.69
566.70	2443.52
566.87	2422.45
567.03	2417.77
567.19	2441.18
567.36	2431.82
567.52	2349.90
567.68	2443.52
567.85	2258.62
568.01	2296.07
568.17	2232.87
568.34	2214.15
568.50	2195.42
568.66	2225.85
568.83	2256.28
568.99	2230.53
569.15	2249.25
569.32	2275.00
569.48	2263.30
569.64	2291.38
569.81	2232.87
569.97	2282.02
570.13	2235.21
570.30	2218.83
570.46	2186.06
570.62	2099.46
570.78	2106.48
570.95	2078.40
571.11	2272.66
571.27	2237.55
571.43	2143.93
571.60	2167.34
571.76	2090.10
571.92	2195.42
572.09	2347.56
572.25	2223.51
572.41	2272.66
572.57	2284.36
572.74	2340.54
572.90	2169.68
573.06	2200.10
573.22	2331.17
573.38	2317.13
573.55	2272.66
573.71	2141.59
573.87	2179.04
574.03	2111.16
574.20	2225.85
574.36	2202.44
574.52	2174.36
574.68	2190.74
574.84	2169.68
575.01	2094.78
575.17	2094.78
575.33	2045.63
575.49	2195.42
575.65	2235.21
575.82	2143.93
575.98	2214.15
576.14	2153.29
576.30	2216.49
576.46	2401.39
576.62	2434.16
576.79	2555.86
576.95	2450.54
577.11	2242.23
577.27	2188.40
577.43	2237.55
577.59	2167.34
577.75	2211.81
577.92	2153.29
578.08	2078.40
578.24	2073.71
578.40	2214.15
578.56	2193.08
578.72	2511.39
578.88	2523.10
579.04	2363.94
579.21	2452.88
579.37	2235.21
579.53	2270.32
579.69	2293.72
579.85	2258.62
580.01	2275.00
580.17	2258.62
580.33	2270.32
580.49	2122.87
580.65	2317.13
580.82	2237.55
580.98	2272.66
581.14	2225.85
581.30	2090.10
581.46	2143.93
581.62	2284.36
581.78	2293.72
581.94	2354.58
582.10	2258.62
582.26	2260.96
582.42	2394.37
582.58	2317.13
582.74	2263.30
582.90	2342.88
583.06	2392.03
583.22	2221.17
583.38	2328.83
583.54	2263.30
583.70	2401.39
583.86	2246.91
584.02	2260.96
584.18	2324.15
584.34	2232.87
584.50	2197.76
584.66	2289.04
584.82	2310.11
584.98	2176.70
585.14	2153.29
585.30	2230.53
585.46	2132.23
585.62	2069.03
585.78	2225.85
585.94	2200.10
586.10	2211.81
586.26	2136.91
586.42	2186.06
586.58	2106.48
586.74	2296.07
586.90	2289.04
587.06	2239.89
587.22	2401.39
587.38	2225.85
587.54	2113.50
587.70	2094.78
587.86	2001.16
588.02	1933.28
588.18	1961.37
588.34	1792.85
588.49	1610.29
588.65	1614.97
588.81	1696.89
588.97	1661.78
589.13	1600.93
589.29	1584.54
589.45	1717.95
589.61	1619.65
589.77	1633.69
589.93	1764.76
590.08	1750.72
590.24	1849.02
590.40	1778.81
590.56	1982.43
590.72	1785.83
590.88	1795.19
591.04	1893.49
591.20	1858.39
591.35	1830.30
591.51	1750.72
591.67	1668.80
591.83	1687.53
591.99	1827.96
592.15	1980.09
592.31	1832.64
592.46	1895.83
592.62	2022.22
592.78	2024.56
592.94	2038.61
593.10	1949.67
593.26	2069.03
593.41	2111.16
593.57	1919.24
593.73	1926.26
593.89	1827.96
594.05	1830.30
594.20	1813.92
594.36	1729.66
594.52	1629.01
594.68	1724.97
594.84	1785.83
594.99	1928.60
595.15	1788.17
595.31	1764.76
595.47	1846.68
595.62	1874.77
595.78	1860.73
595.94	1940.30
596.10	1905.20
596.25	1727.32
596.41	1853.70
596.57	1715.61
596.73	1928.60
596.88	1895.83
597.04	1863.07
597.20	1806.89
597.36	1860.73
597.51	1909.88
597.67	1799.87
597.83	1827.96
597.99	1921.58
598.14	1872.43
598.30	1823.28
598.46	1849.02
598.61	1809.23
598.77	1781.15
598.93	1998.82
599.09	1994.14
599.24	1987.11
599.40	2017.54
599.56	2001.16
599.71	1867.75
599.87	1881.79
600.03	2057.33
600.18	1949.67
600.34	1930.94
600.50	1984.77
600.65	1944.99
600.81	1975.41
600.97	1959.03
601.12	1898.17
601.28	1970.73
601.44	1853.70
601.59	1795.19
601.75	1865.41
601.91	1907.54
602.06	1970.73
602.22	1900.52
602.37	1820.94
602.53	1809.23
602.69	1893.49
602.84	1914.56
603.00	1823.28
603.16	1994.14
603.31	1919.24
603.47	1921.58
603.62	1954.35
603.78	2005.84
603.94	1888.81
604.09	1980.09
604.25	1919.24
604.40	1923.92
604.56	1919.24
604.71	1900.52
604.87	1837.32
605.03	1907.54
605.18	1947.33
605.34	1961.37
605.49	1865.41
605.65	1905.20
605.80	1865.41
605.96	1886.47
606.12	1781.15
606.27	1982.43
606.43	1944.99
606.58	1895.83
606.74	1834.98
606.89	1909.88
607.05	1984.77
607.20	1877.11
607.36	1912.22
607.51	1839.66
607.67	1933.28
607.82	1940.30
607.98	1989.46
608.13	1856.04
608.29	1963.71
608.44	1959.03
608.60	1973.07
608.75	2057.33
608.91	2113.50
609.06	1977.75
609.22	2064.35
609.37	2087.76
609.53	2047.97
609.68	2204.78
609.84	2062.01
609.99	2204.78
610.15	2349.90
610.30	2415.43
610.46	2792.26
610.61	2977.16
610.76	3255.69
610.92	3536.55
611.07	3791.67
611.23	4042.11
611.38	3866.56
611.54	3536.55
611.69	3281.43
611.84	2874.18
612.00	2827.37
612.15	2579.27
612.31	2476.29
612.46	2450.54
612.62	2331.17
612.77	2399.05
612.92	2246.91
613.08	2209.47
613.23	2221.17
613.39	2139.25
613.54	2069.03
613.69	2150.95
613.85	2101.80
614.00	2160.31
614.15	2165.00
614.31	2076.06
614.46	2181.38
614.62	1959.03
614.77	2172.02
614.92	2120.53
615.08	2146.27
615.23	2040.95
615.38	1970.73
615.54	1877.11
615.69	1820.94
615.84	1928.60
616.00	1748.38
616.15	1802.21
616.30	1769.44
616.46	1750.72
616.61	1736.68
616.76	1825.62
616.92	1870.09
617.07	1774.13
617.22	1771.79
617.37	1666.46
617.53	1783.49
617.68	1748.38
617.83	1640.72
617.99	1874.77
618.14	1818.60
618.29	1823.28
618.45	1736.68
618.60	1753.06
618.75	1591.56
618.90	1640.72
619.06	1619.65
619.21	1732.00
619.36	1699.23
619.51	1654.76
619.67	1748.38
619.82	1717.95
619.97	1678.16
620.12	1736.68
620.28	1659.44
620.43	1813.92
620.58	1748.38
620.73	1699.23
620.89	1746.04
621.04	1717.95
621.19	1753.06
621.34	1603.27
621.49	1640.72
621.65	1755.40
621.80	1605.61
621.95	1554.12
622.10	1696.89
622.25	1675.82
622.41	1629.01
622.56	1689.87
622.71	1647.74
622.86	1631.35
623.01	1624.33
623.16	1603.27
623.32	1699.23
623.47	1600.93
623.62	1568.16
623.77	1638.38
623.92	1703.91
624.07	1479.22
624.23	1591.56
624.38	1678.16
624.53	1533.05
624.68	1577.52
624.83	1589.22
624.98	1526.03
625.13	1493.26
625.29	1516.67
625.44	1563.48
625.59	1519.01
625.74	1547.09
625.89	1596.25
626.04	1533.05
626.19	1462.83
626.34	1612.63
626.49	1558.80
626.65	1411.34
626.80	1460.49
626.95	1551.78
627.10	1497.94
627.25	1547.09
627.40	1406.66
627.55	1444.11
627.70	1401.98
627.85	1455.81
628.00	1446.45
628.15	1521.35
628.30	1460.49
628.45	1497.94
628.60	1474.54
628.76	1472.20
628.91	1544.75
629.06	1439.43
629.21	1446.45
629.36	1373.89
629.51	1409.00
629.66	1334.11
629.81	1366.87
629.96	1462.83
630.11	1507.30
630.26	1589.22
630.41	1650.08
630.56	1645.40
630.71	1544.75
630.86	1654.76
631.01	1568.16
631.16	1561.14
631.31	1474.54
631.46	1481.56
631.61	1437.09
631.76	1418.36
631.91	1430.07
632.06	1383.26
632.21	1364.53
632.36	1462.83
632.51	1369.21
632.66	1329.42
632.81	1268.57
632.96	1441.77
633.10	1385.60
633.25	1472.20
633.40	1327.08
633.55	1359.85
633.70	1352.83
633.85	1432.41
634.00	1373.89
634.15	1270.91
634.30	1383.26
634.45	1401.98
634.60	1310.70
634.75	1366.87
634.90	1331.76
635.05	1350.49
635.19	1378.58
635.34	1249.85
635.49	1322.40
635.64	1266.23
635.79	1362.19
635.94	1261.55
636.09	1399.64
636.24	1313.04
636.39	1376.24
636.53	1387.94
636.68	1329.42
636.83	1329.42
636.98	1399.64
637.13	1355.17
637.28	1352.83
637.43	1371.55
637.57	1352.83
637.72	1364.53
637.87	1308.36
638.02	1252.19
638.17	1277.93
638.32	1310.70
638.46	1416.02
638.61	1376.24
638.76	1338.79
638.91	1289.64
639.06	1352.83
639.20	1268.57
639.35	1270.91
639.50	1294.32
639.65	1252.19
639.80	1308.36
639.94	1268.57
640.09	1331.76
640.24	1362.19
640.39	1350.49
640.54	1235.80
640.68	1228.78
640.83	1301.34
640.98	1291.98
641.13	1196.01
641.27	1217.08
641.42	1270.91
641.57	1254.53
641.72	1252.19
641.86	1179.63
642.01	1207.72
642.16	1212.40
642.31	1313.04
642.45	1299.00
642.60	1313.04
642.75	1242.82
642.90	1280.27
643.04	1186.65
643.19	1259.21
643.34	1221.76
643.48	1294.32
643.63	1357.51
643.78	1294.32
643.93	1252.19
644.07	1322.40
644.22	1196.01
644.37	1291.98
644.51	1233.46
644.66	1198.35
644.81	1153.88
644.95	1240.48
645.10	1270.91
645.25	1142.18
645.39	1212.40
645.54	1221.76
645.69	1200.69
645.83	1179.63
645.98	1125.80
646.13	1100.05
646.27	1086.01
646.42	1078.99
646.57	1146.86
646.71	1055.58
646.86	1057.92
647.00	1057.92
647.15	1102.39
647.30	1027.50
647.44	1036.86
647.59	990.05
647.74	1102.39
647.88	1043.88
648.03	1015.79
648.17	1060.26
648.32	1050.90
648.47	987.71
648.61	992.39
648.76	1036.86
648.90	1093.03
649.05	1034.52
649.20	1041.54
649.34	1046.22
649.49	1043.88
649.63	1137.50
649.78	1050.90
649.92	1100.05
650.07	1196.01
650.21	1179.63
650.36	1228.78
650.51	1109.41
650.65	1254.53
650.80	1217.08
650.94	1153.88
651.09	1156.22
651.23	1050.90
651.38	1111.75
651.52	1036.86
651.67	999.41
651.81	1025.15
651.96	1074.31
652.10	1132.82
652.25	1081.33
652.39	1095.37
652.54	1149.20
652.68	1188.99
652.83	1151.54
652.97	1303.68
653.12	1020.47
653.26	1093.03
653.41	1177.29
653.55	1137.50
653.70	1100.05
653.84	1064.94
653.99	1097.71
654.13	1116.44
654.27	1032.18
654.42	947.92
654.56	1043.88
654.71	1144.52
654.85	992.39
655.00	924.51
655.14	950.26
655.29	973.66
655.43	938.55
655.57	947.92
655.72	983.02
655.86	866.00
656.01	784.08
656.15	858.98
656.30	863.66
656.44	800.46
656.58	910.47
656.73	1034.52
656.87	912.81
657.01	926.85
657.16	1043.88
657.30	1057.92
657.45	1104.73
657.59	1008.77
657.73	1095.37
657.88	1102.39
658.02	1102.39
658.16	1046.22
658.31	1004.09
658.45	1001.75
658.60	1025.15
658.74	1015.79
658.88	947.92
659.03	1076.65
659.17	1022.81
659.31	1020.47
659.46	1013.45
659.60	1083.67
659.74	1039.20
659.89	1156.22
660.03	1076.65
660.17	1050.90
660.32	1039.20
660.46	1069.62
660.60	1097.71
660.74	1067.28
660.89	1029.84
661.03	1041.54
661.17	1036.86
661.32	1015.79
661.46	1043.88
661.60	1118.78
661.74	1078.99
661.89	1130.48
662.03	1142.18
662.17	1109.41
662.31	1083.67
662.46	1088.35
662.60	1015.79
662.74	1078.99
662.88	1100.05
663.03	1053.24
663.17	1029.84
663.31	1022.81
663.45	903.45
663.60	1064.94
663.74	1006.43
663.88	966.64
664.02	1067.28
664.17	983.02
664.31	950.26
664.45	1039.20
664.59	1053.24
664.73	1055.58
664.88	1008.77
665.02	1006.43
665.16	950.26
665.30	1156.22
665.44	966.64
665.59	987.71
665.73	987.71
665.87	1076.65
666.01	997.07
666.15	973.66
666.29	1034.52
666.44	1041.54
666.58	1004.09
666.72	1034.52
666.86	1083.67
667.00	999.41
667.14	1011.11
667.28	968.98
667.43	929.19
667.57	1043.88
667.71	959.62
667.85	990.05
667.99	1029.84
668.13	973.66
668.27	891.74
668.41	1029.84
668.56	954.94
668.70	1025.15
668.84	990.05
668.98	978.34
669.12	1013.45
669.26	976.00
669.40	1064.94
669.54	992.39
669.68	971.32
669.82	959.62
669.96	1020.47
670.10	945.58
670.25	889.40
670.39	950.26
670.53	964.30
670.67	1006.43
670.81	903.45
670.95	997.07
671.09	966.64
671.23	980.68
671.37	1004.09
671.51	898.77
671.65	856.64
671.79	912.81
671.93	933.87
672.07	990.05
672.21	849.61
672.35	957.28
672.49	856.64
672.63	940.90
672.77	933.87
672.91	873.02
673.05	854.30
673.19	912.81
673.33	828.55
673.47	915.15
673.61	894.08
673.75	896.43
673.89	889.40
674.03	798.12
674.17	800.46
674.31	802.80
674.45	826.21
674.59	877.70
674.73	866.00
674.87	954.94
675.01	950.26
675.15	894.08
675.29	823.87
675.43	938.55
675.56	933.87
675.70	889.40
675.84	851.96
675.98	858.98
676.12	884.72
676.26	849.61
676.40	849.61
676.54	849.61
676.68	791.10
676.82	910.47
676.96	819.19
677.10	770.04
677.23	798.12
677.37	777.06
677.51	826.21
677.65	880.04
677.79	784.08
677.93	805.14
678.07	915.15
678.21	863.66
678.34	758.33
678.48	814.51
678.62	800.46
678.76	791.10
678.90	781.74
679.04	805.14
679.18	849.61
679.31	748.97
679.45	753.65
679.59	802.80
679.73	772.38
679.87	746.63
680.00	816.85
680.14	793.44
680.28	784.08
680.42	702.16
680.56	842.59
680.70	753.65
680.83	887.06
680.97	730.25
681.11	774.72
681.25	802.80
681.39	755.99
681.52	741.95
681.66	678.76
681.80	730.25
681.94	699.82
682.07	758.33
682.21	725.57
682.35	697.48
682.49	669.39
682.62	746.63
682.76	732.59
682.90	779.40
683.04	753.65
683.17	723.23
683.31	638.97
683.45	704.50
683.59	809.83
683.72	683.44
683.86	746.63
684.00	716.20
684.13	741.95
684.27	678.76
684.41	732.59
684.55	631.94
684.68	730.25
684.82	674.07
684.96	681.10
685.09	631.94
685.23	667.05
685.37	645.99
685.50	725.57
685.64	662.37
685.78	615.56
685.91	641.31
686.05	667.05
686.19	720.88
686.32	627.26
686.46	608.54
686.60	479.81
686.73	578.11
686.87	409.59
687.01	463.43
687.14	451.72
687.28	449.38
687.42	418.96
687.55	393.21
687.69	491.51
687.82	557.05
687.96	557.05
688.10	608.54
688.23	533.64
688.37	547.69
688.50	550.03
688.64	498.53
688.78	596.84
688.91	470.45
689.05	491.51
689.18	477.47
689.32	472.79
689.46	461.09
689.59	552.37
689.73	440.02
689.86	554.71
690.00	498.53
690.13	500.87
690.27	531.30
690.41	561.73
690.54	458.74
690.68	521.94
690.81	486.83
690.95	564.07
691.08	507.90
691.22	484.49
691.35	510.24
691.49	554.71
691.62	451.72
691.76	493.85
691.89	531.30
692.03	449.38
692.16	512.58
692.30	489.17
692.43	465.77
692.57	482.15
692.70	433.00
692.84	454.06
692.97	477.47
693.11	416.62
693.24	416.62
693.38	468.11
693.51	463.43
693.65	477.47
693.78	418.96
693.92	418.96
694.05	433.00
694.19	425.98
694.32	433.00
694.45	454.06
694.59	461.09
694.72	407.25
694.86	440.02
694.99	425.98
695.13	437.68
695.26	447.04
695.39	423.64
695.53	465.77
695.66	493.85
695.80	465.77
695.93	397.89
696.07	404.91
696.20	456.40
696.33	461.09
696.47	470.45
696.60	573.43
696.73	402.57
696.87	442.36
697.00	493.85
697.14	479.81
697.27	482.15
697.40	472.79
697.54	472.79
697.67	442.36
697.80	489.17
697.94	447.04
698.07	479.81
698.21	456.40
698.34	381.51
698.47	372.15
698.61	414.27
698.74	425.98
698.87	458.74
699.01	418.96
699.14	407.25
699.27	390.87
699.40	465.77
699.54	411.93
699.67	395.55
699.80	351.08
699.94	411.93
700.07	472.79
700.20	334.70
700.34	437.68
700.47	365.12
700.60	454.06
700.73	423.64
700.87	348.74
701.00	334.70
701.13	409.59
701.26	407.25
701.40	433.00
701.53	381.51
701.66	411.93
701.79	386.19
701.93	313.63
702.06	369.80
702.19	341.72
702.32	416.62
702.46	362.78
702.59	337.04
702.72	334.70
702.85	315.97
702.99	369.80
703.12	400.23
703.25	397.89
703.38	397.89
703.51	451.72
703.65	355.76
703.78	353.42
703.91	395.55
704.04	409.59
704.17	386.19
704.31	472.79
704.44	383.85
704.57	376.83
704.70	339.38
704.83	468.11
704.96	346.40
705.10	388.53
705.23	365.12
>>>>>End Processed Spectral Data<<<<<
