SpectraSuite Data File
++++++++++++++++++++++++++++++++++++
Date: Fri Oct 04 11:42:19 GMT-05:00 2013
User: price-jones
Dark Spectrum Present: No
Reference Spectrum Present: No
Number of Sampled Component Spectra: 1
Spectrometers: USB2+H05261
Integration Time (usec): 100000 (USB2+H05261)
Spectra Averaged: 1 (USB2+H05261)
Boxcar Smoothing: 0 (USB2+H05261)
Correct for Electrical Dark: No (USB2+H05261)
Strobe/Lamp Enabled: No (USB2+H05261)
Correct for Detector Non-linearity: No (USB2+H05261)
Correct for Stray Light: No (USB2+H05261)
Number of Pixels in Processed Spectrum: 2048
>>>>>Begin Processed Spectral Data<<<<<
365.73	63.19
365.92	63.19
366.12	63.19
366.32	0.00
366.52	0.00
366.72	0.00
366.91	0.00
367.11	0.00
367.31	0.00
367.51	0.00
367.70	0.00
367.90	0.00
368.10	0.00
368.30	0.00
368.49	0.00
368.69	0.00
368.89	0.00
369.09	0.00
369.28	0.00
369.48	0.00
369.68	0.00
369.87	0.00
370.07	14.04
370.27	0.00
370.47	0.00
370.66	32.77
370.86	32.77
371.06	23.41
371.25	79.58
371.45	35.11
371.65	11.70
371.84	88.94
372.04	86.60
372.24	98.30
372.44	77.24
372.63	102.98
372.83	159.16
373.03	147.45
373.22	93.62
373.42	84.26
373.62	98.30
373.81	63.19
374.01	154.48
374.21	210.65
374.40	140.43
374.60	145.11
374.79	126.39
374.99	124.05
375.19	175.54
375.38	194.26
375.58	124.05
375.78	133.41
375.97	72.56
376.17	187.24
376.37	88.94
376.56	152.13
376.76	102.98
376.95	131.07
377.15	163.84
377.35	156.82
377.54	142.77
377.74	133.41
377.93	86.60
378.13	119.37
378.33	114.69
378.52	102.98
378.72	91.28
378.91	91.28
379.11	133.41
379.31	51.49
379.50	93.62
379.70	198.95
379.89	131.07
380.09	121.71
380.28	67.88
380.48	95.96
380.68	44.47
380.87	46.81
381.07	107.66
381.26	70.22
381.46	110.01
381.65	154.48
381.85	119.37
382.04	117.03
382.24	77.24
382.43	126.39
382.63	107.66
382.83	107.66
383.02	138.09
383.22	159.16
383.41	100.64
383.61	170.86
383.80	135.75
384.00	117.03
384.19	117.03
384.39	121.71
384.58	39.79
384.78	128.73
384.97	128.73
385.17	124.05
385.36	107.66
385.56	105.32
385.75	60.85
385.95	131.07
386.14	177.88
386.34	46.81
386.53	86.60
386.72	93.62
386.92	140.43
387.11	44.47
387.31	98.30
387.50	84.26
387.70	173.20
387.89	210.65
388.09	131.07
388.28	105.32
388.48	98.30
388.67	149.79
388.86	124.05
389.06	196.60
389.25	70.22
389.45	135.75
389.64	140.43
389.84	98.30
390.03	114.69
390.22	121.71
390.42	119.37
390.61	88.94
390.81	124.05
391.00	77.24
391.19	163.84
391.39	91.28
391.58	117.03
391.78	98.30
391.97	79.58
392.16	117.03
392.36	161.50
392.55	142.77
392.75	98.30
392.94	119.37
393.13	154.48
393.33	74.90
393.52	135.75
393.71	124.05
393.91	159.16
394.10	112.35
394.29	107.66
394.49	135.75
394.68	121.71
394.88	145.11
395.07	147.45
395.26	166.18
395.46	51.49
395.65	114.69
395.84	79.58
396.04	156.82
396.23	140.43
396.42	131.07
396.62	205.97
396.81	95.96
397.00	56.17
397.19	105.32
397.39	79.58
397.58	161.50
397.77	147.45
397.97	147.45
398.16	168.52
398.35	161.50
398.55	119.37
398.74	98.30
398.93	154.48
399.12	84.26
399.32	67.88
399.51	117.03
399.70	102.98
399.90	124.05
400.09	154.48
400.28	189.58
400.47	128.73
400.67	173.20
400.86	133.41
401.05	107.66
401.24	138.09
401.44	159.16
401.63	98.30
401.82	159.16
402.01	107.66
402.21	133.41
402.40	191.92
402.59	93.62
402.78	203.63
402.97	205.97
403.17	205.97
403.36	255.12
403.55	287.89
403.74	482.15
403.93	1666.46
404.13	3375.05
404.32	4215.30
404.51	3391.44
404.70	1959.03
404.89	793.44
405.09	327.68
405.28	205.97
405.47	147.45
405.66	163.84
405.85	126.39
406.05	189.58
406.24	234.05
406.43	173.20
406.62	142.77
406.81	175.54
407.00	341.72
407.20	484.49
407.39	725.57
407.58	543.00
407.77	423.64
407.96	297.25
408.15	161.50
408.34	262.14
408.54	154.48
408.73	70.22
408.92	154.48
409.11	147.45
409.30	170.86
409.49	231.71
409.68	163.84
409.87	170.86
410.07	133.41
410.26	187.24
410.45	198.95
410.64	53.83
410.83	234.05
411.02	201.29
411.21	252.78
411.40	154.48
411.59	175.54
411.78	203.63
411.98	166.18
412.17	236.39
412.36	170.86
412.55	159.16
412.74	220.01
412.93	229.37
413.12	124.05
413.31	255.12
413.50	234.05
413.69	215.33
413.88	250.44
414.07	196.60
414.26	145.11
414.45	173.20
414.64	184.90
414.83	217.67
415.02	187.24
415.22	229.37
415.41	201.29
415.60	140.43
415.79	159.16
415.98	208.31
416.17	224.69
416.36	229.37
416.55	166.18
416.74	252.78
416.93	306.61
417.12	182.56
417.31	187.24
417.50	234.05
417.69	280.86
417.88	243.42
418.07	142.77
418.26	236.39
418.45	201.29
418.64	252.78
418.83	259.80
419.02	224.69
419.21	222.35
419.39	250.44
419.58	173.20
419.77	198.95
419.96	264.48
420.15	224.69
420.34	194.26
420.53	229.37
420.72	308.95
420.91	245.76
421.10	231.71
421.29	177.88
421.48	189.58
421.67	210.65
421.86	189.58
422.05	266.82
422.24	177.88
422.43	215.33
422.61	198.95
422.80	238.73
422.99	294.91
423.18	205.97
423.37	337.04
423.56	266.82
423.75	259.80
423.94	243.42
424.13	215.33
424.32	262.14
424.50	271.50
424.69	250.44
424.88	266.82
425.07	159.16
425.26	229.37
425.45	212.99
425.64	294.91
425.83	248.10
426.01	243.42
426.20	255.12
426.39	252.78
426.58	142.77
426.77	269.16
426.96	264.48
427.15	264.48
427.33	276.18
427.52	266.82
427.71	201.29
427.90	220.01
428.09	283.20
428.28	306.61
428.46	304.27
428.65	262.14
428.84	306.61
429.03	264.48
429.22	318.31
429.40	250.44
429.59	280.86
429.78	276.18
429.97	250.44
430.16	173.20
430.34	255.12
430.53	191.92
430.72	250.44
430.91	301.93
431.10	266.82
431.28	236.39
431.47	276.18
431.66	351.08
431.85	290.23
432.03	287.89
432.22	365.12
432.41	292.57
432.60	353.42
432.79	304.27
432.97	353.42
433.16	402.57
433.35	402.57
433.54	411.93
433.72	404.91
433.91	402.57
434.10	521.94
434.28	566.41
434.47	638.97
434.66	667.05
434.85	882.38
435.03	2677.57
435.22	9411.29
435.41	18602.58
435.59	17130.38
435.78	11000.52
435.97	5420.68
436.16	2186.06
436.34	856.64
436.53	601.52
436.72	521.94
436.90	433.00
437.09	397.89
437.28	358.10
437.46	433.00
437.65	341.72
437.84	362.78
438.02	346.40
438.21	362.78
438.40	325.33
438.58	299.59
438.77	308.95
438.96	351.08
439.14	276.18
439.33	339.38
439.52	250.44
439.70	285.55
439.89	393.21
440.08	313.63
440.26	330.02
440.45	353.42
440.63	374.49
440.82	353.42
441.01	379.17
441.19	334.70
441.38	332.36
441.57	332.36
441.75	397.89
441.94	440.02
442.12	306.61
442.31	315.97
442.50	285.55
442.68	334.70
442.87	332.36
443.05	334.70
443.24	381.51
443.43	290.23
443.61	315.97
443.80	334.70
443.98	362.78
444.17	407.25
444.35	355.76
444.54	322.99
444.73	320.65
444.91	353.42
445.10	299.59
445.28	308.95
445.47	428.32
445.65	346.40
445.84	355.76
446.02	269.16
446.21	320.65
446.39	290.23
446.58	339.38
446.77	362.78
446.95	241.08
447.14	414.27
447.32	353.42
447.51	297.25
447.69	346.40
447.88	353.42
448.06	407.25
448.25	348.74
448.43	318.31
448.62	346.40
448.80	299.59
448.99	330.02
449.17	313.63
449.36	337.04
449.54	449.38
449.73	304.27
449.91	379.17
450.10	362.78
450.28	386.19
450.46	386.19
450.65	285.55
450.83	348.74
451.02	315.97
451.20	351.08
451.39	292.57
451.57	266.82
451.76	332.36
451.94	306.61
452.13	388.53
452.31	339.38
452.49	348.74
452.68	360.44
452.86	369.80
453.05	402.57
453.23	227.03
453.42	315.97
453.60	301.93
453.78	297.25
453.97	287.89
454.15	276.18
454.34	306.61
454.52	339.38
454.70	299.59
454.89	339.38
455.07	320.65
455.26	322.99
455.44	294.91
455.62	334.70
455.81	299.59
455.99	358.10
456.17	273.84
456.36	234.05
456.54	231.71
456.73	369.80
456.91	292.57
457.09	313.63
457.28	400.23
457.46	346.40
457.64	353.42
457.83	297.25
458.01	304.27
458.19	393.21
458.38	360.44
458.56	362.78
458.74	313.63
458.93	278.52
459.11	290.23
459.29	297.25
459.48	395.55
459.66	355.76
459.84	311.29
460.03	348.74
460.21	353.42
460.39	346.40
460.57	369.80
460.76	243.42
460.94	271.50
461.12	330.02
461.31	386.19
461.49	313.63
461.67	318.31
461.85	367.46
462.04	308.95
462.22	404.91
462.40	365.12
462.59	369.80
462.77	257.46
462.95	318.31
463.13	358.10
463.32	372.15
463.50	301.93
463.68	360.44
463.86	285.55
464.05	250.44
464.23	290.23
464.41	308.95
464.59	381.51
464.78	369.80
464.96	208.31
465.14	245.76
465.32	325.33
465.50	304.27
465.69	271.50
465.87	264.48
466.05	299.59
466.23	318.31
466.41	327.68
466.60	411.93
466.78	238.73
466.96	276.18
467.14	341.72
467.32	339.38
467.51	346.40
467.69	292.57
467.87	369.80
468.05	276.18
468.23	367.46
468.41	269.16
468.60	292.57
468.78	283.20
468.96	351.08
469.14	294.91
469.32	339.38
469.50	276.18
469.69	299.59
469.87	334.70
470.05	374.49
470.23	297.25
470.41	287.89
470.59	278.52
470.77	297.25
470.95	332.36
471.14	339.38
471.32	255.12
471.50	318.31
471.68	255.12
471.86	301.93
472.04	327.68
472.22	327.68
472.40	304.27
472.58	351.08
472.77	278.52
472.95	358.10
473.13	313.63
473.31	327.68
473.49	252.78
473.67	290.23
473.85	355.76
474.03	386.19
474.21	283.20
474.39	346.40
474.57	365.12
474.75	334.70
474.93	383.85
475.12	381.51
475.30	318.31
475.48	332.36
475.66	355.76
475.84	346.40
476.02	311.29
476.20	379.17
476.38	318.31
476.56	463.43
476.74	292.57
476.92	311.29
477.10	278.52
477.28	337.04
477.46	332.36
477.64	262.14
477.82	318.31
478.00	416.62
478.18	355.76
478.36	337.04
478.54	365.12
478.72	365.12
478.90	358.10
479.08	402.57
479.26	318.31
479.44	348.74
479.62	358.10
479.80	379.17
479.98	362.78
480.16	444.70
480.34	461.09
480.52	411.93
480.70	498.53
480.88	360.44
481.06	461.09
481.24	484.49
481.41	566.41
481.59	500.87
481.77	582.79
481.95	580.45
482.13	634.29
482.31	695.14
482.49	702.16
482.67	737.27
482.85	746.63
483.03	863.66
483.21	858.98
483.39	997.07
483.57	1025.15
483.74	1064.94
483.92	1121.12
484.10	1048.56
484.28	1252.19
484.46	1345.81
484.64	1348.15
484.82	1411.34
485.00	1486.24
485.18	1610.29
485.35	1577.52
485.53	1673.48
485.71	1722.63
485.89	1827.96
486.07	1769.44
486.25	1905.20
486.43	1834.98
486.61	1916.90
486.78	1944.99
486.96	1905.20
487.14	1952.01
487.32	1949.67
487.50	1895.83
487.68	1881.79
487.85	1832.64
488.03	1893.49
488.21	1792.85
488.39	1671.14
488.57	1706.25
488.75	1687.53
488.92	1884.13
489.10	1610.29
489.28	1582.20
489.46	1537.73
489.64	1563.48
489.81	1561.14
489.99	1434.75
490.17	1476.88
490.35	1563.48
490.53	1448.79
490.70	1448.79
490.88	1432.41
491.06	1589.22
491.24	1561.14
491.41	1610.29
491.59	1549.43
491.77	1380.92
491.95	1448.79
492.13	1303.68
492.30	1380.92
492.48	1263.89
492.66	1252.19
492.84	1200.69
493.01	1226.44
493.19	1219.42
493.37	1242.82
493.54	1263.89
493.72	1179.63
493.90	1226.44
494.08	1174.95
494.25	1153.88
494.43	1184.31
494.61	1022.81
494.79	1181.97
494.96	1025.15
495.14	1151.54
495.32	1076.65
495.49	1020.47
495.67	1086.01
495.85	997.07
496.02	954.94
496.20	1081.33
496.38	1015.79
496.55	1004.09
496.73	1043.88
496.91	933.87
497.09	945.58
497.26	863.66
497.44	938.55
497.62	861.32
497.79	922.17
497.97	833.23
498.14	908.13
498.32	870.68
498.50	889.40
498.67	753.65
498.85	702.16
499.03	713.86
499.20	727.91
499.38	711.52
499.56	765.36
499.73	791.10
499.91	770.04
500.08	741.95
500.26	660.03
500.44	587.47
500.61	641.31
500.79	596.84
500.97	655.35
501.14	613.22
501.32	634.29
501.49	557.05
501.67	517.26
501.84	503.22
502.02	559.39
502.20	578.11
502.37	578.11
502.55	486.83
502.72	601.52
502.90	482.15
503.07	519.60
503.25	564.07
503.43	512.58
503.60	554.71
503.78	472.79
503.95	447.04
504.13	433.00
504.30	418.96
504.48	430.66
504.65	447.04
504.83	475.13
505.01	421.30
505.18	479.81
505.36	397.89
505.53	418.96
505.71	379.17
505.88	425.98
506.06	465.77
506.23	425.98
506.41	425.98
506.58	395.55
506.76	421.30
506.93	393.21
507.11	407.25
507.28	367.46
507.46	360.44
507.63	358.10
507.81	341.72
507.98	360.44
508.16	376.83
508.33	425.98
508.50	458.74
508.68	395.55
508.85	365.12
509.03	367.46
509.20	404.91
509.38	423.64
509.55	440.02
509.73	339.38
509.90	402.57
510.08	346.40
510.25	393.21
510.42	409.59
510.60	341.72
510.77	287.89
510.95	404.91
511.12	393.21
511.30	353.42
511.47	292.57
511.64	444.70
511.82	404.91
511.99	341.72
512.17	365.12
512.34	376.83
512.51	339.38
512.69	287.89
512.86	351.08
513.04	322.99
513.21	322.99
513.38	290.23
513.56	346.40
513.73	341.72
513.90	308.95
514.08	344.06
514.25	297.25
514.43	322.99
514.60	327.68
514.77	301.93
514.95	276.18
515.12	311.29
515.29	231.71
515.47	294.91
515.64	287.89
515.81	358.10
515.99	383.85
516.16	313.63
516.33	376.83
516.51	250.44
516.68	313.63
516.85	283.20
517.03	313.63
517.20	369.80
517.37	299.59
517.54	276.18
517.72	262.14
517.89	290.23
518.06	290.23
518.24	318.31
518.41	320.65
518.58	381.51
518.75	271.50
518.93	297.25
519.10	297.25
519.27	325.33
519.45	299.59
519.62	241.08
519.79	280.86
519.96	304.27
520.14	365.12
520.31	322.99
520.48	266.82
520.65	315.97
520.83	315.97
521.00	346.40
521.17	306.61
521.34	330.02
521.52	339.38
521.69	308.95
521.86	376.83
522.03	330.02
522.20	447.04
522.38	374.49
522.55	259.80
522.72	322.99
522.89	332.36
523.07	367.46
523.24	262.14
523.41	381.51
523.58	400.23
523.75	273.84
523.92	360.44
524.10	341.72
524.27	308.95
524.44	308.95
524.61	393.21
524.78	252.78
524.96	416.62
525.13	311.29
525.30	362.78
525.47	358.10
525.64	395.55
525.81	365.12
525.98	308.95
526.16	276.18
526.33	355.76
526.50	344.06
526.67	355.76
526.84	308.95
527.01	372.15
527.18	339.38
527.36	400.23
527.53	381.51
527.70	362.78
527.87	360.44
528.04	430.66
528.21	344.06
528.38	346.40
528.55	423.64
528.72	397.89
528.89	475.13
529.07	353.42
529.24	449.38
529.41	341.72
529.58	428.32
529.75	379.17
529.92	400.23
530.09	372.15
530.26	528.96
530.43	437.68
530.60	461.09
530.77	433.00
530.94	447.04
531.11	374.49
531.28	498.53
531.46	477.47
531.63	486.83
531.80	482.15
531.97	496.19
532.14	561.73
532.31	615.56
532.48	788.76
532.65	751.31
532.82	814.51
532.99	1053.24
533.16	1088.35
533.33	1221.76
533.50	1093.03
533.67	912.81
533.84	849.61
534.01	802.80
534.18	746.63
534.35	744.29
534.52	826.21
534.69	793.44
534.86	795.78
535.03	814.51
535.20	816.85
535.37	875.36
535.54	889.40
535.71	971.32
535.88	992.39
536.05	1020.47
536.22	1158.57
536.38	1245.16
536.55	1324.74
536.72	1488.58
536.89	1558.80
537.06	1870.09
537.23	1902.86
537.40	2111.16
537.57	2251.60
537.74	2324.15
537.91	2422.45
538.08	2525.44
538.25	2459.90
538.42	2567.57
538.59	2576.93
538.75	2768.85
538.92	2939.71
539.09	3021.63
539.26	3368.03
539.43	3887.63
539.60	4320.63
539.77	4966.62
539.94	5334.08
540.11	5706.23
540.28	6394.34
540.44	6944.37
540.61	7644.19
540.78	8994.68
540.95	11157.33
541.12	12879.97
541.29	14380.25
541.46	14794.53
541.62	14677.50
541.79	14066.62
541.96	12762.94
542.13	12030.35
542.30	11178.40
542.47	10530.07
542.63	10113.45
542.80	9694.50
542.97	9762.37
543.14	9764.72
543.31	9671.09
543.48	9731.95
543.64	9895.78
543.81	9982.38
543.98	9851.31
544.15	10197.71
544.32	10087.71
544.48	10141.54
544.65	9942.60
544.82	9877.06
544.99	9839.61
545.16	10193.03
545.32	10927.96
545.49	20262.02
545.66	35786.79
545.83	40568.51
546.00	33174.75
546.16	22916.19
546.33	16933.78
546.50	12865.92
546.67	10071.33
546.83	9015.74
547.00	8762.97
547.17	8119.32
547.34	7812.71
547.50	7431.20
547.67	7314.17
547.84	7056.72
548.00	6787.55
548.17	6417.75
548.34	6272.64
548.51	5919.21
548.67	5942.62
548.84	5495.58
549.01	5263.86
549.18	5022.79
549.34	4725.54
549.51	4730.22
549.68	4414.25
549.84	4325.31
550.01	4124.02
550.18	4095.94
550.34	3805.71
550.51	3620.81
550.68	3510.80
550.84	3361.01
551.01	3192.49
551.18	2956.10
551.34	2813.32
551.51	2738.43
551.68	2576.93
551.84	2661.19
552.01	2466.92
552.18	2356.92
552.34	2277.34
552.51	2174.36
552.68	2043.29
552.84	2054.99
553.01	1919.24
553.18	1806.89
553.34	1858.39
553.51	1732.00
553.67	1748.38
553.84	1633.69
554.01	1540.07
554.17	1493.26
554.34	1458.15
554.51	1404.32
554.67	1254.53
554.84	1179.63
555.00	1144.52
555.17	1111.75
555.33	1053.24
555.50	1001.75
555.67	971.32
555.83	847.27
556.00	929.19
556.16	1001.75
556.33	887.06
556.50	844.93
556.66	882.38
556.83	744.29
556.99	767.70
557.16	844.93
557.32	767.70
557.49	716.20
557.65	587.47
557.82	695.14
557.98	596.84
558.15	648.33
558.32	606.20
558.48	587.47
558.65	617.90
558.81	585.13
558.98	538.32
559.14	587.47
559.31	557.05
559.47	608.54
559.64	580.45
559.80	601.52
559.97	540.66
560.13	568.75
560.30	484.49
560.46	531.30
560.63	561.73
560.79	622.58
560.96	470.45
561.12	470.45
561.29	599.18
561.45	491.51
561.61	519.60
561.78	655.35
561.94	444.70
562.11	557.05
562.27	601.52
562.44	559.39
562.60	603.86
562.77	543.00
562.93	587.47
563.10	454.06
563.26	531.30
563.42	543.00
563.59	484.49
563.75	430.66
563.92	440.02
564.08	510.24
564.24	538.32
564.41	561.73
564.57	437.68
564.74	390.87
564.90	425.98
565.07	447.04
565.23	472.79
565.39	442.36
565.56	449.38
565.72	402.57
565.88	486.83
566.05	449.38
566.21	425.98
566.38	444.70
566.54	493.85
566.70	451.72
566.87	433.00
567.03	365.12
567.19	407.25
567.36	447.04
567.52	447.04
567.68	479.81
567.85	510.24
568.01	533.64
568.17	407.25
568.34	428.32
568.50	458.74
568.66	418.96
568.83	561.73
568.99	557.05
569.15	409.59
569.32	442.36
569.48	372.15
569.64	376.83
569.81	440.02
569.97	411.93
570.13	386.19
570.30	418.96
570.46	355.76
570.62	388.53
570.78	383.85
570.95	299.59
571.11	369.80
571.27	365.12
571.43	374.49
571.60	493.85
571.76	365.12
571.92	325.33
572.09	315.97
572.25	337.04
572.41	353.42
572.57	379.17
572.74	395.55
572.90	395.55
573.06	297.25
573.22	409.59
573.38	428.32
573.55	381.51
573.71	454.06
573.87	355.76
574.03	367.46
574.20	486.83
574.36	449.38
574.52	433.00
574.68	505.56
574.84	468.11
575.01	510.24
575.17	554.71
575.33	512.58
575.49	491.51
575.65	543.00
575.82	545.34
575.98	650.67
576.14	692.80
576.30	1551.78
576.46	4540.64
576.62	6480.94
576.79	6785.21
576.95	4657.67
577.11	3159.72
577.27	2429.48
577.43	1643.06
577.59	1149.20
577.75	908.13
577.92	873.02
578.08	823.87
578.24	917.49
578.40	1542.41
578.56	4198.92
578.72	6106.46
578.88	6424.77
579.04	4709.16
579.21	3211.22
579.37	2487.99
579.53	2108.82
579.69	2036.27
579.85	2462.24
580.01	2719.70
580.17	2497.35
580.33	2155.63
580.49	1935.62
580.65	1715.61
580.82	1610.29
580.98	1537.73
581.14	1551.78
581.30	1664.12
581.46	1746.04
581.62	2038.61
581.78	2094.78
581.94	2214.15
582.10	2228.19
582.26	2466.92
582.42	2415.43
582.58	2572.25
582.74	2464.58
582.90	2597.99
583.06	2686.94
583.22	2609.70
583.38	2499.69
583.54	2602.68
583.70	2558.21
583.86	2602.68
584.02	2509.05
584.18	2487.99
584.34	2406.07
584.50	2347.56
584.66	2464.58
584.82	2326.49
584.98	2326.49
585.14	2242.23
585.30	2275.00
585.46	2143.93
585.62	2267.98
585.78	2270.32
585.94	2157.97
586.10	2174.36
586.26	2366.28
586.42	2792.26
586.58	3325.90
586.74	3941.46
586.90	4533.62
587.06	4908.10
587.22	4683.41
587.38	4334.67
587.54	3836.14
587.70	3150.36
587.86	2696.30
588.02	2289.04
588.18	2015.20
588.34	1842.00
588.49	1832.64
588.65	1790.51
588.81	1631.35
588.97	1533.05
589.13	1444.11
589.29	1495.60
589.45	1521.35
589.61	1364.53
589.77	1500.28
589.93	1467.52
590.08	1474.54
590.24	1556.46
590.40	1687.53
590.56	1682.85
590.72	1696.89
590.88	1673.48
591.04	1755.40
591.20	1818.60
591.35	1996.48
591.51	2059.67
591.67	1970.73
591.83	2181.38
591.99	2375.64
592.15	2658.85
592.31	2808.64
592.46	2998.23
592.62	3372.71
592.78	3307.18
592.94	3599.74
593.10	3478.04
593.26	3368.03
593.41	3136.32
593.57	2719.70
593.73	2513.74
593.89	2275.00
594.05	2012.86
594.20	1689.87
594.36	1694.55
594.52	1530.71
594.68	1551.78
594.84	1444.11
594.99	1432.41
595.15	1331.76
595.31	1390.28
595.47	1404.32
595.62	1441.77
595.78	1406.66
595.94	1355.17
596.10	1376.24
596.25	1273.25
596.41	1369.21
596.57	1345.81
596.73	1399.64
596.88	1299.00
597.04	1313.04
597.20	1336.45
597.36	1446.45
597.51	1359.85
597.67	1486.24
597.83	1495.60
597.99	1636.03
598.14	1774.13
598.30	1790.51
598.46	1816.26
598.61	2026.90
598.77	1989.46
598.93	2150.95
599.09	2160.31
599.24	2125.21
599.40	2080.74
599.56	2057.33
599.71	2010.52
599.87	1853.70
600.03	1743.70
600.18	1694.55
600.34	1528.37
600.50	1432.41
600.65	1394.96
600.81	1289.64
600.97	1263.89
601.12	1261.55
601.28	1193.67
601.44	1083.67
601.59	1025.15
601.75	966.64
601.91	940.90
602.06	990.05
602.22	1013.45
602.37	887.06
602.53	903.45
602.69	957.28
602.84	940.90
603.00	950.26
603.16	1001.75
603.31	959.62
603.47	933.87
603.62	985.37
603.78	910.47
603.94	957.28
604.09	1121.12
604.25	1025.15
604.40	1196.01
604.56	1104.73
604.71	1090.69
604.87	1071.97
605.03	1090.69
605.18	1179.63
605.34	1146.86
605.49	1160.91
605.65	1200.69
605.80	1200.69
605.96	1214.74
606.12	1385.60
606.27	1352.83
606.43	1376.24
606.58	1418.36
606.74	1521.35
606.89	1556.46
607.05	1633.69
607.20	1692.21
607.36	1884.13
607.51	1912.22
607.67	2012.86
607.82	2228.19
607.98	2265.64
608.13	2450.54
608.29	2654.17
608.44	2892.90
608.60	3173.77
608.75	3438.25
608.91	3698.05
609.06	4119.34
609.22	4418.93
609.37	4863.63
609.53	5535.37
609.68	6209.44
609.84	7183.10
609.99	8496.14
610.15	10244.52
610.30	12156.74
610.46	15566.90
610.61	20531.18
610.76	25591.42
610.92	30412.92
611.07	34038.41
611.23	33937.77
611.38	32077.04
611.54	28439.85
611.69	24107.52
611.84	19896.89
612.00	16725.47
612.15	14005.77
612.31	12252.70
612.46	11290.74
612.62	10338.15
612.77	9980.04
612.92	9401.93
613.08	8971.27
613.23	8454.02
613.39	7953.14
613.54	7859.52
613.69	7602.06
613.85	7637.17
614.00	7538.87
614.15	7571.63
614.31	7279.07
614.46	7241.62
614.62	6909.26
614.77	6614.35
614.92	6132.20
615.08	5926.24
615.23	5186.63
615.38	4999.38
615.54	4660.01
615.69	4198.92
615.84	4065.51
616.00	3559.95
616.15	3330.58
616.30	3080.14
616.46	2967.80
616.61	2665.87
616.76	2738.43
616.92	2534.80
617.07	2260.96
617.22	2258.62
617.37	2174.36
617.53	2010.52
617.68	1937.96
617.83	1909.88
617.99	1912.22
618.14	1888.81
618.29	1811.57
618.45	1774.13
618.60	1638.38
618.75	1732.00
618.90	1675.82
619.06	1680.50
619.21	1685.19
619.36	1659.44
619.51	1682.85
619.67	1760.08
619.82	1694.55
619.97	1743.70
620.12	1689.87
620.28	1839.66
620.43	1860.73
620.58	1860.73
620.73	1909.88
620.89	1949.67
621.04	1785.83
621.19	1762.42
621.34	1783.49
621.49	1809.23
621.65	1834.98
621.80	1762.42
621.95	1654.76
622.10	1732.00
622.25	1720.29
622.41	1732.00
622.56	1830.30
622.71	1902.86
622.86	1842.00
623.01	1912.22
623.16	1905.20
623.32	1893.49
623.47	1865.41
623.62	1912.22
623.77	1909.88
623.92	1909.88
624.07	1919.24
624.23	1919.24
624.38	1998.82
624.53	1898.17
624.68	1949.67
624.83	2045.63
624.98	1973.07
625.13	1884.13
625.29	1966.05
625.44	2005.84
625.59	1888.81
625.74	1912.22
625.89	1970.73
626.04	1926.26
626.19	1895.83
626.34	1935.62
626.49	1863.07
626.65	1895.83
626.80	1858.39
626.95	1823.28
627.10	1790.51
627.25	1811.57
627.40	1760.08
627.55	1778.81
627.70	1795.19
627.85	1755.40
628.00	1664.12
628.15	1753.06
628.30	1753.06
628.45	1799.87
628.60	1774.13
628.76	1739.02
628.91	1617.31
629.06	1760.08
629.21	1790.51
629.36	1881.79
629.51	1923.92
629.66	2024.56
629.81	2172.02
629.96	2270.32
630.11	2420.11
630.26	2747.79
630.41	3035.67
630.56	3258.03
630.71	3569.32
630.86	3826.78
631.01	3581.02
631.16	3185.47
631.31	2930.35
631.46	2572.25
631.61	2228.19
631.76	1849.02
631.91	1572.84
632.06	1430.07
632.21	1151.54
632.36	1083.67
632.51	947.92
632.66	877.70
632.81	697.48
632.96	732.59
633.10	798.12
633.25	723.23
633.40	800.46
633.55	662.37
633.70	664.71
633.85	685.78
634.00	557.05
634.15	713.86
634.30	631.94
634.45	561.73
634.60	599.18
634.75	554.71
634.90	608.54
635.05	585.13
635.19	510.24
635.34	512.58
635.49	557.05
635.64	540.66
635.79	564.07
635.94	461.09
636.09	531.30
636.24	519.60
636.39	559.39
636.53	582.79
636.68	475.13
636.83	514.92
636.98	538.32
637.13	465.77
637.28	491.51
637.43	470.45
637.57	514.92
637.72	489.17
637.87	543.00
638.02	435.34
638.17	465.77
638.32	416.62
638.46	355.76
638.61	386.19
638.76	475.13
638.91	449.38
639.06	470.45
639.20	512.58
639.35	421.30
639.50	374.49
639.65	510.24
639.80	376.83
639.94	435.34
640.09	489.17
640.24	428.32
640.39	416.62
640.54	440.02
640.68	440.02
640.83	447.04
640.98	381.51
641.13	388.53
641.27	454.06
641.42	372.15
641.57	472.79
641.72	409.59
641.86	423.64
642.01	451.72
642.16	433.00
642.31	470.45
642.45	416.62
642.60	386.19
642.75	416.62
642.90	528.96
643.04	421.30
643.19	433.00
643.34	386.19
643.48	407.25
643.63	418.96
643.78	447.04
643.93	440.02
644.07	454.06
644.22	397.89
644.37	381.51
644.51	386.19
644.66	433.00
644.81	435.34
644.95	423.64
645.10	482.15
645.25	433.00
645.39	381.51
645.54	322.99
645.69	433.00
645.83	449.38
645.98	369.80
646.13	383.85
646.27	372.15
646.42	304.27
646.57	395.55
646.71	465.77
646.86	409.59
647.00	395.55
647.15	390.87
647.30	383.85
647.44	346.40
647.59	418.96
647.74	365.12
647.88	381.51
648.03	374.49
648.17	440.02
648.32	339.38
648.47	388.53
648.61	358.10
648.76	365.12
648.90	416.62
649.05	489.17
649.20	491.51
649.34	514.92
649.49	596.84
649.63	606.20
649.78	648.33
649.92	727.91
650.07	945.58
650.21	1118.78
650.36	1121.12
650.51	1025.15
650.65	994.73
650.80	924.51
650.94	908.13
651.09	709.18
651.23	631.94
651.38	627.26
651.52	503.22
651.67	596.84
651.81	510.24
651.96	533.64
652.10	416.62
652.25	444.70
652.39	491.51
652.54	540.66
652.68	491.51
652.83	561.73
652.97	554.71
653.12	655.35
653.26	585.13
653.41	533.64
653.55	521.94
653.70	447.04
653.84	500.87
653.99	430.66
654.13	463.43
654.27	414.27
654.42	353.42
654.56	351.08
654.71	428.32
654.85	393.21
655.00	425.98
655.14	362.78
655.29	351.08
655.43	330.02
655.57	400.23
655.72	369.80
655.86	416.62
656.01	315.97
656.15	325.33
656.30	409.59
656.44	304.27
656.58	369.80
656.73	332.36
656.87	332.36
657.01	339.38
657.16	454.06
657.30	477.47
657.45	451.72
657.59	449.38
657.73	454.06
657.88	395.55
658.02	463.43
658.16	367.46
658.31	376.83
658.45	287.89
658.60	255.12
658.74	322.99
658.88	313.63
659.03	332.36
659.17	276.18
659.31	306.61
659.46	224.69
659.60	243.42
659.74	325.33
659.89	330.02
660.03	353.42
660.17	379.17
660.32	273.84
660.46	262.14
660.60	299.59
660.74	386.19
660.89	360.44
661.03	369.80
661.17	346.40
661.32	374.49
661.46	327.68
661.60	458.74
661.74	538.32
661.89	589.82
662.03	645.99
662.17	660.03
662.31	634.29
662.46	681.10
662.60	655.35
662.74	676.41
662.88	582.79
663.03	454.06
663.17	414.27
663.31	470.45
663.45	395.55
663.60	390.87
663.74	454.06
663.88	372.15
664.02	369.80
664.17	402.57
664.31	315.97
664.45	346.40
664.59	327.68
664.73	330.02
664.88	285.55
665.02	264.48
665.16	344.06
665.30	285.55
665.44	248.10
665.59	367.46
665.73	322.99
665.87	285.55
666.01	299.59
666.15	292.57
666.29	348.74
666.44	290.23
666.58	285.55
666.72	280.86
666.86	255.12
667.00	414.27
667.14	337.04
667.28	376.83
667.43	358.10
667.57	287.89
667.71	292.57
667.85	341.72
667.99	283.20
668.13	311.29
668.27	252.78
668.41	278.52
668.56	280.86
668.70	348.74
668.84	306.61
668.98	217.67
669.12	229.37
669.26	273.84
669.40	358.10
669.54	297.25
669.68	252.78
669.82	259.80
669.96	212.99
670.10	278.52
670.25	290.23
670.39	327.68
670.53	285.55
670.67	271.50
670.81	257.46
670.95	299.59
671.09	255.12
671.23	292.57
671.37	369.80
671.51	287.89
671.65	292.57
671.79	212.99
671.93	290.23
672.07	325.33
672.21	243.42
672.35	238.73
672.49	266.82
672.63	292.57
672.77	280.86
672.91	243.42
673.05	234.05
673.19	290.23
673.33	255.12
673.47	294.91
673.61	297.25
673.75	245.76
673.89	194.26
674.03	196.60
674.17	184.90
674.31	248.10
674.45	184.90
674.59	238.73
674.73	266.82
674.87	243.42
675.01	269.16
675.15	227.03
675.29	259.80
675.43	262.14
675.56	294.91
675.70	278.52
675.84	248.10
675.98	215.33
676.12	238.73
676.26	248.10
676.40	208.31
676.54	294.91
676.68	152.13
676.82	241.08
676.96	175.54
677.10	290.23
677.23	266.82
677.37	255.12
677.51	241.08
677.65	203.63
677.79	208.31
677.93	187.24
678.07	280.86
678.21	203.63
678.34	306.61
678.48	222.35
678.62	269.16
678.76	215.33
678.90	215.33
679.04	201.29
679.18	212.99
679.31	276.18
679.45	229.37
679.59	245.76
679.73	264.48
679.87	154.48
680.00	222.35
680.14	257.46
680.28	241.08
680.42	227.03
680.56	294.91
680.70	262.14
680.83	287.89
680.97	292.57
681.11	217.67
681.25	203.63
681.39	278.52
681.52	248.10
681.66	278.52
681.80	229.37
681.94	227.03
682.07	161.50
682.21	280.86
682.35	248.10
682.49	210.65
682.62	287.89
682.76	180.22
682.90	248.10
683.04	198.95
683.17	262.14
683.31	166.18
683.45	220.01
683.59	301.93
683.72	266.82
683.86	217.67
684.00	133.41
684.13	262.14
684.27	215.33
684.41	241.08
684.55	194.26
684.68	257.46
684.82	259.80
684.96	248.10
685.09	252.78
685.23	166.18
685.37	273.84
685.50	220.01
685.64	236.39
685.78	234.05
685.91	255.12
686.05	332.36
686.19	252.78
686.32	248.10
686.46	358.10
686.60	353.42
686.73	341.72
686.87	266.82
687.01	351.08
687.14	259.80
687.28	365.12
687.42	423.64
687.55	465.77
687.69	449.38
687.82	397.89
687.96	433.00
688.10	442.36
688.23	390.87
688.37	332.36
688.50	390.87
688.64	273.84
688.78	360.44
688.91	330.02
689.05	290.23
689.18	212.99
689.32	278.52
689.46	227.03
689.59	283.20
689.73	229.37
689.86	177.88
690.00	299.59
690.13	215.33
690.27	337.04
690.41	231.71
690.54	269.16
690.68	278.52
690.81	227.03
690.95	173.20
691.08	187.24
691.22	107.66
691.35	149.79
691.49	173.20
691.62	198.95
691.76	126.39
691.89	212.99
692.03	170.86
692.16	168.52
692.30	196.60
692.43	161.50
692.57	198.95
692.70	189.58
692.84	175.54
692.97	250.44
693.11	250.44
693.24	374.49
693.38	245.76
693.51	327.68
693.65	332.36
693.78	306.61
693.92	313.63
694.05	337.04
694.19	259.80
694.32	177.88
694.45	215.33
694.59	229.37
694.72	107.66
694.86	142.77
694.99	238.73
695.13	205.97
695.26	168.52
695.39	161.50
695.53	131.07
695.66	152.13
695.80	210.65
695.93	131.07
696.07	210.65
696.20	177.88
696.33	212.99
696.47	173.20
696.60	156.82
696.73	227.03
696.87	208.31
697.00	212.99
697.14	152.13
697.27	187.24
697.40	222.35
697.54	166.18
697.67	147.45
697.80	152.13
697.94	173.20
698.07	191.92
698.21	189.58
698.34	184.90
698.47	217.67
698.61	161.50
698.74	131.07
698.87	166.18
699.01	177.88
699.14	208.31
699.27	177.88
699.40	301.93
699.54	126.39
699.67	149.79
699.80	138.09
699.94	175.54
700.07	175.54
700.20	138.09
700.34	168.52
700.47	95.96
700.60	198.95
700.73	156.82
700.87	119.37
701.00	168.52
701.13	173.20
701.26	166.18
701.40	102.98
701.53	138.09
701.66	93.62
701.79	189.58
701.93	184.90
702.06	215.33
702.19	140.43
702.32	170.86
702.46	142.77
702.59	65.54
702.72	154.48
702.85	128.73
702.99	117.03
703.12	112.35
703.25	91.28
703.38	131.07
703.51	252.78
703.65	222.35
703.78	231.71
703.91	236.39
704.04	135.75
704.17	196.60
704.31	112.35
704.44	182.56
704.57	145.11
704.70	224.69
704.83	191.92
704.96	222.35
705.10	196.60
705.23	229.37
>>>>>End Processed Spectral Data<<<<<
