SpectraSuite Data File
++++++++++++++++++++++++++++++++++++
Date: Fri Oct 04 11:42:20 GMT-05:00 2013
User: price-jones
Dark Spectrum Present: No
Reference Spectrum Present: No
Number of Sampled Component Spectra: 1
Spectrometers: USB2+H05261
Integration Time (usec): 100000 (USB2+H05261)
Spectra Averaged: 1 (USB2+H05261)
Boxcar Smoothing: 0 (USB2+H05261)
Correct for Electrical Dark: No (USB2+H05261)
Strobe/Lamp Enabled: No (USB2+H05261)
Correct for Detector Non-linearity: No (USB2+H05261)
Correct for Stray Light: No (USB2+H05261)
Number of Pixels in Processed Spectrum: 2048
>>>>>Begin Processed Spectral Data<<<<<
365.73	42.13
365.92	42.13
366.12	42.13
366.32	0.00
366.52	0.00
366.72	4.68
366.91	7.02
367.11	0.00
367.31	0.00
367.51	0.00
367.70	0.00
367.90	0.00
368.10	0.00
368.30	0.00
368.49	0.00
368.69	0.00
368.89	4.68
369.09	0.00
369.28	0.00
369.48	0.00
369.68	0.00
369.87	14.04
370.07	0.00
370.27	23.41
370.47	18.72
370.66	0.00
370.86	53.83
371.06	81.92
371.25	84.26
371.45	86.60
371.65	46.81
371.84	110.01
372.04	56.17
372.24	77.24
372.44	156.82
372.63	112.35
372.83	175.54
373.03	88.94
373.22	86.60
373.42	79.58
373.62	114.69
373.81	131.07
374.01	166.18
374.21	133.41
374.40	182.56
374.60	196.60
374.79	170.86
374.99	117.03
375.19	77.24
375.38	121.71
375.58	161.50
375.78	152.13
375.97	149.79
376.17	133.41
376.37	102.98
376.56	121.71
376.76	51.49
376.95	95.96
377.15	79.58
377.35	105.32
377.54	180.22
377.74	126.39
377.93	147.45
378.13	152.13
378.33	170.86
378.52	154.48
378.72	133.41
378.91	95.96
379.11	58.51
379.31	93.62
379.50	133.41
379.70	156.82
379.89	180.22
380.09	107.66
380.28	142.77
380.48	117.03
380.68	70.22
380.87	152.13
381.07	49.15
381.26	126.39
381.46	124.05
381.65	110.01
381.85	159.16
382.04	112.35
382.24	114.69
382.43	70.22
382.63	117.03
382.83	154.48
383.02	163.84
383.22	117.03
383.41	74.90
383.61	159.16
383.80	77.24
384.00	102.98
384.19	147.45
384.39	114.69
384.58	166.18
384.78	117.03
384.97	77.24
385.17	124.05
385.36	114.69
385.56	95.96
385.75	131.07
385.95	187.24
386.14	126.39
386.34	2.34
386.53	140.43
386.72	46.81
386.92	107.66
387.11	117.03
387.31	102.98
387.50	53.83
387.70	117.03
387.89	187.24
388.09	95.96
388.28	189.58
388.48	105.32
388.67	161.50
388.86	140.43
389.06	58.51
389.25	149.79
389.45	102.98
389.64	70.22
389.84	145.11
390.03	84.26
390.22	168.52
390.42	58.51
390.61	72.56
390.81	117.03
391.00	93.62
391.19	100.64
391.39	102.98
391.58	191.92
391.78	173.20
391.97	112.35
392.16	67.88
392.36	140.43
392.55	86.60
392.75	166.18
392.94	91.28
393.13	175.54
393.33	105.32
393.52	149.79
393.71	126.39
393.91	112.35
394.10	100.64
394.29	107.66
394.49	128.73
394.68	161.50
394.88	124.05
395.07	93.62
395.26	138.09
395.46	86.60
395.65	152.13
395.84	93.62
396.04	152.13
396.23	117.03
396.42	128.73
396.62	70.22
396.81	126.39
397.00	126.39
397.19	161.50
397.39	140.43
397.58	166.18
397.77	117.03
397.97	98.30
398.16	145.11
398.35	112.35
398.55	67.88
398.74	149.79
398.93	37.45
399.12	74.90
399.32	177.88
399.51	170.86
399.70	121.71
399.90	138.09
400.09	114.69
400.28	170.86
400.47	142.77
400.67	138.09
400.86	175.54
401.05	194.26
401.24	86.60
401.44	121.71
401.63	173.20
401.82	189.58
402.01	102.98
402.21	182.56
402.40	168.52
402.59	191.92
402.78	180.22
402.97	161.50
403.17	191.92
403.36	278.52
403.55	245.76
403.74	526.62
403.93	1760.08
404.13	4121.68
404.32	5060.24
404.51	4187.22
404.70	2534.80
404.89	1055.58
405.09	489.17
405.28	177.88
405.47	159.16
405.66	161.50
405.85	210.65
406.05	182.56
406.24	121.71
406.43	131.07
406.62	168.52
406.81	292.57
407.00	322.99
407.20	538.32
407.39	741.95
407.58	716.20
407.77	573.43
407.96	257.46
408.15	222.35
408.34	177.88
408.54	175.54
408.73	163.84
408.92	124.05
409.11	180.22
409.30	138.09
409.49	187.24
409.68	170.86
409.87	180.22
410.07	210.65
410.26	210.65
410.45	72.56
410.64	131.07
410.83	156.82
411.02	224.69
411.21	156.82
411.40	227.03
411.59	229.37
411.78	173.20
411.98	212.99
412.17	147.45
412.36	114.69
412.55	147.45
412.74	145.11
412.93	224.69
413.12	198.95
413.31	154.48
413.50	182.56
413.69	196.60
413.88	220.01
414.07	133.41
414.26	210.65
414.45	154.48
414.64	212.99
414.83	212.99
415.02	234.05
415.22	227.03
415.41	234.05
415.60	217.67
415.79	189.58
415.98	227.03
416.17	203.63
416.36	203.63
416.55	227.03
416.74	194.26
416.93	255.12
417.12	220.01
417.31	257.46
417.50	198.95
417.69	227.03
417.88	236.39
418.07	194.26
418.26	201.29
418.45	205.97
418.64	222.35
418.83	280.86
419.02	194.26
419.21	250.44
419.39	231.71
419.58	142.77
419.77	280.86
419.96	259.80
420.15	271.50
420.34	227.03
420.53	212.99
420.72	124.05
420.91	245.76
421.10	220.01
421.29	292.57
421.48	196.60
421.67	304.27
421.86	241.08
422.05	322.99
422.24	212.99
422.43	269.16
422.61	182.56
422.80	297.25
422.99	248.10
423.18	168.52
423.37	241.08
423.56	231.71
423.75	271.50
423.94	236.39
424.13	273.84
424.32	262.14
424.50	278.52
424.69	299.59
424.88	301.93
425.07	308.95
425.26	257.46
425.45	222.35
425.64	287.89
425.83	276.18
426.01	332.36
426.20	252.78
426.39	276.18
426.58	313.63
426.77	283.20
426.96	341.72
427.15	292.57
427.33	318.31
427.52	269.16
427.71	278.52
427.90	299.59
428.09	283.20
428.28	360.44
428.46	245.76
428.65	313.63
428.84	339.38
429.03	330.02
429.22	341.72
429.40	269.16
429.59	243.42
429.78	360.44
429.97	283.20
430.16	259.80
430.34	285.55
430.53	386.19
430.72	339.38
430.91	320.65
431.10	318.31
431.28	299.59
431.47	362.78
431.66	346.40
431.85	245.76
432.03	285.55
432.22	390.87
432.41	402.57
432.60	409.59
432.79	311.29
432.97	283.20
433.16	344.06
433.35	468.11
433.54	444.70
433.72	458.74
433.91	547.69
434.10	552.37
434.28	727.91
434.47	770.04
434.66	917.49
434.85	1011.11
435.03	2956.10
435.22	10572.20
435.41	22443.40
435.59	22092.32
435.78	14209.39
435.97	7199.49
436.16	2705.66
436.34	1039.20
436.53	636.63
436.72	533.64
436.90	540.66
437.09	418.96
437.28	390.87
437.46	440.02
437.65	339.38
437.84	433.00
438.02	332.36
438.21	456.40
438.40	360.44
438.58	404.91
438.77	372.15
438.96	330.02
439.14	386.19
439.33	388.53
439.52	351.08
439.70	411.93
439.89	416.62
440.08	337.04
440.26	346.40
440.45	451.72
440.63	444.70
440.82	369.80
441.01	365.12
441.19	337.04
441.38	393.21
441.57	360.44
441.75	442.36
441.94	348.74
442.12	372.15
442.31	362.78
442.50	353.42
442.68	423.64
442.87	355.76
443.05	383.85
443.24	334.70
443.43	402.57
443.61	407.25
443.80	344.06
443.98	367.46
444.17	421.30
444.35	435.34
444.54	365.12
444.73	353.42
444.91	365.12
445.10	299.59
445.28	423.64
445.47	334.70
445.65	353.42
445.84	369.80
446.02	362.78
446.21	362.78
446.39	339.38
446.58	341.72
446.77	437.68
446.95	393.21
447.14	311.29
447.32	393.21
447.51	379.17
447.69	414.27
447.88	327.68
448.06	393.21
448.25	379.17
448.43	337.04
448.62	297.25
448.80	369.80
448.99	346.40
449.17	322.99
449.36	379.17
449.54	423.64
449.73	297.25
449.91	425.98
450.10	330.02
450.28	437.68
450.46	444.70
450.65	315.97
450.83	358.10
451.02	393.21
451.20	451.72
451.39	337.04
451.57	393.21
451.76	376.83
451.94	397.89
452.13	379.17
452.31	449.38
452.49	346.40
452.68	320.65
452.86	339.38
453.05	339.38
453.23	383.85
453.42	374.49
453.60	440.02
453.78	388.53
453.97	395.55
454.15	332.36
454.34	421.30
454.52	294.91
454.70	306.61
454.89	433.00
455.07	353.42
455.26	358.10
455.44	442.36
455.62	376.83
455.81	395.55
455.99	362.78
456.17	390.87
456.36	351.08
456.54	421.30
456.73	313.63
456.91	313.63
457.09	360.44
457.28	367.46
457.46	395.55
457.64	447.04
457.83	365.12
458.01	400.23
458.19	308.95
458.38	351.08
458.56	404.91
458.74	383.85
458.93	393.21
459.11	365.12
459.29	395.55
459.48	383.85
459.66	381.51
459.84	374.49
460.03	557.05
460.21	428.32
460.39	294.91
460.57	266.82
460.76	358.10
460.94	339.38
461.12	400.23
461.31	383.85
461.49	362.78
461.67	393.21
461.85	367.46
462.04	346.40
462.22	456.40
462.40	390.87
462.59	386.19
462.77	421.30
462.95	416.62
463.13	358.10
463.32	322.99
463.50	348.74
463.68	411.93
463.86	355.76
464.05	337.04
464.23	339.38
464.41	400.23
464.59	381.51
464.78	414.27
464.96	395.55
465.14	369.80
465.32	360.44
465.50	397.89
465.69	404.91
465.87	344.06
466.05	393.21
466.23	290.23
466.41	440.02
466.60	404.91
466.78	334.70
466.96	451.72
467.14	437.68
467.32	425.98
467.51	416.62
467.69	280.86
467.87	334.70
468.05	325.33
468.23	372.15
468.41	322.99
468.60	353.42
468.78	301.93
468.96	360.44
469.14	383.85
469.32	292.57
469.50	365.12
469.69	297.25
469.87	379.17
470.05	351.08
470.23	362.78
470.41	269.16
470.59	325.33
470.77	301.93
470.95	294.91
471.14	402.57
471.32	271.50
471.50	322.99
471.68	362.78
471.86	346.40
472.04	313.63
472.22	435.34
472.40	344.06
472.58	411.93
472.77	280.86
472.95	346.40
473.13	423.64
473.31	362.78
473.49	374.49
473.67	320.65
473.85	348.74
474.03	341.72
474.21	393.21
474.39	418.96
474.57	374.49
474.75	339.38
474.93	393.21
475.12	346.40
475.30	311.29
475.48	355.76
475.66	400.23
475.84	322.99
476.02	346.40
476.20	285.55
476.38	285.55
476.56	409.59
476.74	400.23
476.92	337.04
477.10	372.15
477.28	341.72
477.46	388.53
477.64	367.46
477.82	362.78
478.00	414.27
478.18	435.34
478.36	365.12
478.54	390.87
478.72	461.09
478.90	388.53
479.08	463.43
479.26	472.79
479.44	482.15
479.62	454.06
479.80	493.85
479.98	503.22
480.16	521.94
480.34	554.71
480.52	414.27
480.70	540.66
480.88	573.43
481.06	603.86
481.24	643.65
481.41	603.86
481.59	664.71
481.77	645.99
481.95	730.25
482.13	795.78
482.31	777.06
482.49	863.66
482.67	851.96
482.85	980.68
483.03	994.73
483.21	1057.92
483.39	1132.82
483.57	1221.76
483.74	1266.23
483.92	1268.57
484.10	1465.18
484.28	1509.65
484.46	1612.63
484.64	1598.59
484.82	1629.01
485.00	1666.46
485.18	1837.32
485.35	1966.05
485.53	2090.10
485.71	2232.87
485.89	2155.63
486.07	2253.94
486.25	2326.49
486.43	2265.64
486.61	2356.92
486.78	2459.90
486.96	2394.37
487.14	2396.71
487.32	2452.88
487.50	2160.31
487.68	2253.94
487.85	2291.38
488.03	2165.00
488.21	2223.51
488.39	2181.38
488.57	2214.15
488.75	2101.80
488.92	2265.64
489.10	2019.88
489.28	1959.03
489.46	1893.49
489.64	1856.04
489.81	1874.77
489.99	1785.83
490.17	1799.87
490.35	1792.85
490.53	1757.74
490.70	1778.81
490.88	1671.14
491.06	1886.47
491.24	1998.82
491.41	1980.09
491.59	1891.15
491.77	1680.50
491.95	1682.85
492.13	1734.34
492.30	1614.97
492.48	1547.09
492.66	1589.22
492.84	1511.99
493.01	1535.39
493.19	1462.83
493.37	1607.95
493.54	1556.46
493.72	1345.81
493.90	1430.07
494.08	1465.18
494.25	1444.11
494.43	1444.11
494.61	1432.41
494.79	1343.47
494.96	1287.29
495.14	1331.76
495.32	1296.66
495.49	1282.61
495.67	1336.45
495.85	1275.59
496.02	1174.95
496.20	1221.76
496.38	1165.59
496.55	1118.78
496.73	1102.39
496.91	1022.81
497.09	1163.25
497.26	1090.69
497.44	966.64
497.62	1041.54
497.79	1146.86
497.97	1022.81
498.14	1025.15
498.32	903.45
498.50	957.28
498.67	987.71
498.85	1015.79
499.03	915.15
499.20	858.98
499.38	894.08
499.56	812.17
499.73	844.93
499.91	795.78
500.08	896.43
500.26	746.63
500.44	697.48
500.61	681.10
500.79	704.50
500.97	720.88
501.14	713.86
501.32	657.69
501.49	692.80
501.67	650.67
501.84	636.63
502.02	589.82
502.20	669.39
502.37	631.94
502.55	552.37
502.72	594.50
502.90	631.94
503.07	634.29
503.25	557.05
503.43	465.77
503.60	622.58
503.78	519.60
503.95	477.47
504.13	524.28
504.30	517.26
504.48	540.66
504.65	454.06
504.83	575.77
505.01	512.58
505.18	414.27
505.36	564.07
505.53	369.80
505.71	458.74
505.88	521.94
506.06	472.79
506.23	407.25
506.41	409.59
506.58	374.49
506.76	414.27
506.93	451.72
507.11	425.98
507.28	418.96
507.46	404.91
507.63	430.66
507.81	353.42
507.98	418.96
508.16	435.34
508.33	402.57
508.50	409.59
508.68	444.70
508.85	505.56
509.03	402.57
509.20	458.74
509.38	404.91
509.55	383.85
509.73	493.85
509.90	346.40
510.08	332.36
510.25	362.78
510.42	351.08
510.60	365.12
510.77	458.74
510.95	388.53
511.12	397.89
511.30	362.78
511.47	330.02
511.64	390.87
511.82	388.53
511.99	423.64
512.17	341.72
512.34	355.76
512.51	351.08
512.69	430.66
512.86	404.91
513.04	437.68
513.21	341.72
513.38	353.42
513.56	365.12
513.73	383.85
513.90	271.50
514.08	304.27
514.25	330.02
514.43	463.43
514.60	308.95
514.77	360.44
514.95	285.55
515.12	315.97
515.29	327.68
515.47	315.97
515.64	358.10
515.81	346.40
515.99	325.33
516.16	355.76
516.33	416.62
516.51	320.65
516.68	337.04
516.85	259.80
517.03	351.08
517.20	402.57
517.37	374.49
517.54	411.93
517.72	238.73
517.89	276.18
518.06	227.03
518.24	362.78
518.41	423.64
518.58	379.17
518.75	306.61
518.93	353.42
519.10	330.02
519.27	308.95
519.45	351.08
519.62	311.29
519.79	372.15
519.96	297.25
520.14	332.36
520.31	402.57
520.48	355.76
520.65	337.04
520.83	376.83
521.00	341.72
521.17	372.15
521.34	348.74
521.52	322.99
521.69	320.65
521.86	341.72
522.03	320.65
522.20	360.44
522.38	271.50
522.55	315.97
522.72	395.55
522.89	337.04
523.07	388.53
523.24	285.55
523.41	299.59
523.58	344.06
523.75	276.18
523.92	292.57
524.10	346.40
524.27	301.93
524.44	273.84
524.61	337.04
524.78	315.97
524.96	346.40
525.13	339.38
525.30	383.85
525.47	369.80
525.64	367.46
525.81	348.74
525.98	292.57
526.16	330.02
526.33	351.08
526.50	351.08
526.67	318.31
526.84	414.27
527.01	397.89
527.18	437.68
527.36	477.47
527.53	433.00
527.70	409.59
527.87	332.36
528.04	500.87
528.21	409.59
528.38	388.53
528.55	369.80
528.72	386.19
528.89	461.09
529.07	454.06
529.24	468.11
529.41	468.11
529.58	428.32
529.75	465.77
529.92	444.70
530.09	503.22
530.26	517.26
530.43	514.92
530.60	468.11
530.77	477.47
530.94	489.17
531.11	531.30
531.28	468.11
531.46	538.32
531.63	463.43
531.80	582.79
531.97	620.24
532.14	641.31
532.31	800.46
532.48	779.40
532.65	931.53
532.82	1060.26
532.99	1252.19
533.16	1488.58
533.33	1348.15
533.50	1299.00
533.67	1062.60
533.84	978.34
534.01	873.02
534.18	947.92
534.35	903.45
534.52	863.66
534.69	966.64
534.86	940.90
535.03	961.96
535.20	1008.77
535.37	1011.11
535.54	1123.46
535.71	1146.86
535.88	1261.55
536.05	1224.10
536.22	1458.15
536.38	1551.78
536.55	1540.07
536.72	1673.48
536.89	1849.02
537.06	2129.89
537.23	2399.05
537.40	2464.58
537.57	2764.17
537.74	2773.53
537.91	3000.57
538.08	3068.44
538.25	3009.93
538.42	3056.74
538.59	3220.58
538.75	3323.56
538.92	3508.46
539.09	3920.40
539.26	4264.46
539.43	4994.70
539.60	5528.35
539.77	6118.16
539.94	6607.33
540.11	7344.60
540.28	7859.52
540.44	8685.73
540.61	9645.35
540.78	11328.19
540.95	13635.96
541.12	16290.13
541.29	17869.99
541.46	18834.29
541.62	18441.08
541.79	17685.09
541.96	16713.77
542.13	15407.75
542.30	14249.18
542.47	13638.30
542.63	12840.18
542.80	12369.73
542.97	12255.04
543.14	11971.84
543.31	12135.68
543.48	12241.00
543.64	12327.60
543.81	12278.45
543.98	12856.56
544.15	12608.47
544.32	12355.69
544.48	12493.78
544.65	12493.78
544.82	12339.30
544.99	12528.89
545.16	12828.48
545.32	13507.23
545.49	23803.25
545.66	44414.01
545.83	50117.89
546.00	43136.07
546.16	30040.78
546.33	22038.48
546.50	16472.69
546.67	13043.81
546.83	11225.21
547.00	10759.44
547.17	10441.13
547.34	9909.83
547.50	9371.50
547.67	9341.08
547.84	8718.50
548.00	8290.18
548.17	8196.56
548.34	7775.26
548.51	7543.55
548.67	7108.21
548.84	7096.50
549.01	6525.41
549.18	6237.53
549.34	6061.99
549.51	5811.55
549.68	5626.65
549.84	5408.98
550.01	5191.31
550.18	4978.32
550.34	4774.69
550.51	4578.09
550.68	4358.08
550.84	4145.09
551.01	3995.29
551.18	3590.38
551.34	3323.56
551.51	3431.23
551.68	3218.24
551.84	3218.24
552.01	3026.31
552.18	2925.67
552.34	2794.60
552.51	2661.19
552.68	2462.24
552.84	2513.74
553.01	2420.11
553.18	2401.39
553.34	2256.28
553.51	2312.45
553.67	2099.46
553.84	2097.12
554.01	1900.52
554.17	1872.43
554.34	1659.44
554.51	1643.06
554.67	1549.43
554.84	1338.79
555.00	1275.59
555.17	1280.27
555.33	1238.14
555.50	1212.40
555.67	1135.16
555.83	1205.38
556.00	1015.79
556.16	1128.14
556.33	1076.65
556.50	947.92
556.66	889.40
556.83	945.58
556.99	828.55
557.16	898.77
557.32	894.08
557.49	802.80
557.65	812.17
557.82	786.42
557.98	819.19
558.15	732.59
558.32	706.84
558.48	706.84
558.65	760.67
558.81	795.78
558.98	638.97
559.14	662.37
559.31	697.48
559.47	660.03
559.64	653.01
559.80	622.58
559.97	631.94
560.13	645.99
560.30	592.16
560.46	681.10
560.63	704.50
560.79	662.37
560.96	634.29
561.12	676.41
561.29	617.90
561.45	606.20
561.61	643.65
561.78	688.12
561.94	629.60
562.11	540.66
562.27	547.69
562.44	617.90
562.60	573.43
562.77	617.90
562.93	653.01
563.10	601.52
563.26	561.73
563.42	631.94
563.59	587.47
563.75	454.06
563.92	510.24
564.08	517.26
564.24	578.11
564.41	587.47
564.57	472.79
564.74	538.32
564.90	601.52
565.07	533.64
565.23	554.71
565.39	561.73
565.56	514.92
565.72	528.96
565.88	561.73
566.05	531.30
566.21	557.05
566.38	512.58
566.54	454.06
566.70	458.74
566.87	545.34
567.03	458.74
567.19	519.60
567.36	500.87
567.52	498.53
567.68	545.34
567.85	538.32
568.01	461.09
568.17	519.60
568.34	552.37
568.50	547.69
568.66	545.34
568.83	571.09
568.99	472.79
569.15	627.26
569.32	447.04
569.48	411.93
569.64	454.06
569.81	442.36
569.97	444.70
570.13	465.77
570.30	414.27
570.46	430.66
570.62	365.12
570.78	416.62
570.95	334.70
571.11	468.11
571.27	428.32
571.43	376.83
571.60	393.21
571.76	355.76
571.92	360.44
572.09	383.85
572.25	362.78
572.41	379.17
572.57	383.85
572.74	442.36
572.90	421.30
573.06	458.74
573.22	344.06
573.38	477.47
573.55	489.17
573.71	461.09
573.87	430.66
574.03	468.11
574.20	486.83
574.36	456.40
574.52	465.77
574.68	496.19
574.84	580.45
575.01	550.03
575.17	603.86
575.33	484.49
575.49	603.86
575.65	582.79
575.82	587.47
575.98	711.52
576.14	873.02
576.30	1666.46
576.46	5151.52
576.62	8241.03
576.79	8982.98
576.95	6211.78
577.11	4032.74
577.27	2839.07
577.43	1930.94
577.59	1310.70
577.75	1067.28
577.92	1025.15
578.08	1039.20
578.24	1041.54
578.40	1809.23
578.56	4971.30
578.72	7899.31
578.88	7995.27
579.04	5970.71
579.21	3904.01
579.37	3110.57
579.53	2408.41
579.69	2401.39
579.85	2953.76
580.01	3428.88
580.17	3098.87
580.33	2759.49
580.49	2305.43
580.65	2193.08
580.82	1937.96
580.98	1888.81
581.14	2008.18
581.30	2062.01
581.46	2157.97
581.62	2448.20
581.78	2436.50
581.94	2745.45
582.10	2810.98
582.26	2923.33
582.42	3082.49
582.58	3211.22
582.74	3166.74
582.90	3201.85
583.06	3265.05
583.22	3311.86
583.38	3302.50
583.54	3180.79
583.70	3070.78
583.86	3096.53
584.02	3222.92
584.18	2993.55
584.34	2960.78
584.50	2984.18
584.66	2913.97
584.82	2780.56
584.98	2876.52
585.14	2825.03
585.30	2757.15
585.46	2656.51
585.62	2700.98
585.78	2745.45
585.94	2740.77
586.10	2906.95
586.26	2923.33
586.42	3433.57
586.58	3918.06
586.74	4786.40
586.90	5666.44
587.06	6195.40
587.22	5944.96
587.38	5355.15
587.54	4685.75
587.70	3939.12
587.86	3396.12
588.02	2958.44
588.18	2597.99
588.34	2452.88
588.49	2143.93
588.65	2064.35
588.81	1940.30
588.97	1912.22
589.13	1795.19
589.29	1818.60
589.45	1769.44
589.61	1713.27
589.77	1823.28
589.93	1832.64
590.08	1977.75
590.24	1797.53
590.40	2029.24
590.56	1989.46
590.72	2134.57
590.88	2062.01
591.04	2186.06
591.20	2286.70
591.35	2246.91
591.51	2513.74
591.67	2553.52
591.83	2693.96
591.99	2928.01
592.15	3232.28
592.31	3424.20
592.46	3719.11
592.62	4102.96
592.78	4241.05
592.94	4304.25
593.10	4493.83
593.26	4210.62
593.41	3789.33
593.57	3494.42
593.73	3030.99
593.89	2782.90
594.05	2445.86
594.20	2165.00
594.36	2015.20
594.52	1886.47
594.68	1865.41
594.84	1708.59
594.99	1811.57
595.15	1596.25
595.31	1619.65
595.47	1694.55
595.62	1678.16
595.78	1614.97
595.94	1584.54
596.10	1781.15
596.25	1657.10
596.41	1610.29
596.57	1577.52
596.73	1579.86
596.88	1666.46
597.04	1631.35
597.20	1540.07
597.36	1729.66
597.51	1659.44
597.67	1717.95
597.83	1851.36
597.99	1947.33
598.14	2031.58
598.30	2225.85
598.46	2307.77
598.61	2363.94
598.77	2436.50
598.93	2579.27
599.09	2616.72
599.24	2834.39
599.40	2738.43
599.56	2548.84
599.71	2380.32
599.87	2296.07
600.03	2064.35
600.18	2052.65
600.34	1928.60
600.50	1858.39
600.65	1659.44
600.81	1610.29
600.97	1479.22
601.12	1455.81
601.28	1458.15
601.44	1362.19
601.59	1308.36
601.75	1228.78
601.91	1259.21
602.06	1217.08
602.22	1210.06
602.37	1144.52
602.53	1102.39
602.69	1203.04
602.84	1076.65
603.00	1088.35
603.16	1203.04
603.31	1186.65
603.47	1142.18
603.62	1191.33
603.78	1207.72
603.94	1226.44
604.09	1301.34
604.25	1219.42
604.40	1327.08
604.56	1275.59
604.71	1348.15
604.87	1338.79
605.03	1338.79
605.18	1394.96
605.34	1446.45
605.49	1416.02
605.65	1462.83
605.80	1425.39
605.96	1521.35
606.12	1652.42
606.27	1598.59
606.43	1717.95
606.58	1696.89
606.74	1907.54
606.89	1961.37
607.05	2029.24
607.20	2162.66
607.36	2328.83
607.51	2373.30
607.67	2387.35
607.82	2700.98
607.98	2839.07
608.13	3143.34
608.29	3311.86
608.44	3606.77
608.60	3882.95
608.75	4308.93
608.91	4606.17
609.06	5025.13
609.22	5547.07
609.37	6176.67
609.53	7002.88
609.68	7655.89
609.84	8870.63
609.99	10403.68
610.15	12198.87
610.30	15042.62
610.46	19140.90
610.61	25116.29
610.76	32137.90
610.92	38431.60
611.07	42679.67
611.23	44091.01
611.38	40919.59
611.54	35742.32
611.69	30909.11
611.84	25858.24
612.00	21544.63
612.15	18270.22
612.31	15845.43
612.46	14003.43
612.62	13289.56
612.77	12318.24
612.92	11749.49
613.08	11101.16
613.23	10569.86
613.39	10148.56
613.54	9980.04
613.69	9696.84
613.85	9570.45
614.00	9841.95
614.15	9427.68
614.31	9350.44
614.46	9004.04
614.62	8919.78
614.77	8458.70
614.92	7889.95
615.08	7414.82
615.23	6729.04
615.38	6125.18
615.54	5699.20
615.69	5261.52
615.84	4765.33
616.00	4404.89
616.15	4004.66
616.30	3887.63
616.46	3513.14
616.61	3604.42
616.76	3330.58
616.92	3218.24
617.07	2958.44
617.22	2724.38
617.37	2705.66
617.53	2534.80
617.68	2478.63
617.83	2333.51
617.99	2438.84
618.14	2289.04
618.29	2235.21
618.45	2193.08
618.60	2111.16
618.75	1998.82
618.90	2057.33
619.06	2083.08
619.21	2047.97
619.36	2118.18
619.51	1989.46
619.67	2054.99
619.82	2022.22
619.97	2125.21
620.12	2141.59
620.28	2111.16
620.43	2148.61
620.58	2279.68
620.73	2136.91
620.89	2120.53
621.04	2256.28
621.19	2202.44
621.34	2008.18
621.49	2071.37
621.65	2148.61
621.80	2165.00
621.95	2120.53
622.10	2150.95
622.25	2078.40
622.41	2181.38
622.56	2127.55
622.71	2183.72
622.86	2296.07
623.01	2293.72
623.16	2406.07
623.32	2202.44
623.47	2431.82
623.62	2352.24
623.77	2387.35
623.92	2324.15
624.07	2303.09
624.23	2408.41
624.38	2312.45
624.53	2232.87
624.68	2354.58
624.83	2471.61
624.98	2331.17
625.13	2394.37
625.29	2399.05
625.44	2422.45
625.59	2539.48
625.74	2389.69
625.89	2502.03
626.04	2434.16
626.19	2373.30
626.34	2485.65
626.49	2450.54
626.65	2260.96
626.80	2305.43
626.95	2286.70
627.10	2321.81
627.25	2246.91
627.40	2204.78
627.55	2160.31
627.70	2136.91
627.85	2188.40
628.00	2181.38
628.15	2132.23
628.30	2132.23
628.45	2202.44
628.60	2062.01
628.76	2176.70
628.91	2106.48
629.06	2218.83
629.21	2202.44
629.36	2277.34
629.51	2415.43
629.66	2511.39
629.81	2675.23
629.96	2860.13
630.11	3152.70
630.26	3433.57
630.41	3943.80
630.56	4219.99
630.71	4517.23
630.86	4550.00
631.01	4526.60
631.16	4053.81
631.31	3737.84
631.46	3246.32
631.61	2670.55
631.76	2335.85
631.91	2024.56
632.06	1666.46
632.21	1465.18
632.36	1242.82
632.51	1137.50
632.66	1053.24
632.81	1048.56
632.96	887.06
633.10	915.15
633.25	844.93
633.40	823.87
633.55	849.61
633.70	732.59
633.85	795.78
634.00	716.20
634.15	751.31
634.30	695.14
634.45	751.31
634.60	739.61
634.75	718.54
634.90	592.16
635.05	695.14
635.19	601.52
635.34	596.84
635.49	622.58
635.64	631.94
635.79	638.97
635.94	585.13
636.09	641.31
636.24	620.24
636.39	645.99
636.53	599.18
636.68	510.24
636.83	615.56
636.98	514.92
637.13	622.58
637.28	500.87
637.43	477.47
637.57	533.64
637.72	599.18
637.87	564.07
638.02	535.98
638.17	580.45
638.32	561.73
638.46	475.13
638.61	660.03
638.76	407.25
638.91	521.94
639.06	479.81
639.20	571.09
639.35	491.51
639.50	451.72
639.65	547.69
639.80	486.83
639.94	404.91
640.09	507.90
640.24	498.53
640.39	533.64
640.54	521.94
640.68	407.25
640.83	533.64
640.98	451.72
641.13	470.45
641.27	425.98
641.42	393.21
641.57	444.70
641.72	414.27
641.86	428.32
642.01	454.06
642.16	507.90
642.31	430.66
642.45	521.94
642.60	489.17
642.75	521.94
642.90	444.70
643.04	458.74
643.19	435.34
643.34	482.15
643.48	468.11
643.63	393.21
643.78	472.79
643.93	575.77
644.07	435.34
644.22	489.17
644.37	489.17
644.51	540.66
644.66	531.30
644.81	421.30
644.95	540.66
645.10	440.02
645.25	402.57
645.39	510.24
645.54	407.25
645.69	421.30
645.83	407.25
645.98	503.22
646.13	407.25
646.27	456.40
646.42	425.98
646.57	433.00
646.71	372.15
646.86	451.72
647.00	430.66
647.15	425.98
647.30	433.00
647.44	475.13
647.59	372.15
647.74	451.72
647.88	477.47
648.03	468.11
648.17	437.68
648.32	428.32
648.47	454.06
648.61	472.79
648.76	444.70
648.90	437.68
649.05	587.47
649.20	482.15
649.34	505.56
649.49	608.54
649.63	690.46
649.78	830.89
649.92	1048.56
650.07	1179.63
650.21	1231.12
650.36	1327.08
650.51	1303.68
650.65	1151.54
650.80	1153.88
650.94	915.15
651.09	884.72
651.23	873.02
651.38	795.78
651.52	660.03
651.67	603.86
651.81	608.54
651.96	573.43
652.10	589.82
652.25	559.39
652.39	585.13
652.54	559.39
652.68	720.88
652.83	763.01
652.97	692.80
653.12	718.54
653.26	622.58
653.41	662.37
653.55	533.64
653.70	596.84
653.84	517.26
653.99	524.28
654.13	449.38
654.27	449.38
654.42	397.89
654.56	468.11
654.71	458.74
654.85	454.06
655.00	447.04
655.14	442.36
655.29	425.98
655.43	418.96
655.57	500.87
655.72	404.91
655.86	374.49
656.01	428.32
656.15	383.85
656.30	463.43
656.44	435.34
656.58	353.42
656.73	461.09
656.87	414.27
657.01	407.25
657.16	486.83
657.30	463.43
657.45	505.56
657.59	507.90
657.73	496.19
657.88	484.49
658.02	543.00
658.16	447.04
658.31	517.26
658.45	341.72
658.60	451.72
658.74	393.21
658.88	297.25
659.03	360.44
659.17	339.38
659.31	351.08
659.46	322.99
659.60	358.10
659.74	360.44
659.89	418.96
660.03	358.10
660.17	456.40
660.32	327.68
660.46	313.63
660.60	332.36
660.74	308.95
660.89	283.20
661.03	341.72
661.17	365.12
661.32	379.17
661.46	390.87
661.60	475.13
661.74	566.41
661.89	603.86
662.03	772.38
662.17	901.11
662.31	861.32
662.46	730.25
662.60	746.63
662.74	657.69
662.88	631.94
663.03	559.39
663.17	456.40
663.31	493.85
663.45	531.30
663.60	430.66
663.74	442.36
663.88	367.46
664.02	367.46
664.17	451.72
664.31	367.46
664.45	341.72
664.59	308.95
664.73	421.30
664.88	341.72
665.02	318.31
665.16	299.59
665.30	393.21
665.44	318.31
665.59	365.12
665.73	255.12
665.87	294.91
666.01	322.99
666.15	287.89
666.29	346.40
666.44	290.23
666.58	411.93
666.72	372.15
666.86	348.74
667.00	320.65
667.14	346.40
667.28	320.65
667.43	341.72
667.57	390.87
667.71	397.89
667.85	252.78
667.99	332.36
668.13	358.10
668.27	358.10
668.41	308.95
668.56	339.38
668.70	379.17
668.84	278.52
668.98	355.76
669.12	337.04
669.26	379.17
669.40	390.87
669.54	313.63
669.68	353.42
669.82	238.73
669.96	322.99
670.10	306.61
670.25	344.06
670.39	304.27
670.53	327.68
670.67	266.82
670.81	175.54
670.95	339.38
671.09	348.74
671.23	379.17
671.37	367.46
671.51	311.29
671.65	360.44
671.79	285.55
671.93	322.99
672.07	330.02
672.21	276.18
672.35	248.10
672.49	243.42
672.63	248.10
672.77	355.76
672.91	367.46
673.05	299.59
673.19	306.61
673.33	283.20
673.47	369.80
673.61	227.03
673.75	243.42
673.89	262.14
674.03	278.52
674.17	325.33
674.31	259.80
674.45	252.78
674.59	234.05
674.73	285.55
674.87	304.27
675.01	304.27
675.15	325.33
675.29	287.89
675.43	318.31
675.56	365.12
675.70	241.08
675.84	313.63
675.98	241.08
676.12	231.71
676.26	276.18
676.40	229.37
676.54	205.97
676.68	229.37
676.82	299.59
676.96	177.88
677.10	290.23
677.23	241.08
677.37	227.03
677.51	330.02
677.65	315.97
677.79	208.31
677.93	212.99
678.07	290.23
678.21	276.18
678.34	198.95
678.48	287.89
678.62	283.20
678.76	266.82
678.90	332.36
679.04	308.95
679.18	250.44
679.31	222.35
679.45	227.03
679.59	220.01
679.73	269.16
679.87	238.73
680.00	245.76
680.14	273.84
680.28	313.63
680.42	252.78
680.56	245.76
680.70	264.48
680.83	266.82
680.97	259.80
681.11	234.05
681.25	287.89
681.39	163.84
681.52	222.35
681.66	304.27
681.80	280.86
681.94	330.02
682.07	278.52
682.21	264.48
682.35	259.80
682.49	229.37
682.62	250.44
682.76	243.42
682.90	196.60
683.04	262.14
683.17	248.10
683.31	196.60
683.45	271.50
683.59	241.08
683.72	271.50
683.86	290.23
684.00	159.16
684.13	257.46
684.27	236.39
684.41	238.73
684.55	187.24
684.68	227.03
684.82	180.22
684.96	189.58
685.09	238.73
685.23	250.44
685.37	201.29
685.50	271.50
685.64	241.08
685.78	229.37
685.91	276.18
686.05	332.36
686.19	287.89
686.32	313.63
686.46	301.93
686.60	257.46
686.73	484.49
686.87	393.21
687.01	273.84
687.14	409.59
687.28	503.22
687.42	507.90
687.55	360.44
687.69	472.79
687.82	433.00
687.96	526.62
688.10	493.85
688.23	386.19
688.37	433.00
688.50	332.36
688.64	383.85
688.78	245.76
688.91	315.97
689.05	337.04
689.18	339.38
689.32	243.42
689.46	229.37
689.59	276.18
689.73	166.18
689.86	227.03
690.00	262.14
690.13	191.92
690.27	180.22
690.41	241.08
690.54	259.80
690.68	243.42
690.81	196.60
690.95	177.88
691.08	325.33
691.22	147.45
691.35	201.29
691.49	222.35
691.62	152.13
691.76	156.82
691.89	203.63
692.03	147.45
692.16	156.82
692.30	112.35
692.43	161.50
692.57	184.90
692.70	189.58
692.84	184.90
692.97	234.05
693.11	252.78
693.24	372.15
693.38	313.63
693.51	353.42
693.65	400.23
693.78	358.10
693.92	390.87
694.05	365.12
694.19	301.93
694.32	322.99
694.45	234.05
694.59	259.80
694.72	170.86
694.86	161.50
694.99	220.01
695.13	154.48
695.26	201.29
695.39	163.84
695.53	262.14
695.66	224.69
695.80	182.56
695.93	187.24
696.07	224.69
696.20	196.60
696.33	187.24
696.47	168.52
696.60	166.18
696.73	140.43
696.87	152.13
697.00	184.90
697.14	163.84
697.27	140.43
697.40	208.31
697.54	222.35
697.67	189.58
697.80	170.86
697.94	121.71
698.07	205.97
698.21	163.84
698.34	173.20
698.47	184.90
698.61	173.20
698.74	147.45
698.87	189.58
699.01	210.65
699.14	140.43
699.27	187.24
699.40	252.78
699.54	180.22
699.67	126.39
699.80	84.26
699.94	140.43
700.07	140.43
700.20	72.56
700.34	147.45
700.47	147.45
700.60	210.65
700.73	154.48
700.87	88.94
701.00	110.01
701.13	194.26
701.26	154.48
701.40	182.56
701.53	91.28
701.66	128.73
701.79	117.03
701.93	131.07
702.06	241.08
702.19	229.37
702.32	140.43
702.46	79.58
702.59	84.26
702.72	133.41
702.85	154.48
702.99	170.86
703.12	220.01
703.25	269.16
703.38	182.56
703.51	234.05
703.65	163.84
703.78	173.20
703.91	231.71
704.04	241.08
704.17	285.55
704.31	112.35
704.44	215.33
704.57	245.76
704.70	224.69
704.83	166.18
704.96	147.45
705.10	280.86
705.23	210.65
>>>>>End Processed Spectral Data<<<<<
