SpectraSuite Data File
++++++++++++++++++++++++++++++++++++
Date: Fri Oct 04 11:41:42 GMT-05:00 2013
User: price-jones
Dark Spectrum Present: No
Reference Spectrum Present: No
Number of Sampled Component Spectra: 1
Spectrometers: USB2+H05261
Integration Time (usec): 100000 (USB2+H05261)
Spectra Averaged: 1 (USB2+H05261)
Boxcar Smoothing: 0 (USB2+H05261)
Correct for Electrical Dark: No (USB2+H05261)
Strobe/Lamp Enabled: No (USB2+H05261)
Correct for Detector Non-linearity: No (USB2+H05261)
Correct for Stray Light: No (USB2+H05261)
Number of Pixels in Processed Spectrum: 2048
>>>>>Begin Processed Spectral Data<<<<<
365.73	53.83
365.92	53.83
366.12	53.83
366.32	0.00
366.52	0.00
366.72	0.00
366.91	0.00
367.11	0.00
367.31	0.00
367.51	4.68
367.70	0.00
367.90	0.00
368.10	0.00
368.30	0.00
368.49	0.00
368.69	0.00
368.89	0.00
369.09	0.00
369.28	0.00
369.48	0.00
369.68	0.00
369.87	25.75
370.07	0.00
370.27	0.00
370.47	7.02
370.66	0.00
370.86	7.02
371.06	117.03
371.25	72.56
371.45	77.24
371.65	100.64
371.84	65.54
372.04	0.00
372.24	138.09
372.44	42.13
372.63	86.60
372.83	142.77
373.03	84.26
373.22	107.66
373.42	138.09
373.62	145.11
373.81	70.22
374.01	180.22
374.21	88.94
374.40	60.85
374.60	159.16
374.79	168.52
374.99	159.16
375.19	154.48
375.38	166.18
375.58	196.60
375.78	182.56
375.97	121.71
376.17	243.42
376.37	102.98
376.56	156.82
376.76	107.66
376.95	72.56
377.15	140.43
377.35	126.39
377.54	156.82
377.74	121.71
377.93	168.52
378.13	234.05
378.33	231.71
378.52	117.03
378.72	154.48
378.91	166.18
379.11	117.03
379.31	170.86
379.50	65.54
379.70	131.07
379.89	194.26
380.09	102.98
380.28	58.51
380.48	121.71
380.68	81.92
380.87	135.75
381.07	138.09
381.26	196.60
381.46	163.84
381.65	95.96
381.85	128.73
382.04	177.88
382.24	133.41
382.43	72.56
382.63	93.62
382.83	44.47
383.02	147.45
383.22	77.24
383.41	175.54
383.61	135.75
383.80	35.11
384.00	105.32
384.19	145.11
384.39	117.03
384.58	58.51
384.78	63.19
384.97	131.07
385.17	210.65
385.36	79.58
385.56	222.35
385.75	100.64
385.95	119.37
386.14	112.35
386.34	110.01
386.53	84.26
386.72	42.13
386.92	173.20
387.11	133.41
387.31	163.84
387.50	131.07
387.70	147.45
387.89	135.75
388.09	124.05
388.28	124.05
388.48	119.37
388.67	170.86
388.86	149.79
389.06	124.05
389.25	147.45
389.45	140.43
389.64	70.22
389.84	112.35
390.03	60.85
390.22	138.09
390.42	67.88
390.61	121.71
390.81	93.62
391.00	121.71
391.19	110.01
391.39	224.69
391.58	163.84
391.78	117.03
391.97	133.41
392.16	149.79
392.36	112.35
392.55	95.96
392.75	161.50
392.94	114.69
393.13	77.24
393.33	138.09
393.52	138.09
393.71	170.86
393.91	128.73
394.10	159.16
394.29	149.79
394.49	156.82
394.68	98.30
394.88	220.01
395.07	142.77
395.26	119.37
395.46	156.82
395.65	51.49
395.84	187.24
396.04	187.24
396.23	191.92
396.42	133.41
396.62	93.62
396.81	131.07
397.00	105.32
397.19	152.13
397.39	110.01
397.58	147.45
397.77	88.94
397.97	126.39
398.16	175.54
398.35	159.16
398.55	105.32
398.74	88.94
398.93	229.37
399.12	140.43
399.32	173.20
399.51	168.52
399.70	187.24
399.90	112.35
400.09	114.69
400.28	182.56
400.47	159.16
400.67	145.11
400.86	161.50
401.05	245.76
401.24	205.97
401.44	152.13
401.63	100.64
401.82	131.07
402.01	156.82
402.21	154.48
402.40	152.13
402.59	194.26
402.78	161.50
402.97	182.56
403.17	210.65
403.36	266.82
403.55	334.70
403.74	706.84
403.93	2052.65
404.13	4910.44
404.32	7049.69
404.51	5951.98
404.70	3719.11
404.89	1334.11
405.09	400.23
405.28	220.01
405.47	147.45
405.66	205.97
405.85	238.73
406.05	184.90
406.24	159.16
406.43	217.67
406.62	215.33
406.81	285.55
407.00	341.72
407.20	589.82
407.39	943.24
407.58	926.85
407.77	748.97
407.96	475.13
408.15	327.68
408.34	166.18
408.54	168.52
408.73	222.35
408.92	173.20
409.11	217.67
409.30	215.33
409.49	184.90
409.68	170.86
409.87	170.86
410.07	166.18
410.26	156.82
410.45	194.26
410.64	168.52
410.83	184.90
411.02	177.88
411.21	227.03
411.40	208.31
411.59	208.31
411.78	234.05
411.98	170.86
412.17	205.97
412.36	149.79
412.55	257.46
412.74	166.18
412.93	238.73
413.12	245.76
413.31	248.10
413.50	271.50
413.69	196.60
413.88	234.05
414.07	257.46
414.26	292.57
414.45	196.60
414.64	273.84
414.83	273.84
415.02	222.35
415.22	220.01
415.41	290.23
415.60	238.73
415.79	217.67
415.98	273.84
416.17	238.73
416.36	173.20
416.55	154.48
416.74	325.33
416.93	264.48
417.12	238.73
417.31	215.33
417.50	297.25
417.69	231.71
417.88	208.31
418.07	285.55
418.26	262.14
418.45	208.31
418.64	241.08
418.83	220.01
419.02	269.16
419.21	266.82
419.39	304.27
419.58	248.10
419.77	276.18
419.96	334.70
420.15	220.01
420.34	266.82
420.53	201.29
420.72	341.72
420.91	308.95
421.10	273.84
421.29	215.33
421.48	311.29
421.67	241.08
421.86	238.73
422.05	285.55
422.24	313.63
422.43	327.68
422.61	271.50
422.80	208.31
422.99	327.68
423.18	231.71
423.37	271.50
423.56	306.61
423.75	248.10
423.94	308.95
424.13	276.18
424.32	241.08
424.50	301.93
424.69	273.84
424.88	355.76
425.07	231.71
425.26	320.65
425.45	248.10
425.64	313.63
425.83	259.80
426.01	327.68
426.20	325.33
426.39	330.02
426.58	280.86
426.77	269.16
426.96	306.61
427.15	250.44
427.33	304.27
427.52	264.48
427.71	320.65
427.90	334.70
428.09	330.02
428.28	313.63
428.46	299.59
428.65	322.99
428.84	344.06
429.03	325.33
429.22	304.27
429.40	327.68
429.59	372.15
429.78	407.25
429.97	325.33
430.16	341.72
430.34	402.57
430.53	390.87
430.72	252.78
430.91	311.29
431.10	299.59
431.28	451.72
431.47	390.87
431.66	367.46
431.85	397.89
432.03	486.83
432.22	433.00
432.41	489.17
432.60	435.34
432.79	433.00
432.97	458.74
433.16	512.58
433.35	486.83
433.54	603.86
433.72	491.51
433.91	606.20
434.10	641.31
434.28	812.17
434.47	987.71
434.66	990.05
434.85	1210.06
435.03	3234.62
435.22	12187.17
435.41	28971.15
435.59	30878.69
435.78	19627.73
435.97	9879.40
436.16	3817.41
436.34	1488.58
436.53	875.36
436.72	671.73
436.90	533.64
437.09	561.73
437.28	559.39
437.46	482.15
437.65	477.47
437.84	454.06
438.02	517.26
438.21	493.85
438.40	430.66
438.58	416.62
438.77	496.19
438.96	517.26
439.14	458.74
439.33	423.64
439.52	465.77
439.70	444.70
439.89	430.66
440.08	381.51
440.26	451.72
440.45	507.90
440.63	390.87
440.82	440.02
441.01	418.96
441.19	472.79
441.38	510.24
441.57	411.93
441.75	477.47
441.94	437.68
442.12	421.30
442.31	528.96
442.50	465.77
442.68	425.98
442.87	433.00
443.05	486.83
443.24	456.40
443.43	543.00
443.61	496.19
443.80	533.64
443.98	486.83
444.17	341.72
444.35	444.70
444.54	482.15
444.73	433.00
444.91	416.62
445.10	430.66
445.28	416.62
445.47	407.25
445.65	400.23
445.84	386.19
446.02	383.85
446.21	411.93
446.39	444.70
446.58	505.56
446.77	423.64
446.95	440.02
447.14	407.25
447.32	510.24
447.51	479.81
447.69	372.15
447.88	482.15
448.06	578.11
448.25	449.38
448.43	388.53
448.62	397.89
448.80	475.13
448.99	463.43
449.17	379.17
449.36	449.38
449.54	442.36
449.73	397.89
449.91	393.21
450.10	447.04
450.28	482.15
450.46	416.62
450.65	521.94
450.83	533.64
451.02	397.89
451.20	411.93
451.39	470.45
451.57	400.23
451.76	346.40
451.94	362.78
452.13	355.76
452.31	442.36
452.49	360.44
452.68	409.59
452.86	409.59
453.05	468.11
453.23	456.40
453.42	365.12
453.60	472.79
453.78	461.09
453.97	374.49
454.15	369.80
454.34	470.45
454.52	421.30
454.70	461.09
454.89	437.68
455.07	425.98
455.26	409.59
455.44	496.19
455.62	442.36
455.81	400.23
455.99	472.79
456.17	491.51
456.36	376.83
456.54	484.49
456.73	468.11
456.91	458.74
457.09	484.49
457.28	428.32
457.46	442.36
457.64	479.81
457.83	451.72
458.01	397.89
458.19	444.70
458.38	404.91
458.56	447.04
458.74	381.51
458.93	383.85
459.11	353.42
459.29	395.55
459.48	510.24
459.66	458.74
459.84	393.21
460.03	538.32
460.21	395.55
460.39	397.89
460.57	470.45
460.76	430.66
460.94	383.85
461.12	470.45
461.31	437.68
461.49	440.02
461.67	428.32
461.85	430.66
462.04	383.85
462.22	564.07
462.40	461.09
462.59	430.66
462.77	397.89
462.95	365.12
463.13	355.76
463.32	440.02
463.50	381.51
463.68	449.38
463.86	397.89
464.05	447.04
464.23	510.24
464.41	470.45
464.59	458.74
464.78	411.93
464.96	414.27
465.14	409.59
465.32	365.12
465.50	395.55
465.69	463.43
465.87	421.30
466.05	344.06
466.23	390.87
466.41	496.19
466.60	421.30
466.78	491.51
466.96	411.93
467.14	444.70
467.32	505.56
467.51	475.13
467.69	383.85
467.87	447.04
468.05	428.32
468.23	449.38
468.41	388.53
468.60	383.85
468.78	402.57
468.96	395.55
469.14	379.17
469.32	395.55
469.50	397.89
469.69	404.91
469.87	489.17
470.05	393.21
470.23	379.17
470.41	369.80
470.59	461.09
470.77	517.26
470.95	358.10
471.14	444.70
471.32	433.00
471.50	428.32
471.68	379.17
471.86	470.45
472.04	294.91
472.22	411.93
472.40	346.40
472.58	433.00
472.77	440.02
472.95	390.87
473.13	456.40
473.31	531.30
473.49	433.00
473.67	416.62
473.85	456.40
474.03	456.40
474.21	344.06
474.39	447.04
474.57	440.02
474.75	362.78
474.93	381.51
475.12	379.17
475.30	374.49
475.48	365.12
475.66	423.64
475.84	517.26
476.02	486.83
476.20	358.10
476.38	386.19
476.56	458.74
476.74	425.98
476.92	332.36
477.10	409.59
477.28	550.03
477.46	500.87
477.64	484.49
477.82	498.53
478.00	479.81
478.18	507.90
478.36	407.25
478.54	486.83
478.72	470.45
478.90	496.19
479.08	470.45
479.26	496.19
479.44	564.07
479.62	465.77
479.80	461.09
479.98	486.83
480.16	559.39
480.34	543.00
480.52	575.77
480.70	631.94
480.88	674.07
481.06	660.03
481.24	678.76
481.41	765.36
481.59	777.06
481.77	837.91
481.95	926.85
482.13	985.37
482.31	983.02
482.49	1088.35
482.67	1130.48
482.85	1252.19
483.03	1233.46
483.21	1416.02
483.39	1437.09
483.57	1504.96
483.74	1600.93
483.92	1640.72
484.10	1813.92
484.28	1975.41
484.46	2003.50
484.64	2003.50
484.82	2148.61
485.00	2214.15
485.18	2387.35
485.35	2597.99
485.53	2696.30
485.71	2775.88
485.89	2768.85
486.07	2848.43
486.25	2963.12
486.43	2923.33
486.61	2988.86
486.78	2988.86
486.96	2904.60
487.14	3000.57
487.32	3035.67
487.50	2867.16
487.68	2916.31
487.85	2778.22
488.03	2974.82
488.21	2869.50
488.39	2794.60
488.57	2654.17
488.75	2640.12
488.92	2806.30
489.10	2429.48
489.28	2661.19
489.46	2380.32
489.64	2420.11
489.81	2335.85
489.99	2279.68
490.17	2338.20
490.35	2253.94
490.53	2200.10
490.70	2286.70
490.88	2289.04
491.06	2305.43
491.24	2555.86
491.41	2548.84
491.59	2361.60
491.77	2237.55
491.95	2239.89
492.13	2069.03
492.30	2029.24
492.48	1886.47
492.66	1891.15
492.84	1902.86
493.01	1944.99
493.19	1895.83
493.37	1888.81
493.54	1851.36
493.72	1905.20
493.90	1708.59
494.08	1884.13
494.25	1842.00
494.43	1610.29
494.61	1621.99
494.79	1692.21
494.96	1558.80
495.14	1643.06
495.32	1610.29
495.49	1565.82
495.67	1579.86
495.85	1526.03
496.02	1511.99
496.20	1472.20
496.38	1467.52
496.55	1486.24
496.73	1411.34
496.91	1327.08
497.09	1441.77
497.26	1359.85
497.44	1390.28
497.62	1289.64
497.79	1313.04
497.97	1245.16
498.14	1320.06
498.32	1259.21
498.50	1266.23
498.67	1149.20
498.85	1210.06
499.03	1132.82
499.20	987.71
499.38	1081.33
499.56	1029.84
499.73	1076.65
499.91	1057.92
500.08	992.39
500.26	1013.45
500.44	875.36
500.61	908.13
500.79	847.27
500.97	795.78
501.14	866.00
501.32	887.06
501.49	842.59
501.67	795.78
501.84	788.76
502.02	709.18
502.20	699.82
502.37	716.20
502.55	730.25
502.72	709.18
502.90	660.03
503.07	638.97
503.25	617.90
503.43	608.54
503.60	685.78
503.78	575.77
503.95	557.05
504.13	631.94
504.30	674.07
504.48	578.11
504.65	559.39
504.83	571.09
505.01	550.03
505.18	540.66
505.36	559.39
505.53	449.38
505.71	517.26
505.88	486.83
506.06	458.74
506.23	472.79
506.41	503.22
506.58	519.60
506.76	475.13
506.93	465.77
507.11	559.39
507.28	486.83
507.46	496.19
507.63	458.74
507.81	463.43
507.98	454.06
508.16	451.72
508.33	458.74
508.50	468.11
508.68	484.49
508.85	440.02
509.03	519.60
509.20	435.34
509.38	500.87
509.55	440.02
509.73	458.74
509.90	456.40
510.08	479.81
510.25	496.19
510.42	409.59
510.60	418.96
510.77	435.34
510.95	475.13
511.12	365.12
511.30	458.74
511.47	463.43
511.64	468.11
511.82	421.30
511.99	383.85
512.17	344.06
512.34	423.64
512.51	468.11
512.69	428.32
512.86	524.28
513.04	411.93
513.21	433.00
513.38	465.77
513.56	425.98
513.73	468.11
513.90	374.49
514.08	330.02
514.25	376.83
514.43	437.68
514.60	339.38
514.77	337.04
514.95	337.04
515.12	311.29
515.29	390.87
515.47	388.53
515.64	390.87
515.81	388.53
515.99	376.83
516.16	404.91
516.33	390.87
516.51	355.76
516.68	374.49
516.85	386.19
517.03	322.99
517.20	400.23
517.37	327.68
517.54	367.46
517.72	283.20
517.89	423.64
518.06	315.97
518.24	374.49
518.41	519.60
518.58	425.98
518.75	341.72
518.93	388.53
519.10	339.38
519.27	379.17
519.45	435.34
519.62	379.17
519.79	360.44
519.96	369.80
520.14	383.85
520.31	374.49
520.48	320.65
520.65	383.85
520.83	421.30
521.00	332.36
521.17	327.68
521.34	404.91
521.52	397.89
521.69	318.31
521.86	353.42
522.03	334.70
522.20	418.96
522.38	374.49
522.55	346.40
522.72	337.04
522.89	330.02
523.07	390.87
523.24	433.00
523.41	339.38
523.58	325.33
523.75	334.70
523.92	285.55
524.10	344.06
524.27	388.53
524.44	311.29
524.61	444.70
524.78	348.74
524.96	418.96
525.13	362.78
525.30	428.32
525.47	402.57
525.64	416.62
525.81	383.85
525.98	369.80
526.16	407.25
526.33	390.87
526.50	447.04
526.67	381.51
526.84	376.83
527.01	451.72
527.18	451.72
527.36	374.49
527.53	407.25
527.70	430.66
527.87	510.24
528.04	367.46
528.21	383.85
528.38	456.40
528.55	437.68
528.72	463.43
528.89	538.32
529.07	477.47
529.24	463.43
529.41	449.38
529.58	433.00
529.75	479.81
529.92	580.45
530.09	526.62
530.26	538.32
530.43	554.71
530.60	521.94
530.77	472.79
530.94	603.86
531.11	491.51
531.28	601.52
531.46	547.69
531.63	554.71
531.80	716.20
531.97	697.48
532.14	725.57
532.31	947.92
532.48	1041.54
532.65	1153.88
532.82	1245.16
532.99	1511.99
533.16	1717.95
533.33	1785.83
533.50	1626.67
533.67	1430.07
533.84	1334.11
534.01	1160.91
534.18	997.07
534.35	966.64
534.52	1011.11
534.69	1121.12
534.86	1046.22
535.03	1188.99
535.20	1123.46
535.37	1259.21
535.54	1240.48
535.71	1406.66
535.88	1509.65
536.05	1502.62
536.22	1682.85
536.38	1809.23
536.55	1949.67
536.72	2157.97
536.89	2392.03
537.06	2640.12
537.23	2916.31
537.40	3215.90
537.57	3529.53
537.74	3669.96
537.91	3751.88
538.08	3871.25
538.25	3915.72
538.42	4098.28
538.59	4159.13
538.75	4173.18
538.92	4311.27
539.09	4786.40
539.26	5343.44
539.43	6099.44
539.60	6881.18
539.77	7737.81
539.94	8688.07
540.11	9406.61
540.28	10391.98
540.44	11653.53
540.61	12662.30
540.78	14349.82
540.95	17568.06
541.12	21106.95
541.29	23679.20
541.46	24648.18
541.62	24739.46
541.79	23812.61
541.96	21841.88
542.13	20226.91
542.30	18705.56
542.47	17769.35
542.63	16842.50
542.80	16315.87
542.97	15990.54
543.14	16074.80
543.31	16112.25
543.48	15857.13
543.64	16496.10
543.81	16634.19
543.98	16442.26
544.15	16339.28
544.32	16624.83
544.48	16526.52
544.65	16212.89
544.82	16163.74
544.99	16283.11
545.16	16840.15
545.32	17312.94
545.49	28790.93
545.66	51611.15
545.83	59217.89
546.00	54209.15
546.16	38349.68
546.33	29291.80
546.50	21865.28
546.67	17128.04
546.83	14689.20
547.00	14312.38
547.17	13504.89
547.34	13195.94
547.50	12517.18
547.67	12257.39
547.84	11747.15
548.00	11290.74
548.17	10799.23
548.34	10434.11
548.51	10078.35
548.67	9610.24
548.84	9186.60
549.01	8549.98
549.18	8046.76
549.34	7801.01
549.51	7442.90
549.68	7456.95
549.84	6970.12
550.01	6766.49
550.18	6661.16
550.34	6235.19
550.51	5746.02
550.68	5577.50
550.84	5167.90
551.01	5060.24
551.18	4660.01
551.34	4592.13
551.51	4283.18
551.68	4098.28
551.84	4049.13
552.01	3709.75
552.18	3794.01
552.34	3700.39
552.51	3353.99
552.68	3405.48
552.84	3150.36
553.01	2995.89
553.18	2937.37
553.34	2808.64
553.51	2757.15
553.67	2733.75
553.84	2555.86
554.01	2417.77
554.17	2401.39
554.34	2122.87
554.51	2024.56
554.67	1886.47
554.84	1860.73
555.00	1722.63
555.17	1689.87
555.33	1589.22
555.50	1392.62
555.67	1598.59
555.83	1341.13
556.00	1289.64
556.16	1467.52
556.33	1266.23
556.50	1139.84
556.66	1107.07
556.83	1076.65
556.99	1067.28
557.16	1116.44
557.32	1011.11
557.49	1020.47
557.65	999.41
557.82	1055.58
557.98	973.66
558.15	950.26
558.32	950.26
558.48	873.02
558.65	905.79
558.81	802.80
558.98	758.33
559.14	863.66
559.31	837.91
559.47	739.61
559.64	763.01
559.80	734.93
559.97	744.29
560.13	805.14
560.30	697.48
560.46	807.48
560.63	741.95
560.79	741.95
560.96	746.63
561.12	727.91
561.29	744.29
561.45	706.84
561.61	655.35
561.78	786.42
561.94	755.99
562.11	730.25
562.27	767.70
562.44	727.91
562.60	662.37
562.77	763.01
562.93	718.54
563.10	807.48
563.26	690.46
563.42	671.73
563.59	746.63
563.75	641.31
563.92	730.25
564.08	517.26
564.24	594.50
564.41	631.94
564.57	622.58
564.74	550.03
564.90	624.92
565.07	599.18
565.23	561.73
565.39	671.73
565.56	535.98
565.72	575.77
565.88	575.77
566.05	472.79
566.21	575.77
566.38	571.09
566.54	552.37
566.70	613.22
566.87	582.79
567.03	571.09
567.19	573.43
567.36	594.50
567.52	517.26
567.68	538.32
567.85	538.32
568.01	526.62
568.17	571.09
568.34	617.90
568.50	557.05
568.66	578.11
568.83	653.01
568.99	564.07
569.15	507.90
569.32	599.18
569.48	521.94
569.64	561.73
569.81	456.40
569.97	449.38
570.13	524.28
570.30	414.27
570.46	421.30
570.62	447.04
570.78	475.13
570.95	451.72
571.11	543.00
571.27	510.24
571.43	475.13
571.60	461.09
571.76	397.89
571.92	465.77
572.09	425.98
572.25	468.11
572.41	447.04
572.57	351.08
572.74	489.17
572.90	423.64
573.06	482.15
573.22	444.70
573.38	479.81
573.55	463.43
573.71	505.56
573.87	528.96
574.03	475.13
574.20	479.81
574.36	580.45
574.52	514.92
574.68	606.20
574.84	643.65
575.01	585.13
575.17	650.67
575.33	603.86
575.49	627.26
575.65	683.44
575.82	774.72
575.98	933.87
576.14	1032.18
576.30	1863.07
576.46	6015.18
576.62	11176.06
576.79	11983.54
576.95	8486.78
577.11	5535.37
577.27	3997.64
577.43	2642.46
577.59	1666.46
577.75	1291.98
577.92	1200.69
578.08	1100.05
578.24	1275.59
578.40	2092.44
578.56	5551.75
578.72	9561.09
578.88	10853.06
579.04	7756.54
579.21	5357.49
579.37	4016.36
579.53	3112.91
579.69	3084.83
579.85	3541.23
580.01	4201.26
580.17	4032.74
580.33	3604.42
580.49	3007.59
580.65	2705.66
580.82	2588.63
580.98	2375.64
581.14	2518.42
581.30	2614.38
581.46	2771.19
581.62	3049.72
581.78	3211.22
581.94	3562.30
582.10	3440.59
582.26	3845.50
582.42	3990.61
582.58	3985.93
582.74	4131.05
582.90	4077.21
583.06	4236.37
583.22	4058.49
583.38	4147.43
583.54	4039.76
583.70	4159.13
583.86	4091.26
584.02	4044.45
584.18	4058.49
584.34	3894.65
584.50	3873.59
584.66	3889.97
584.82	3702.73
584.98	3529.53
585.14	3550.59
585.30	3478.04
585.46	3389.10
585.62	3478.04
585.78	3559.95
585.94	3461.65
586.10	3459.31
586.26	3716.77
586.42	4208.28
586.58	5008.75
586.74	5996.45
586.90	7286.09
587.06	8025.70
587.22	8056.12
587.38	7155.02
587.54	6197.74
587.70	5212.37
587.86	4479.79
588.02	3782.31
588.18	3187.81
588.34	2956.10
588.49	2698.64
588.65	2602.68
588.81	2459.90
588.97	2338.20
589.13	2450.54
589.29	2246.91
589.45	2321.81
589.61	2349.90
589.77	2375.64
589.93	2377.98
590.08	2319.47
590.24	2513.74
590.40	2511.39
590.56	2684.59
590.72	2633.10
590.88	2684.59
591.04	2846.09
591.20	2972.48
591.35	3145.68
591.51	3098.87
591.67	3229.94
591.83	3613.79
591.99	3789.33
592.15	4138.07
592.31	4383.82
592.46	4898.74
592.62	5221.74
592.78	5619.63
592.94	5860.70
593.10	5764.74
593.26	5544.73
593.41	5029.81
593.57	4437.66
593.73	3953.16
593.89	3585.70
594.05	3234.62
594.20	2878.86
594.36	2605.02
594.52	2480.97
594.68	2352.24
594.84	2328.83
594.99	2289.04
595.15	2080.74
595.31	2113.50
595.47	1980.09
595.62	2080.74
595.78	1884.13
595.94	2054.99
596.10	2125.21
596.25	2106.48
596.41	2069.03
596.57	2118.18
596.73	2062.01
596.88	2106.48
597.04	1891.15
597.20	1973.07
597.36	2111.16
597.51	2181.38
597.67	2260.96
597.83	2356.92
597.99	2537.14
598.14	2623.74
598.30	2778.22
598.46	2834.39
598.61	3185.47
598.77	3215.90
598.93	3227.60
599.09	3534.21
599.24	3543.57
599.40	3414.84
599.56	3281.43
599.71	3169.09
599.87	3094.19
600.03	2878.86
600.18	2672.89
600.34	2572.25
600.50	2319.47
600.65	2143.93
600.81	2076.06
600.97	2045.63
601.12	1940.30
601.28	1830.30
601.44	1668.80
601.59	1708.59
601.75	1554.12
601.91	1575.18
602.06	1432.41
602.22	1493.26
602.37	1366.87
602.53	1327.08
602.69	1430.07
602.84	1406.66
603.00	1416.02
603.16	1430.07
603.31	1486.24
603.47	1572.84
603.62	1441.77
603.78	1458.15
603.94	1565.82
604.09	1528.37
604.25	1558.80
604.40	1526.03
604.56	1563.48
604.71	1645.40
604.87	1593.90
605.03	1629.01
605.18	1720.29
605.34	1774.13
605.49	1734.34
605.65	1923.92
605.80	1825.62
605.96	1956.69
606.12	2050.31
606.27	2188.40
606.43	2143.93
606.58	2237.55
606.74	2345.22
606.89	2504.37
607.05	2558.21
607.20	2913.97
607.36	2773.53
607.51	3005.25
607.67	3318.88
607.82	3344.63
607.98	3817.41
608.13	3967.21
608.29	4170.83
608.44	4704.48
608.60	4952.57
608.75	5458.13
608.91	5802.19
609.06	6597.97
609.22	7190.13
609.37	7751.85
609.53	8809.78
609.68	9867.70
609.84	11337.56
609.99	13528.30
610.15	16004.58
610.30	19529.43
610.46	24952.45
610.61	32336.84
610.76	41476.63
610.92	49151.25
611.07	53270.59
611.23	54286.39
611.38	52851.64
611.54	47704.80
611.69	40863.41
611.84	34630.57
612.00	29034.35
612.15	24133.26
612.31	21280.15
612.46	18960.68
612.62	17778.71
612.77	16671.64
612.92	15618.39
613.08	14768.78
613.23	13818.52
613.39	13165.51
613.54	12879.97
613.69	12699.75
613.85	12432.93
614.00	12552.29
614.15	12734.85
614.31	12248.02
614.46	11999.93
614.62	11559.91
614.77	10773.49
614.92	10214.10
615.08	9621.94
615.23	9032.13
615.38	8170.81
615.54	7454.61
615.69	6897.56
615.84	6349.87
616.00	5977.73
616.15	5516.64
616.30	5144.50
616.46	4748.95
616.61	4346.37
616.76	4447.02
616.92	4152.11
617.07	3845.50
617.22	3592.72
617.37	3302.50
617.53	3353.99
617.68	3126.96
617.83	2904.60
617.99	3014.61
618.14	2920.99
618.29	2801.62
618.45	2839.07
618.60	2693.96
618.75	2743.11
618.90	2612.04
619.06	2607.36
619.21	2656.51
619.36	2532.46
619.51	2511.39
619.67	2427.14
619.82	2729.06
619.97	2733.75
620.12	2644.81
620.28	2876.52
620.43	2871.84
620.58	2918.65
620.73	2843.75
620.89	2869.50
621.04	2665.87
621.19	2834.39
621.34	2696.30
621.49	2677.57
621.65	2642.46
621.80	2644.81
621.95	2679.91
622.10	2729.06
622.25	2836.73
622.41	2759.49
622.56	2658.85
622.71	2787.58
622.86	2970.14
623.01	2974.82
623.16	3115.25
623.32	3143.34
623.47	3007.59
623.62	3059.08
623.77	2888.22
623.92	2965.46
624.07	2963.12
624.23	3183.13
624.38	3066.10
624.53	3038.02
624.68	3150.36
624.83	3091.85
624.98	3133.98
625.13	3030.99
625.29	3105.89
625.44	3159.72
625.59	3162.06
625.74	3143.34
625.89	3075.46
626.04	3194.83
626.19	3101.21
626.34	3110.57
626.49	3098.87
626.65	3033.33
626.80	3077.80
626.95	3070.78
627.10	2897.58
627.25	2949.08
627.40	2869.50
627.55	2731.41
627.70	2752.47
627.85	2778.22
628.00	2869.50
628.15	2710.34
628.30	2785.24
628.45	2768.85
628.60	2862.48
628.76	2918.65
628.91	2771.19
629.06	2853.11
629.21	2930.35
629.36	2871.84
629.51	3045.04
629.66	3272.07
629.81	3428.88
629.96	3527.19
630.11	3974.23
630.26	4507.87
630.41	4975.98
630.56	5448.77
630.71	5954.32
630.86	6043.26
631.01	6005.81
631.16	5345.78
631.31	4877.68
631.46	4149.77
631.61	3616.13
631.76	3035.67
631.91	2544.16
632.06	2202.44
632.21	1912.22
632.36	1774.13
632.51	1511.99
632.66	1277.93
632.81	1287.29
632.96	1181.97
633.10	1102.39
633.25	1165.59
633.40	1093.03
633.55	1018.13
633.70	1086.01
633.85	1025.15
634.00	866.00
634.15	870.68
634.30	842.59
634.45	835.57
634.60	861.32
634.75	842.59
634.90	880.04
635.05	784.08
635.19	798.12
635.34	961.96
635.49	788.76
635.64	826.21
635.79	720.88
635.94	807.48
636.09	784.08
636.24	760.67
636.39	683.44
636.53	704.50
636.68	695.14
636.83	631.94
636.98	758.33
637.13	674.07
637.28	631.94
637.43	716.20
637.57	645.99
637.72	645.99
637.87	697.48
638.02	587.47
638.17	638.97
638.32	636.63
638.46	578.11
638.61	592.16
638.76	638.97
638.91	653.01
639.06	608.54
639.20	657.69
639.35	594.50
639.50	566.41
639.65	613.22
639.80	603.86
639.94	589.82
640.09	634.29
640.24	603.86
640.39	573.43
640.54	535.98
640.68	571.09
640.83	627.26
640.98	557.05
641.13	564.07
641.27	554.71
641.42	587.47
641.57	636.63
641.72	550.03
641.86	596.84
642.01	564.07
642.16	564.07
642.31	557.05
642.45	599.18
642.60	599.18
642.75	622.58
642.90	573.43
643.04	564.07
643.19	648.33
643.34	512.58
643.48	582.79
643.63	575.77
643.78	592.16
643.93	613.22
644.07	603.86
644.22	538.32
644.37	603.86
644.51	603.86
644.66	449.38
644.81	533.64
644.95	482.15
645.10	575.77
645.25	587.47
645.39	561.73
645.54	533.64
645.69	613.22
645.83	528.96
645.98	610.88
646.13	500.87
646.27	554.71
646.42	547.69
646.57	538.32
646.71	533.64
646.86	479.81
647.00	526.62
647.15	498.53
647.30	540.66
647.44	580.45
647.59	505.56
647.74	568.75
647.88	594.50
648.03	465.77
648.17	461.09
648.32	521.94
648.47	571.09
648.61	557.05
648.76	582.79
648.90	580.45
649.05	552.37
649.20	575.77
649.34	723.23
649.49	681.10
649.63	842.59
649.78	1032.18
649.92	1198.35
650.07	1411.34
650.21	1483.90
650.36	1645.40
650.51	1631.35
650.65	1570.50
650.80	1409.00
650.94	1259.21
651.09	1146.86
651.23	1078.99
651.38	1039.20
651.52	837.91
651.67	814.51
651.81	751.31
651.96	660.03
652.10	645.99
652.25	627.26
652.39	723.23
652.54	734.93
652.68	816.85
652.83	826.21
652.97	844.93
653.12	816.85
653.26	772.38
653.41	807.48
653.55	741.95
653.70	674.07
653.84	645.99
653.99	664.71
654.13	608.54
654.27	524.28
654.42	507.90
654.56	475.13
654.71	545.34
654.85	533.64
655.00	524.28
655.14	631.94
655.29	540.66
655.43	517.26
655.57	463.43
655.72	447.04
655.86	477.47
656.01	535.98
656.15	482.15
656.30	489.17
656.44	435.34
656.58	463.43
656.73	440.02
656.87	543.00
657.01	573.43
657.16	596.84
657.30	655.35
657.45	620.24
657.59	589.82
657.73	671.73
657.88	636.63
658.02	695.14
658.16	566.41
658.31	545.34
658.45	475.13
658.60	447.04
658.74	447.04
658.88	498.53
659.03	355.76
659.17	411.93
659.31	402.57
659.46	367.46
659.60	510.24
659.74	454.06
659.89	369.80
660.03	411.93
660.17	395.55
660.32	407.25
660.46	440.02
660.60	454.06
660.74	369.80
660.89	444.70
661.03	435.34
661.17	437.68
661.32	484.49
661.46	519.60
661.60	564.07
661.74	802.80
661.89	751.31
662.03	861.32
662.17	1048.56
662.31	1060.26
662.46	1041.54
662.60	877.70
662.74	898.77
662.88	748.97
663.03	671.73
663.17	641.31
663.31	734.93
663.45	550.03
663.60	559.39
663.74	484.49
663.88	442.36
664.02	493.85
664.17	470.45
664.31	423.64
664.45	449.38
664.59	433.00
664.73	461.09
664.88	404.91
665.02	435.34
665.16	381.51
665.30	425.98
665.44	390.87
665.59	444.70
665.73	362.78
665.87	379.17
666.01	311.29
666.15	407.25
666.29	341.72
666.44	428.32
666.58	470.45
666.72	404.91
666.86	433.00
667.00	400.23
667.14	400.23
667.28	348.74
667.43	430.66
667.57	416.62
667.71	418.96
667.85	409.59
667.99	388.53
668.13	339.38
668.27	451.72
668.41	423.64
668.56	334.70
668.70	313.63
668.84	437.68
668.98	313.63
669.12	341.72
669.26	381.51
669.40	440.02
669.54	372.15
669.68	341.72
669.82	315.97
669.96	337.04
670.10	320.65
670.25	379.17
670.39	388.53
670.53	325.33
670.67	404.91
670.81	341.72
670.95	327.68
671.09	318.31
671.23	318.31
671.37	372.15
671.51	313.63
671.65	325.33
671.79	301.93
671.93	339.38
672.07	367.46
672.21	362.78
672.35	280.86
672.49	355.76
672.63	344.06
672.77	332.36
672.91	346.40
673.05	297.25
673.19	238.73
673.33	299.59
673.47	334.70
673.61	320.65
673.75	353.42
673.89	315.97
674.03	252.78
674.17	337.04
674.31	318.31
674.45	283.20
674.59	353.42
674.73	325.33
674.87	353.42
675.01	271.50
675.15	353.42
675.29	395.55
675.43	278.52
675.56	365.12
675.70	365.12
675.84	264.48
675.98	325.33
676.12	266.82
676.26	320.65
676.40	285.55
676.54	182.56
676.68	290.23
676.82	241.08
676.96	278.52
677.10	255.12
677.23	299.59
677.37	231.71
677.51	327.68
677.65	381.51
677.79	245.76
677.93	337.04
678.07	290.23
678.21	287.89
678.34	311.29
678.48	187.24
678.62	301.93
678.76	273.84
678.90	231.71
679.04	308.95
679.18	271.50
679.31	266.82
679.45	287.89
679.59	285.55
679.73	245.76
679.87	227.03
680.00	278.52
680.14	332.36
680.28	397.89
680.42	308.95
680.56	325.33
680.70	231.71
680.83	346.40
680.97	372.15
681.11	341.72
681.25	346.40
681.39	205.97
681.52	318.31
681.66	301.93
681.80	196.60
681.94	327.68
682.07	252.78
682.21	318.31
682.35	304.27
682.49	259.80
682.62	320.65
682.76	273.84
682.90	276.18
683.04	234.05
683.17	273.84
683.31	252.78
683.45	341.72
683.59	306.61
683.72	285.55
683.86	362.78
684.00	245.76
684.13	304.27
684.27	238.73
684.41	301.93
684.55	276.18
684.68	210.65
684.82	215.33
684.96	278.52
685.09	292.57
685.23	262.14
685.37	250.44
685.50	327.68
685.64	332.36
685.78	337.04
685.91	362.78
686.05	327.68
686.19	351.08
686.32	341.72
686.46	418.96
686.60	337.04
686.73	505.56
686.87	498.53
687.01	433.00
687.14	493.85
687.28	601.52
687.42	564.07
687.55	568.75
687.69	603.86
687.82	596.84
687.96	547.69
688.10	566.41
688.23	578.11
688.37	493.85
688.50	395.55
688.64	440.02
688.78	393.21
688.91	322.99
689.05	330.02
689.18	255.12
689.32	297.25
689.46	311.29
689.59	229.37
689.73	229.37
689.86	224.69
690.00	243.42
690.13	215.33
690.27	182.56
690.41	283.20
690.54	315.97
690.68	304.27
690.81	308.95
690.95	301.93
691.08	262.14
691.22	250.44
691.35	189.58
691.49	145.11
691.62	243.42
691.76	126.39
691.89	234.05
692.03	138.09
692.16	227.03
692.30	238.73
692.43	259.80
692.57	203.63
692.70	269.16
692.84	315.97
692.97	259.80
693.11	238.73
693.24	304.27
693.38	390.87
693.51	442.36
693.65	507.90
693.78	486.83
693.92	442.36
694.05	407.25
694.19	322.99
694.32	322.99
694.45	238.73
694.59	231.71
694.72	191.92
694.86	189.58
694.99	210.65
695.13	243.42
695.26	264.48
695.39	135.75
695.53	241.08
695.66	191.92
695.80	229.37
695.93	133.41
696.07	135.75
696.20	215.33
696.33	187.24
696.47	234.05
696.60	203.63
696.73	273.84
696.87	227.03
697.00	252.78
697.14	201.29
697.27	163.84
697.40	215.33
697.54	152.13
697.67	168.52
697.80	154.48
697.94	182.56
698.07	205.97
698.21	124.05
698.34	142.77
698.47	149.79
698.61	163.84
698.74	145.11
698.87	191.92
699.01	175.54
699.14	152.13
699.27	194.26
699.40	255.12
699.54	217.67
699.67	138.09
699.80	126.39
699.94	163.84
700.07	154.48
700.20	128.73
700.34	154.48
700.47	147.45
700.60	189.58
700.73	124.05
700.87	187.24
701.00	201.29
701.13	159.16
701.26	163.84
701.40	147.45
701.53	128.73
701.66	135.75
701.79	98.30
701.93	191.92
702.06	250.44
702.19	124.05
702.32	227.03
702.46	180.22
702.59	128.73
702.72	224.69
702.85	229.37
702.99	163.84
703.12	222.35
703.25	191.92
703.38	147.45
703.51	224.69
703.65	217.67
703.78	250.44
703.91	234.05
704.04	229.37
704.17	231.71
704.31	227.03
704.44	220.01
704.57	257.46
704.70	252.78
704.83	231.71
704.96	243.42
705.10	184.90
705.23	294.91
>>>>>End Processed Spectral Data<<<<<
