SpectraSuite Data File
++++++++++++++++++++++++++++++++++++
Date: Fri Oct 04 11:41:48 GMT-05:00 2013
User: price-jones
Dark Spectrum Present: No
Reference Spectrum Present: No
Number of Sampled Component Spectra: 1
Spectrometers: USB2+H05261
Integration Time (usec): 100000 (USB2+H05261)
Spectra Averaged: 1 (USB2+H05261)
Boxcar Smoothing: 0 (USB2+H05261)
Correct for Electrical Dark: No (USB2+H05261)
Strobe/Lamp Enabled: No (USB2+H05261)
Correct for Detector Non-linearity: No (USB2+H05261)
Correct for Stray Light: No (USB2+H05261)
Number of Pixels in Processed Spectrum: 2048
>>>>>Begin Processed Spectral Data<<<<<
365.73	18.72
365.92	18.72
366.12	18.72
366.32	0.00
366.52	0.00
366.72	4.68
366.91	0.00
367.11	0.00
367.31	0.00
367.51	0.00
367.70	0.00
367.90	0.00
368.10	0.00
368.30	0.00
368.49	0.00
368.69	0.00
368.89	0.00
369.09	0.00
369.28	0.00
369.48	0.00
369.68	0.00
369.87	0.00
370.07	9.36
370.27	35.11
370.47	60.85
370.66	42.13
370.86	88.94
371.06	140.43
371.25	102.98
371.45	91.28
371.65	51.49
371.84	88.94
372.04	102.98
372.24	91.28
372.44	63.19
372.63	42.13
372.83	112.35
373.03	81.92
373.22	119.37
373.42	112.35
373.62	100.64
373.81	117.03
374.01	177.88
374.21	135.75
374.40	166.18
374.60	145.11
374.79	88.94
374.99	107.66
375.19	156.82
375.38	170.86
375.58	175.54
375.78	140.43
375.97	147.45
376.17	152.13
376.37	110.01
376.56	163.84
376.76	145.11
376.95	119.37
377.15	128.73
377.35	98.30
377.54	107.66
377.74	119.37
377.93	112.35
378.13	95.96
378.33	173.20
378.52	77.24
378.72	149.79
378.91	208.31
379.11	84.26
379.31	138.09
379.50	140.43
379.70	121.71
379.89	95.96
380.09	154.48
380.28	74.90
380.48	205.97
380.68	102.98
380.87	168.52
381.07	58.51
381.26	175.54
381.46	28.09
381.65	91.28
381.85	117.03
382.04	196.60
382.24	198.95
382.43	53.83
382.63	119.37
382.83	114.69
383.02	102.98
383.22	154.48
383.41	154.48
383.61	135.75
383.80	161.50
384.00	121.71
384.19	100.64
384.39	86.60
384.58	49.15
384.78	110.01
384.97	159.16
385.17	74.90
385.36	86.60
385.56	93.62
385.75	42.13
385.95	105.32
386.14	187.24
386.34	60.85
386.53	154.48
386.72	88.94
386.92	159.16
387.11	70.22
387.31	124.05
387.50	126.39
387.70	30.43
387.89	128.73
388.09	91.28
388.28	140.43
388.48	105.32
388.67	205.97
388.86	56.17
389.06	187.24
389.25	74.90
389.45	170.86
389.64	138.09
389.84	222.35
390.03	147.45
390.22	63.19
390.42	102.98
390.61	98.30
390.81	203.63
391.00	81.92
391.19	229.37
391.39	67.88
391.58	147.45
391.78	189.58
391.97	100.64
392.16	161.50
392.36	60.85
392.55	131.07
392.75	110.01
392.94	138.09
393.13	86.60
393.33	93.62
393.52	163.84
393.71	121.71
393.91	91.28
394.10	126.39
394.29	4.68
394.49	138.09
394.68	133.41
394.88	95.96
395.07	180.22
395.26	138.09
395.46	88.94
395.65	168.52
395.84	135.75
396.04	163.84
396.23	107.66
396.42	88.94
396.62	124.05
396.81	133.41
397.00	159.16
397.19	161.50
397.39	152.13
397.58	243.42
397.77	156.82
397.97	138.09
398.16	152.13
398.35	142.77
398.55	133.41
398.74	196.60
398.93	198.95
399.12	145.11
399.32	196.60
399.51	128.73
399.70	138.09
399.90	177.88
400.09	149.79
400.28	133.41
400.47	128.73
400.67	147.45
400.86	105.32
401.05	140.43
401.24	63.19
401.44	102.98
401.63	175.54
401.82	189.58
402.01	93.62
402.21	234.05
402.40	205.97
402.59	163.84
402.78	227.03
402.97	189.58
403.17	205.97
403.36	210.65
403.55	393.21
403.74	648.33
403.93	2057.33
404.13	5146.84
404.32	7702.70
404.51	6754.79
404.70	4042.11
404.89	1544.75
405.09	505.56
405.28	299.59
405.47	262.14
405.66	234.05
405.85	201.29
406.05	222.35
406.24	166.18
406.43	245.76
406.62	220.01
406.81	262.14
407.00	315.97
407.20	629.60
407.39	954.94
407.58	1163.25
407.77	844.93
407.96	482.15
408.15	301.93
408.34	224.69
408.54	250.44
408.73	161.50
408.92	161.50
409.11	163.84
409.30	215.33
409.49	215.33
409.68	194.26
409.87	184.90
410.07	220.01
410.26	217.67
410.45	201.29
410.64	147.45
410.83	252.78
411.02	187.24
411.21	210.65
411.40	220.01
411.59	257.46
411.78	201.29
411.98	187.24
412.17	191.92
412.36	224.69
412.55	217.67
412.74	114.69
412.93	243.42
413.12	248.10
413.31	154.48
413.50	248.10
413.69	276.18
413.88	264.48
414.07	266.82
414.26	220.01
414.45	224.69
414.64	208.31
414.83	217.67
415.02	238.73
415.22	222.35
415.41	210.65
415.60	243.42
415.79	292.57
415.98	250.44
416.17	217.67
416.36	252.78
416.55	255.12
416.74	278.52
416.93	313.63
417.12	201.29
417.31	191.92
417.50	217.67
417.69	313.63
417.88	313.63
418.07	304.27
418.26	276.18
418.45	262.14
418.64	313.63
418.83	227.03
419.02	278.52
419.21	238.73
419.39	276.18
419.58	283.20
419.77	248.10
419.96	292.57
420.15	292.57
420.34	205.97
420.53	238.73
420.72	297.25
420.91	245.76
421.10	299.59
421.29	332.36
421.48	269.16
421.67	304.27
421.86	262.14
422.05	257.46
422.24	292.57
422.43	297.25
422.61	341.72
422.80	311.29
422.99	320.65
423.18	220.01
423.37	386.19
423.56	339.38
423.75	358.10
423.94	330.02
424.13	348.74
424.32	266.82
424.50	276.18
424.69	292.57
424.88	306.61
425.07	313.63
425.26	355.76
425.45	353.42
425.64	266.82
425.83	337.04
426.01	330.02
426.20	341.72
426.39	334.70
426.58	315.97
426.77	320.65
426.96	355.76
427.15	322.99
427.33	365.12
427.52	327.68
427.71	355.76
427.90	325.33
428.09	337.04
428.28	262.14
428.46	393.21
428.65	400.23
428.84	444.70
429.03	374.49
429.22	411.93
429.40	360.44
429.59	334.70
429.78	418.96
429.97	374.49
430.16	383.85
430.34	344.06
430.53	435.34
430.72	423.64
430.91	444.70
431.10	353.42
431.28	390.87
431.47	379.17
431.66	369.80
431.85	386.19
432.03	430.66
432.22	496.19
432.41	444.70
432.60	470.45
432.79	465.77
432.97	533.64
433.16	578.11
433.35	582.79
433.54	664.71
433.72	685.78
433.91	667.05
434.10	713.86
434.28	887.06
434.47	1111.75
434.66	1114.10
434.85	1439.43
435.03	3496.76
435.22	12617.83
435.41	30934.86
435.59	35211.02
435.78	22665.75
435.97	11332.87
436.16	4269.14
436.34	1556.46
436.53	919.83
436.72	751.31
436.90	559.39
437.09	615.56
437.28	500.87
437.46	554.71
437.65	531.30
437.84	486.83
438.02	552.37
438.21	503.22
438.40	465.77
438.58	376.83
438.77	472.79
438.96	451.72
439.14	493.85
439.33	507.90
439.52	510.24
439.70	477.47
439.89	528.96
440.08	486.83
440.26	493.85
440.45	512.58
440.63	430.66
440.82	468.11
441.01	500.87
441.19	503.22
441.38	491.51
441.57	510.24
441.75	491.51
441.94	458.74
442.12	449.38
442.31	479.81
442.50	461.09
442.68	390.87
442.87	428.32
443.05	440.02
443.24	545.34
443.43	440.02
443.61	444.70
443.80	449.38
443.98	435.34
444.17	514.92
444.35	486.83
444.54	451.72
444.73	482.15
444.91	458.74
445.10	404.91
445.28	566.41
445.47	451.72
445.65	498.53
445.84	449.38
446.02	517.26
446.21	496.19
446.39	489.17
446.58	447.04
446.77	512.58
446.95	505.56
447.14	416.62
447.32	568.75
447.51	486.83
447.69	414.27
447.88	489.17
448.06	498.53
448.25	456.40
448.43	409.59
448.62	376.83
448.80	400.23
448.99	414.27
449.17	421.30
449.36	430.66
449.54	489.17
449.73	451.72
449.91	465.77
450.10	507.90
450.28	514.92
450.46	454.06
450.65	428.32
450.83	477.47
451.02	482.15
451.20	458.74
451.39	416.62
451.57	491.51
451.76	442.36
451.94	482.15
452.13	489.17
452.31	489.17
452.49	435.34
452.68	470.45
452.86	496.19
453.05	540.66
453.23	463.43
453.42	440.02
453.60	479.81
453.78	512.58
453.97	430.66
454.15	416.62
454.34	416.62
454.52	507.90
454.70	428.32
454.89	442.36
455.07	458.74
455.26	433.00
455.44	531.30
455.62	491.51
455.81	454.06
455.99	500.87
456.17	393.21
456.36	484.49
456.54	475.13
456.73	442.36
456.91	533.64
457.09	461.09
457.28	433.00
457.46	566.41
457.64	491.51
457.83	418.96
458.01	444.70
458.19	491.51
458.38	482.15
458.56	449.38
458.74	545.34
458.93	458.74
459.11	430.66
459.29	416.62
459.48	517.26
459.66	484.49
459.84	444.70
460.03	461.09
460.21	524.28
460.39	468.11
460.57	500.87
460.76	425.98
460.94	484.49
461.12	498.53
461.31	493.85
461.49	444.70
461.67	414.27
461.85	454.06
462.04	442.36
462.22	901.11
462.40	428.32
462.59	505.56
462.77	367.46
462.95	486.83
463.13	456.40
463.32	475.13
463.50	411.93
463.68	535.98
463.86	376.83
464.05	416.62
464.23	489.17
464.41	482.15
464.59	404.91
464.78	388.53
464.96	456.40
465.14	503.22
465.32	449.38
465.50	486.83
465.69	416.62
465.87	421.30
466.05	479.81
466.23	479.81
466.41	486.83
466.60	538.32
466.78	489.17
466.96	484.49
467.14	493.85
467.32	531.30
467.51	433.00
467.69	440.02
467.87	484.49
468.05	393.21
468.23	416.62
468.41	517.26
468.60	447.04
468.78	423.64
468.96	416.62
469.14	372.15
469.32	447.04
469.50	386.19
469.69	393.21
469.87	411.93
470.05	472.79
470.23	437.68
470.41	440.02
470.59	379.17
470.77	407.25
470.95	468.11
471.14	500.87
471.32	400.23
471.50	461.09
471.68	456.40
471.86	435.34
472.04	346.40
472.22	463.43
472.40	458.74
472.58	353.42
472.77	379.17
472.95	461.09
473.13	519.60
473.31	421.30
473.49	456.40
473.67	440.02
473.85	383.85
474.03	461.09
474.21	430.66
474.39	430.66
474.57	421.30
474.75	486.83
474.93	386.19
475.12	400.23
475.30	411.93
475.48	386.19
475.66	461.09
475.84	451.72
476.02	444.70
476.20	468.11
476.38	416.62
476.56	521.94
476.74	402.57
476.92	390.87
477.10	397.89
477.28	482.15
477.46	451.72
477.64	444.70
477.82	437.68
478.00	489.17
478.18	486.83
478.36	428.32
478.54	451.72
478.72	393.21
478.90	561.73
479.08	491.51
479.26	561.73
479.44	638.97
479.62	589.82
479.80	580.45
479.98	599.18
480.16	601.52
480.34	634.29
480.52	662.37
480.70	653.01
480.88	617.90
481.06	737.27
481.24	711.52
481.41	875.36
481.59	835.57
481.77	887.06
481.95	957.28
482.13	978.34
482.31	1081.33
482.49	1064.94
482.67	1200.69
482.85	1275.59
483.03	1315.38
483.21	1460.49
483.39	1528.37
483.57	1572.84
483.74	1717.95
483.92	1905.20
484.10	1942.64
484.28	2036.27
484.46	2169.68
484.64	2251.60
484.82	2251.60
485.00	2480.97
485.18	2595.65
485.35	2869.50
485.53	2932.69
485.71	3066.10
485.89	3164.40
486.07	3019.29
486.25	3234.62
486.43	3211.22
486.61	3162.06
486.78	3398.46
486.96	3246.32
487.14	3290.79
487.32	3112.91
487.50	3379.73
487.68	3084.83
487.85	3098.87
488.03	3002.91
488.21	3066.10
488.39	2965.46
488.57	2871.84
488.75	2930.35
488.92	3061.42
489.10	2651.83
489.28	2668.21
489.46	2597.99
489.64	2445.86
489.81	2537.14
489.99	2471.61
490.17	2368.62
490.35	2466.92
490.53	2466.92
490.70	2443.52
490.88	2476.29
491.06	2532.46
491.24	2764.17
491.41	2719.70
491.59	2672.89
491.77	2495.01
491.95	2413.09
492.13	2324.15
492.30	2141.59
492.48	2272.66
492.66	2083.08
492.84	2207.13
493.01	2150.95
493.19	2122.87
493.37	2059.67
493.54	2062.01
493.72	1980.09
493.90	1921.58
494.08	1959.03
494.25	1968.39
494.43	1886.47
494.61	1895.83
494.79	1872.43
494.96	1802.21
495.14	1741.36
495.32	1839.66
495.49	1790.51
495.67	1678.16
495.85	1722.63
496.02	1678.16
496.20	1596.25
496.38	1647.74
496.55	1600.93
496.73	1579.86
496.91	1479.22
497.09	1554.12
497.26	1516.67
497.44	1451.13
497.62	1476.88
497.79	1359.85
497.97	1310.70
498.14	1352.83
498.32	1301.34
498.50	1259.21
498.67	1165.59
498.85	1289.64
499.03	1233.46
499.20	1167.93
499.38	1149.20
499.56	1121.12
499.73	1146.86
499.91	1188.99
500.08	1057.92
500.26	1011.11
500.44	1053.24
500.61	964.30
500.79	940.90
500.97	940.90
501.14	896.43
501.32	823.87
501.49	873.02
501.67	814.51
501.84	795.78
502.02	781.74
502.20	833.23
502.37	805.14
502.55	667.05
502.72	725.57
502.90	751.31
503.07	737.27
503.25	788.76
503.43	667.05
503.60	552.37
503.78	521.94
503.95	615.56
504.13	660.03
504.30	599.18
504.48	631.94
504.65	550.03
504.83	608.54
505.01	582.79
505.18	613.22
505.36	526.62
505.53	489.17
505.71	517.26
505.88	608.54
506.06	540.66
506.23	578.11
506.41	535.98
506.58	589.82
506.76	489.17
506.93	442.36
507.11	543.00
507.28	505.56
507.46	451.72
507.63	489.17
507.81	496.19
507.98	472.79
508.16	517.26
508.33	524.28
508.50	498.53
508.68	543.00
508.85	524.28
509.03	498.53
509.20	500.87
509.38	531.30
509.55	517.26
509.73	519.60
509.90	435.34
510.08	454.06
510.25	451.72
510.42	447.04
510.60	383.85
510.77	496.19
510.95	482.15
511.12	407.25
511.30	397.89
511.47	489.17
511.64	463.43
511.82	411.93
511.99	430.66
512.17	496.19
512.34	430.66
512.51	428.32
512.69	425.98
512.86	447.04
513.04	461.09
513.21	388.53
513.38	447.04
513.56	414.27
513.73	386.19
513.90	442.36
514.08	414.27
514.25	418.96
514.43	402.57
514.60	393.21
514.77	428.32
514.95	400.23
515.12	411.93
515.29	442.36
515.47	386.19
515.64	369.80
515.81	320.65
515.99	428.32
516.16	390.87
516.33	362.78
516.51	435.34
516.68	360.44
516.85	341.72
517.03	395.55
517.20	337.04
517.37	362.78
517.54	390.87
517.72	367.46
517.89	327.68
518.06	322.99
518.24	486.83
518.41	428.32
518.58	400.23
518.75	334.70
518.93	287.89
519.10	381.51
519.27	428.32
519.45	400.23
519.62	444.70
519.79	393.21
519.96	365.12
520.14	409.59
520.31	409.59
520.48	376.83
520.65	362.78
520.83	325.33
521.00	325.33
521.17	402.57
521.34	344.06
521.52	402.57
521.69	440.02
521.86	341.72
522.03	376.83
522.20	423.64
522.38	318.31
522.55	301.93
522.72	269.16
522.89	306.61
523.07	409.59
523.24	325.33
523.41	393.21
523.58	334.70
523.75	369.80
523.92	358.10
524.10	367.46
524.27	402.57
524.44	372.15
524.61	397.89
524.78	301.93
524.96	381.51
525.13	383.85
525.30	379.17
525.47	435.34
525.64	437.68
525.81	402.57
525.98	395.55
526.16	416.62
526.33	353.42
526.50	428.32
526.67	360.44
526.84	353.42
527.01	433.00
527.18	531.30
527.36	521.94
527.53	531.30
527.70	552.37
527.87	472.79
528.04	454.06
528.21	489.17
528.38	500.87
528.55	557.05
528.72	500.87
528.89	503.22
529.07	468.11
529.24	482.15
529.41	475.13
529.58	442.36
529.75	528.96
529.92	526.62
530.09	484.49
530.26	463.43
530.43	603.86
530.60	531.30
530.77	627.26
530.94	669.39
531.11	629.60
531.28	669.39
531.46	566.41
531.63	660.03
531.80	657.69
531.97	720.88
532.14	805.14
532.31	863.66
532.48	1181.97
532.65	1362.19
532.82	1406.66
532.99	1617.31
533.16	1888.81
533.33	1987.11
533.50	1764.76
533.67	1614.97
533.84	1427.73
534.01	1287.29
534.18	1240.48
534.35	1067.28
534.52	1114.10
534.69	1266.23
534.86	1254.53
535.03	1172.61
535.20	1313.04
535.37	1362.19
535.54	1434.75
535.71	1526.03
535.88	1703.91
536.05	1708.59
536.22	1795.19
536.38	1942.64
536.55	2200.10
536.72	2406.07
536.89	2640.12
537.06	3028.65
537.23	3309.52
537.40	3672.30
537.57	3896.99
537.74	4065.51
537.91	4234.03
538.08	4358.08
538.25	4470.42
538.42	4449.36
538.59	4461.06
538.75	4718.52
538.92	5050.88
539.09	5453.45
539.26	5963.68
539.43	6717.34
539.60	7758.88
539.77	8561.68
539.94	9650.03
540.11	10761.78
540.28	11667.57
540.44	12758.26
540.61	14160.24
540.78	16077.14
540.95	19609.01
541.12	23484.94
541.29	26300.60
541.46	28198.77
541.62	27835.99
541.79	26473.80
541.96	24912.66
542.13	23143.22
542.30	21371.43
542.47	19908.60
542.63	19035.58
542.80	18450.44
542.97	18118.09
543.14	17987.02
543.31	18071.28
543.48	18443.42
543.64	18487.89
543.81	18455.12
543.98	18417.68
544.15	18897.49
544.32	18806.20
544.48	18644.71
544.65	18295.97
544.82	18125.11
544.99	18312.35
545.16	18743.01
545.32	19548.15
545.49	31189.98
545.66	55241.32
545.83	62230.16
546.00	58075.71
546.16	43512.90
546.33	32374.29
546.50	24212.84
546.67	18948.98
546.83	16886.97
547.00	16379.07
547.17	15222.84
547.34	14747.72
547.50	14300.67
547.67	13898.10
547.84	12910.40
548.00	12250.36
548.17	12135.68
548.34	11775.24
548.51	11131.59
548.67	10726.68
548.84	10239.84
549.01	9591.52
549.18	9408.95
549.34	9041.49
549.51	8641.26
549.68	8308.90
549.84	7918.03
550.01	7412.48
550.18	7119.91
550.34	7115.23
550.51	6333.49
550.68	6097.10
550.84	5816.23
551.01	5746.02
551.18	5362.17
551.34	4936.19
551.51	4744.27
551.68	4674.05
551.84	4547.66
552.01	4283.18
552.18	4264.46
552.34	3974.23
552.51	3833.80
552.68	3735.50
552.84	3578.68
553.01	3487.40
553.18	3267.39
553.34	3206.53
553.51	3169.09
553.67	3056.74
553.84	2942.05
554.01	2740.77
554.17	2492.67
554.34	2366.28
554.51	2270.32
554.67	2019.88
554.84	2108.82
555.00	1944.99
555.17	1856.04
555.33	1715.61
555.50	1633.69
555.67	1633.69
555.83	1467.52
556.00	1430.07
556.16	1523.69
556.33	1390.28
556.50	1397.30
556.66	1303.68
556.83	1252.19
556.99	1254.53
557.16	1273.25
557.32	1095.37
557.49	1149.20
557.65	1114.10
557.82	1025.15
557.98	1039.20
558.15	1018.13
558.32	1006.43
558.48	933.87
558.65	1001.75
558.81	971.32
558.98	915.15
559.14	882.38
559.31	842.59
559.47	802.80
559.64	903.45
559.80	847.27
559.97	830.89
560.13	870.68
560.30	805.14
560.46	755.99
560.63	891.74
560.79	765.36
560.96	795.78
561.12	760.67
561.29	765.36
561.45	791.10
561.61	854.30
561.78	800.46
561.94	798.12
562.11	734.93
562.27	786.42
562.44	777.06
562.60	765.36
562.77	786.42
562.93	781.74
563.10	816.85
563.26	774.72
563.42	692.80
563.59	767.70
563.75	702.16
563.92	713.86
564.08	716.20
564.24	702.16
564.41	699.82
564.57	667.05
564.74	631.94
564.90	624.92
565.07	552.37
565.23	634.29
565.39	620.24
565.56	603.86
565.72	580.45
565.88	601.52
566.05	582.79
566.21	603.86
566.38	634.29
566.54	650.67
566.70	566.41
566.87	622.58
567.03	653.01
567.19	650.67
567.36	631.94
567.52	594.50
567.68	610.88
567.85	622.58
568.01	566.41
568.17	631.94
568.34	660.03
568.50	660.03
568.66	671.73
568.83	699.82
568.99	664.71
569.15	617.90
569.32	608.54
569.48	608.54
569.64	613.22
569.81	547.69
569.97	521.94
570.13	496.19
570.30	489.17
570.46	440.02
570.62	458.74
570.78	397.89
570.95	386.19
571.11	526.62
571.27	442.36
571.43	468.11
571.60	552.37
571.76	503.22
571.92	463.43
572.09	472.79
572.25	521.94
572.41	484.49
572.57	447.04
572.74	526.62
572.90	500.87
573.06	519.60
573.22	582.79
573.38	566.41
573.55	463.43
573.71	503.22
573.87	571.09
574.03	533.64
574.20	568.75
574.36	526.62
574.52	615.56
574.68	606.20
574.84	631.94
575.01	645.99
575.17	653.01
575.33	603.86
575.49	772.38
575.65	812.17
575.82	997.07
575.98	973.66
576.14	1086.01
576.30	2167.34
576.46	6202.42
576.62	12580.38
576.79	13263.82
576.95	9453.42
577.11	5989.43
577.27	4348.72
577.43	3077.80
577.59	1867.75
577.75	1493.26
577.92	1437.09
578.08	1284.95
578.24	1371.55
578.40	2193.08
578.56	6153.27
578.72	11122.23
578.88	12320.58
579.04	9130.43
579.21	6300.72
579.37	4582.77
579.53	3754.22
579.69	3471.01
579.85	4067.85
580.01	4884.70
580.17	4830.87
580.33	4046.79
580.49	3463.99
580.65	3082.49
580.82	2874.18
580.98	2855.45
581.14	2738.43
581.30	2918.65
581.46	3169.09
581.62	3468.67
581.78	3681.66
581.94	3817.41
582.10	4065.51
582.26	4252.75
582.42	4414.25
582.58	4587.45
582.74	4744.27
582.90	4531.28
583.06	4620.22
583.22	4765.33
583.38	4723.20
583.54	4746.61
583.70	4758.31
583.86	4702.14
584.02	4657.67
584.18	4449.36
584.34	4353.40
584.50	4381.48
584.66	4234.03
584.82	4149.77
584.98	4318.29
585.14	4142.75
585.30	3978.91
585.46	3871.25
585.62	3833.80
585.78	4023.38
585.94	3829.12
586.10	4079.55
586.26	4198.92
586.42	4706.82
586.58	5781.12
586.74	7019.27
586.90	8308.90
587.06	9130.43
587.22	8851.91
587.38	7962.50
587.54	7103.53
587.70	5947.30
587.86	5149.18
588.02	4229.35
588.18	3812.73
588.34	3407.82
588.49	3173.77
588.65	2885.88
588.81	2843.75
588.97	2644.81
589.13	2722.04
589.29	2677.57
589.45	2560.55
589.61	2623.74
589.77	2637.78
589.93	2640.12
590.08	2724.38
590.24	2750.13
590.40	2939.71
590.56	2995.89
590.72	3077.80
590.88	3115.25
591.04	3194.83
591.20	3314.20
591.35	3412.50
591.51	3777.62
591.67	3730.81
591.83	3882.95
591.99	4344.03
592.15	4830.87
592.31	5076.62
592.46	5764.74
592.62	6155.61
592.78	6483.28
592.94	6672.87
593.10	6487.96
593.26	6125.18
593.41	5783.46
593.57	5135.14
593.73	4503.19
593.89	4100.62
594.05	3770.60
594.20	3070.78
594.36	3091.85
594.52	2815.66
594.68	2616.72
594.84	2502.03
594.99	2450.54
595.15	2396.71
595.31	2340.54
595.47	2349.90
595.62	2310.11
595.78	2328.83
595.94	2368.62
596.10	2321.81
596.25	2523.10
596.41	2509.05
596.57	2427.14
596.73	2370.96
596.88	2366.28
597.04	2363.94
597.20	2415.43
597.36	2408.41
597.51	2478.63
597.67	2469.27
597.83	2607.36
597.99	2818.00
598.14	2881.20
598.30	3033.33
598.46	3339.94
598.61	3583.36
598.77	3665.28
598.93	3777.62
599.09	3974.23
599.24	3962.53
599.40	4028.06
599.56	3887.63
599.71	3857.20
599.87	3595.06
600.03	3176.11
600.18	2899.92
600.34	2853.11
600.50	2665.87
600.65	2408.41
600.81	2363.94
600.97	2167.34
601.12	2157.97
601.28	2120.53
601.44	1930.94
601.59	1860.73
601.75	1771.79
601.91	1717.95
602.06	1678.16
602.22	1706.25
602.37	1650.08
602.53	1516.67
602.69	1556.46
602.84	1481.56
603.00	1582.20
603.16	1596.25
603.31	1504.96
603.47	1659.44
603.62	1645.40
603.78	1610.29
603.94	1813.92
604.09	1753.06
604.25	1767.10
604.40	1799.87
604.56	1816.26
604.71	1769.44
604.87	1858.39
605.03	1849.02
605.18	1996.48
605.34	1930.94
605.49	1952.01
605.65	1959.03
605.80	2066.69
605.96	2225.85
606.12	2394.37
606.27	2490.33
606.43	2541.82
606.58	2616.72
606.74	2553.52
606.89	2869.50
607.05	2995.89
607.20	3063.76
607.36	3286.11
607.51	3496.76
607.67	3555.27
607.82	3967.21
607.98	4184.88
608.13	4578.09
608.29	4788.74
608.44	5385.57
608.60	5830.27
608.75	6265.61
608.91	7014.59
609.06	7522.48
609.22	8437.63
609.37	9025.11
609.53	10281.97
609.68	11758.85
609.84	13083.59
609.99	15651.16
610.15	18796.84
610.30	22937.25
610.46	29010.94
610.61	37457.93
610.76	47402.87
610.92	54454.90
611.07	57907.19
611.23	58309.77
611.38	56788.42
611.54	53186.33
611.69	48055.88
611.84	40531.06
612.00	34167.14
612.15	28795.61
612.31	24898.62
612.46	22253.81
612.62	20657.57
612.77	19250.91
612.92	18167.24
613.08	17099.95
613.23	16240.98
613.39	15819.68
613.54	15300.08
613.69	14810.91
613.85	15197.10
614.00	14469.19
614.15	14417.70
614.31	14263.22
614.46	13818.52
614.62	13537.66
614.77	12814.43
614.92	11992.90
615.08	11400.75
615.23	10478.58
615.38	9610.24
615.54	8681.05
615.69	8140.38
615.84	7290.77
616.00	6670.53
616.15	6125.18
616.30	5893.47
616.46	5579.84
616.61	5186.63
616.76	4997.04
616.92	4613.20
617.07	4414.25
617.22	4229.35
617.37	3948.48
617.53	3955.51
617.68	3833.80
617.83	3499.10
617.99	3438.25
618.14	3452.29
618.29	3255.69
618.45	3054.40
618.60	3133.98
618.75	3049.72
618.90	2981.84
619.06	3033.33
619.21	3131.64
619.36	3026.31
619.51	2984.18
619.67	3038.02
619.82	2995.89
619.97	3136.32
620.12	3150.36
620.28	3197.17
620.43	2995.89
620.58	3260.37
620.73	3201.85
620.89	3283.77
621.04	3297.81
621.19	3363.35
621.34	3180.79
621.49	3133.98
621.65	3162.06
621.80	3180.79
621.95	3201.85
622.10	3136.32
622.25	3173.77
622.41	3185.47
622.56	3162.06
622.71	3332.92
622.86	3557.61
623.01	3468.67
623.16	3606.77
623.32	3480.38
623.47	3513.14
623.62	3438.25
623.77	3571.66
623.92	3581.02
624.07	3501.44
624.23	3538.89
624.38	3559.95
624.53	3510.80
624.68	3475.70
624.83	3583.36
624.98	3709.75
625.13	3616.13
625.29	3562.30
625.44	3501.44
625.59	3623.15
625.74	3735.50
625.89	3634.85
626.04	3583.36
626.19	3651.24
626.34	3620.81
626.49	3719.11
626.65	3618.47
626.80	3684.00
626.95	3508.46
627.10	3562.30
627.25	3478.04
627.40	3492.08
627.55	3349.31
627.70	3295.47
627.85	3290.79
628.00	3187.81
628.15	3185.47
628.30	3089.51
628.45	3173.77
628.60	3054.40
628.76	3131.64
628.91	3215.90
629.06	3281.43
629.21	3281.43
629.36	3290.79
629.51	3522.51
629.66	3674.64
629.81	4060.83
629.96	4365.10
630.11	4847.25
630.26	5369.19
630.41	6097.10
630.56	6335.83
630.71	7019.27
630.86	7215.87
631.01	6949.05
631.16	6457.54
631.31	5743.67
631.46	4858.95
631.61	4243.39
631.76	3679.32
631.91	3061.42
632.06	2492.67
632.21	2242.23
632.36	2022.22
632.51	1710.93
632.66	1692.21
632.81	1409.00
632.96	1425.39
633.10	1289.64
633.25	1284.95
633.40	1261.55
633.55	1144.52
633.70	1032.18
633.85	1050.90
634.00	992.39
634.15	1004.09
634.30	1156.22
634.45	1011.11
634.60	917.49
634.75	987.71
634.90	947.92
635.05	891.74
635.19	966.64
635.34	940.90
635.49	861.32
635.64	915.15
635.79	814.51
635.94	891.74
636.09	835.57
636.24	823.87
636.39	835.57
636.53	805.14
636.68	763.01
636.83	821.53
636.98	837.91
637.13	844.93
637.28	868.34
637.43	819.19
637.57	784.08
637.72	784.08
637.87	638.97
638.02	706.84
638.17	690.46
638.32	704.50
638.46	641.31
638.61	711.52
638.76	667.05
638.91	688.12
639.06	547.69
639.20	622.58
639.35	716.20
639.50	610.88
639.65	660.03
639.80	641.31
639.94	723.23
640.09	669.39
640.24	620.24
640.39	641.31
640.54	650.67
640.68	601.52
640.83	617.90
640.98	610.88
641.13	650.67
641.27	601.52
641.42	653.01
641.57	664.71
641.72	617.90
641.86	620.24
642.01	706.84
642.16	667.05
642.31	594.50
642.45	732.59
642.60	627.26
642.75	592.16
642.90	653.01
643.04	587.47
643.19	528.96
643.34	643.65
643.48	648.33
643.63	725.57
643.78	641.31
643.93	734.93
644.07	674.07
644.22	629.60
644.37	671.73
644.51	734.93
644.66	669.39
644.81	603.86
644.95	645.99
645.10	606.20
645.25	634.29
645.39	650.67
645.54	580.45
645.69	610.88
645.83	641.31
645.98	629.60
646.13	566.41
646.27	601.52
646.42	552.37
646.57	557.05
646.71	568.75
646.86	571.09
647.00	641.31
647.15	610.88
647.30	514.92
647.44	559.39
647.59	552.37
647.74	589.82
647.88	650.67
648.03	645.99
648.17	643.65
648.32	610.88
648.47	589.82
648.61	620.24
648.76	645.99
648.90	704.50
649.05	758.33
649.20	737.27
649.34	695.14
649.49	908.13
649.63	1029.84
649.78	1177.29
649.92	1401.98
650.07	1598.59
650.21	1820.94
650.36	1991.80
650.51	1867.75
650.65	1795.19
650.80	1736.68
650.94	1409.00
651.09	1310.70
651.23	1210.06
651.38	1053.24
651.52	978.34
651.67	950.26
651.81	908.13
651.96	840.25
652.10	723.23
652.25	697.48
652.39	861.32
652.54	767.70
652.68	875.36
652.83	964.30
652.97	971.32
653.12	1020.47
653.26	1022.81
653.41	873.02
653.55	884.72
653.70	734.93
653.84	681.10
653.99	744.29
654.13	688.12
654.27	631.94
654.42	662.37
654.56	589.82
654.71	617.90
654.85	482.15
655.00	596.84
655.14	690.46
655.29	552.37
655.43	629.60
655.57	627.26
655.72	543.00
655.86	531.30
656.01	543.00
656.15	587.47
656.30	613.22
656.44	533.64
656.58	552.37
656.73	594.50
656.87	582.79
657.01	573.43
657.16	779.40
657.30	610.88
657.45	662.37
657.59	671.73
657.73	683.44
657.88	671.73
658.02	699.82
658.16	657.69
658.31	575.77
658.45	589.82
658.60	465.77
658.74	430.66
658.88	505.56
659.03	435.34
659.17	507.90
659.31	442.36
659.46	456.40
659.60	491.51
659.74	435.34
659.89	421.30
660.03	468.11
660.17	470.45
660.32	400.23
660.46	404.91
660.60	449.38
660.74	463.43
660.89	442.36
661.03	421.30
661.17	477.47
661.32	505.56
661.46	578.11
661.60	657.69
661.74	830.89
661.89	1008.77
662.03	1069.62
662.17	1156.22
662.31	1198.35
662.46	1123.46
662.60	1074.31
662.74	961.96
662.88	947.92
663.03	842.59
663.17	788.76
663.31	706.84
663.45	662.37
663.60	601.52
663.74	575.77
663.88	526.62
664.02	486.83
664.17	489.17
664.31	463.43
664.45	510.24
664.59	463.43
664.73	411.93
664.88	482.15
665.02	491.51
665.16	351.08
665.30	437.68
665.44	418.96
665.59	362.78
665.73	437.68
665.87	397.89
666.01	402.57
666.15	416.62
666.29	440.02
666.44	465.77
666.58	482.15
666.72	430.66
666.86	402.57
667.00	470.45
667.14	379.17
667.28	465.77
667.43	435.34
667.57	458.74
667.71	395.55
667.85	381.51
667.99	376.83
668.13	351.08
668.27	360.44
668.41	411.93
668.56	404.91
668.70	369.80
668.84	397.89
668.98	390.87
669.12	386.19
669.26	381.51
669.40	374.49
669.54	449.38
669.68	386.19
669.82	418.96
669.96	407.25
670.10	407.25
670.25	362.78
670.39	381.51
670.53	358.10
670.67	423.64
670.81	372.15
670.95	437.68
671.09	402.57
671.23	456.40
671.37	423.64
671.51	365.12
671.65	472.79
671.79	393.21
671.93	369.80
672.07	386.19
672.21	269.16
672.35	383.85
672.49	367.46
672.63	351.08
672.77	390.87
672.91	271.50
673.05	318.31
673.19	297.25
673.33	337.04
673.47	404.91
673.61	313.63
673.75	327.68
673.89	362.78
674.03	372.15
674.17	287.89
674.31	341.72
674.45	297.25
674.59	283.20
674.73	304.27
674.87	383.85
675.01	245.76
675.15	245.76
675.29	297.25
675.43	337.04
675.56	360.44
675.70	341.72
675.84	369.80
675.98	369.80
676.12	231.71
676.26	367.46
676.40	421.30
676.54	346.40
676.68	320.65
676.82	332.36
676.96	386.19
677.10	313.63
677.23	330.02
677.37	346.40
677.51	283.20
677.65	435.34
677.79	266.82
677.93	334.70
678.07	330.02
678.21	220.01
678.34	285.55
678.48	264.48
678.62	353.42
678.76	245.76
678.90	257.46
679.04	308.95
679.18	203.63
679.31	285.55
679.45	322.99
679.59	297.25
679.73	308.95
679.87	297.25
680.00	306.61
680.14	376.83
680.28	423.64
680.42	353.42
680.56	353.42
680.70	332.36
680.83	325.33
680.97	306.61
681.11	341.72
681.25	376.83
681.39	315.97
681.52	365.12
681.66	287.89
681.80	390.87
681.94	308.95
682.07	294.91
682.21	337.04
682.35	355.76
682.49	290.23
682.62	308.95
682.76	266.82
682.90	252.78
683.04	339.38
683.17	257.46
683.31	259.80
683.45	250.44
683.59	330.02
683.72	330.02
683.86	334.70
684.00	222.35
684.13	304.27
684.27	297.25
684.41	252.78
684.55	245.76
684.68	248.10
684.82	212.99
684.96	311.29
685.09	280.86
685.23	297.25
685.37	327.68
685.50	355.76
685.64	341.72
685.78	315.97
685.91	388.53
686.05	477.47
686.19	374.49
686.32	458.74
686.46	489.17
686.60	369.80
686.73	521.94
686.87	514.92
687.01	552.37
687.14	573.43
687.28	622.58
687.42	582.79
687.55	592.16
687.69	744.29
687.82	601.52
687.96	727.91
688.10	664.71
688.23	601.52
688.37	627.26
688.50	594.50
688.64	535.98
688.78	482.15
688.91	367.46
689.05	437.68
689.18	330.02
689.32	222.35
689.46	266.82
689.59	348.74
689.73	301.93
689.86	245.76
690.00	276.18
690.13	243.42
690.27	210.65
690.41	255.12
690.54	369.80
690.68	337.04
690.81	271.50
690.95	374.49
691.08	311.29
691.22	215.33
691.35	248.10
691.49	196.60
691.62	180.22
691.76	220.01
691.89	217.67
692.03	203.63
692.16	187.24
692.30	184.90
692.43	217.67
692.57	236.39
692.70	243.42
692.84	283.20
692.97	231.71
693.11	259.80
693.24	365.12
693.38	433.00
693.51	538.32
693.65	603.86
693.78	489.17
693.92	498.53
694.05	535.98
694.19	395.55
694.32	388.53
694.45	337.04
694.59	301.93
694.72	210.65
694.86	299.59
694.99	222.35
695.13	184.90
695.26	196.60
695.39	238.73
695.53	266.82
695.66	194.26
695.80	217.67
695.93	152.13
696.07	145.11
696.20	269.16
696.33	203.63
696.47	208.31
696.60	215.33
696.73	210.65
696.87	264.48
697.00	236.39
697.14	140.43
697.27	189.58
697.40	212.99
697.54	147.45
697.67	198.95
697.80	196.60
697.94	133.41
698.07	152.13
698.21	168.52
698.34	170.86
698.47	145.11
698.61	198.95
698.74	220.01
698.87	184.90
699.01	156.82
699.14	107.66
699.27	156.82
699.40	227.03
699.54	229.37
699.67	131.07
699.80	142.77
699.94	145.11
700.07	156.82
700.20	191.92
700.34	149.79
700.47	112.35
700.60	147.45
700.73	145.11
700.87	222.35
701.00	105.32
701.13	252.78
701.26	154.48
701.40	170.86
701.53	182.56
701.66	170.86
701.79	215.33
701.93	194.26
702.06	238.73
702.19	191.92
702.32	250.44
702.46	135.75
702.59	210.65
702.72	145.11
702.85	180.22
702.99	182.56
703.12	241.08
703.25	187.24
703.38	173.20
703.51	259.80
703.65	201.29
703.78	215.33
703.91	273.84
704.04	229.37
704.17	210.65
704.31	227.03
704.44	276.18
704.57	273.84
704.70	215.33
704.83	264.48
704.96	341.72
705.10	290.23
705.23	358.10
>>>>>End Processed Spectral Data<<<<<
