SpectraSuite Data File
++++++++++++++++++++++++++++++++++++
Date: Fri Oct 04 11:42:01 GMT-05:00 2013
User: price-jones
Dark Spectrum Present: No
Reference Spectrum Present: No
Number of Sampled Component Spectra: 1
Spectrometers: USB2+H05261
Integration Time (usec): 100000 (USB2+H05261)
Spectra Averaged: 1 (USB2+H05261)
Boxcar Smoothing: 0 (USB2+H05261)
Correct for Electrical Dark: No (USB2+H05261)
Strobe/Lamp Enabled: No (USB2+H05261)
Correct for Detector Non-linearity: No (USB2+H05261)
Correct for Stray Light: No (USB2+H05261)
Number of Pixels in Processed Spectrum: 2048
>>>>>Begin Processed Spectral Data<<<<<
365.73	42.13
365.92	42.13
366.12	42.13
366.32	0.00
366.52	0.00
366.72	0.00
366.91	0.00
367.11	0.00
367.31	0.00
367.51	0.00
367.70	0.00
367.90	0.00
368.10	0.00
368.30	0.00
368.49	0.00
368.69	0.00
368.89	0.00
369.09	0.00
369.28	37.45
369.48	0.00
369.68	0.00
369.87	67.88
370.07	0.00
370.27	51.49
370.47	0.00
370.66	44.47
370.86	121.71
371.06	86.60
371.25	107.66
371.45	119.37
371.65	53.83
371.84	84.26
372.04	72.56
372.24	63.19
372.44	42.13
372.63	112.35
372.83	175.54
373.03	42.13
373.22	91.28
373.42	30.43
373.62	149.79
373.81	168.52
374.01	227.03
374.21	131.07
374.40	128.73
374.60	161.50
374.79	100.64
374.99	187.24
375.19	138.09
375.38	135.75
375.58	81.92
375.78	222.35
375.97	126.39
376.17	163.84
376.37	138.09
376.56	98.30
376.76	138.09
376.95	124.05
377.15	163.84
377.35	124.05
377.54	147.45
377.74	53.83
377.93	77.24
378.13	105.32
378.33	170.86
378.52	161.50
378.72	119.37
378.91	215.33
379.11	95.96
379.31	135.75
379.50	107.66
379.70	166.18
379.89	117.03
380.09	117.03
380.28	159.16
380.48	67.88
380.68	74.90
380.87	131.07
381.07	121.71
381.26	100.64
381.46	156.82
381.65	180.22
381.85	170.86
382.04	117.03
382.24	95.96
382.43	60.85
382.63	100.64
382.83	117.03
383.02	60.85
383.22	105.32
383.41	95.96
383.61	91.28
383.80	128.73
384.00	88.94
384.19	119.37
384.39	208.31
384.58	14.04
384.78	124.05
384.97	56.17
385.17	138.09
385.36	98.30
385.56	166.18
385.75	63.19
385.95	121.71
386.14	131.07
386.34	102.98
386.53	138.09
386.72	95.96
386.92	215.33
387.11	156.82
387.31	140.43
387.50	100.64
387.70	95.96
387.89	140.43
388.09	42.13
388.28	133.41
388.48	152.13
388.67	147.45
388.86	124.05
389.06	81.92
389.25	168.52
389.45	177.88
389.64	140.43
389.84	189.58
390.03	187.24
390.22	138.09
390.42	196.60
390.61	95.96
390.81	112.35
391.00	100.64
391.19	175.54
391.39	107.66
391.58	142.77
391.78	173.20
391.97	114.69
392.16	152.13
392.36	217.67
392.55	112.35
392.75	81.92
392.94	84.26
393.13	177.88
393.33	98.30
393.52	51.49
393.71	182.56
393.91	79.58
394.10	156.82
394.29	152.13
394.49	159.16
394.68	149.79
394.88	135.75
395.07	131.07
395.26	110.01
395.46	98.30
395.65	163.84
395.84	177.88
396.04	210.65
396.23	173.20
396.42	187.24
396.62	191.92
396.81	147.45
397.00	187.24
397.19	105.32
397.39	222.35
397.58	81.92
397.77	102.98
397.97	166.18
398.16	170.86
398.35	105.32
398.55	117.03
398.74	121.71
398.93	95.96
399.12	191.92
399.32	138.09
399.51	147.45
399.70	124.05
399.90	77.24
400.09	159.16
400.28	112.35
400.47	154.48
400.67	210.65
400.86	110.01
401.05	166.18
401.24	114.69
401.44	180.22
401.63	149.79
401.82	170.86
402.01	147.45
402.21	110.01
402.40	184.90
402.59	241.08
402.78	175.54
402.97	142.77
403.17	280.86
403.36	220.01
403.55	255.12
403.74	608.54
403.93	1970.73
404.13	4961.94
404.32	7260.34
404.51	6298.38
404.70	3824.44
404.89	1521.35
405.09	428.32
405.28	273.84
405.47	269.16
405.66	177.88
405.85	271.50
406.05	173.20
406.24	222.35
406.43	201.29
406.62	201.29
406.81	273.84
407.00	365.12
407.20	601.52
407.39	971.32
407.58	1022.81
407.77	760.67
407.96	479.81
408.15	194.26
408.34	149.79
408.54	163.84
408.73	203.63
408.92	138.09
409.11	266.82
409.30	175.54
409.49	161.50
409.68	187.24
409.87	231.71
410.07	201.29
410.26	196.60
410.45	161.50
410.64	135.75
410.83	271.50
411.02	182.56
411.21	194.26
411.40	152.13
411.59	152.13
411.78	173.20
411.98	182.56
412.17	220.01
412.36	231.71
412.55	170.86
412.74	234.05
412.93	255.12
413.12	212.99
413.31	222.35
413.50	198.95
413.69	222.35
413.88	250.44
414.07	191.92
414.26	227.03
414.45	248.10
414.64	170.86
414.83	243.42
415.02	306.61
415.22	215.33
415.41	292.57
415.60	159.16
415.79	266.82
415.98	196.60
416.17	262.14
416.36	262.14
416.55	222.35
416.74	245.76
416.93	266.82
417.12	217.67
417.31	255.12
417.50	264.48
417.69	315.97
417.88	264.48
418.07	208.31
418.26	205.97
418.45	278.52
418.64	271.50
418.83	238.73
419.02	243.42
419.21	271.50
419.39	243.42
419.58	255.12
419.77	250.44
419.96	325.33
420.15	283.20
420.34	166.18
420.53	262.14
420.72	278.52
420.91	292.57
421.10	313.63
421.29	294.91
421.48	236.39
421.67	313.63
421.86	255.12
422.05	304.27
422.24	259.80
422.43	271.50
422.61	297.25
422.80	297.25
422.99	299.59
423.18	278.52
423.37	299.59
423.56	266.82
423.75	330.02
423.94	351.08
424.13	299.59
424.32	339.38
424.50	283.20
424.69	276.18
424.88	297.25
425.07	283.20
425.26	299.59
425.45	294.91
425.64	290.23
425.83	313.63
426.01	348.74
426.20	271.50
426.39	313.63
426.58	280.86
426.77	308.95
426.96	297.25
427.15	318.31
427.33	308.95
427.52	220.01
427.71	315.97
427.90	315.97
428.09	311.29
428.28	262.14
428.46	315.97
428.65	315.97
428.84	353.42
429.03	348.74
429.22	346.40
429.40	346.40
429.59	236.39
429.78	411.93
429.97	269.16
430.16	327.68
430.34	365.12
430.53	360.44
430.72	372.15
430.91	379.17
431.10	341.72
431.28	358.10
431.47	465.77
431.66	369.80
431.85	367.46
432.03	470.45
432.22	383.85
432.41	395.55
432.60	468.11
432.79	393.21
432.97	543.00
433.16	498.53
433.35	421.30
433.54	528.96
433.72	657.69
433.91	578.11
434.10	695.14
434.28	795.78
434.47	929.19
434.66	1102.39
434.85	1224.10
435.03	3438.25
435.22	12140.36
435.41	29216.91
435.59	32636.43
435.78	21184.19
435.97	10326.44
436.16	4159.13
436.34	1437.09
436.53	809.83
436.72	713.86
436.90	664.71
437.09	526.62
437.28	585.13
437.46	428.32
437.65	545.34
437.84	489.17
438.02	510.24
438.21	451.72
438.40	500.87
438.58	402.57
438.77	449.38
438.96	514.92
439.14	484.49
439.33	461.09
439.52	475.13
439.70	444.70
439.89	463.43
440.08	454.06
440.26	386.19
440.45	512.58
440.63	456.40
440.82	528.96
441.01	500.87
441.19	489.17
441.38	409.59
441.57	486.83
441.75	390.87
441.94	486.83
442.12	433.00
442.31	451.72
442.50	475.13
442.68	496.19
442.87	449.38
443.05	472.79
443.24	475.13
443.43	489.17
443.61	578.11
443.80	461.09
443.98	428.32
444.17	440.02
444.35	489.17
444.54	388.53
444.73	484.49
444.91	561.73
445.10	404.91
445.28	456.40
445.47	463.43
445.65	400.23
445.84	395.55
446.02	458.74
446.21	472.79
446.39	491.51
446.58	451.72
446.77	390.87
446.95	442.36
447.14	484.49
447.32	496.19
447.51	449.38
447.69	456.40
447.88	475.13
448.06	498.53
448.25	458.74
448.43	449.38
448.62	470.45
448.80	503.22
448.99	484.49
449.17	421.30
449.36	454.06
449.54	416.62
449.73	374.49
449.91	461.09
450.10	416.62
450.28	486.83
450.46	512.58
450.65	423.64
450.83	411.93
451.02	465.77
451.20	498.53
451.39	437.68
451.57	407.25
451.76	449.38
451.94	447.04
452.13	463.43
452.31	444.70
452.49	451.72
452.68	355.76
452.86	421.30
453.05	458.74
453.23	461.09
453.42	379.17
453.60	484.49
453.78	421.30
453.97	362.78
454.15	430.66
454.34	386.19
454.52	463.43
454.70	465.77
454.89	390.87
455.07	430.66
455.26	463.43
455.44	367.46
455.62	475.13
455.81	440.02
455.99	433.00
456.17	454.06
456.36	496.19
456.54	503.22
456.73	475.13
456.91	440.02
457.09	458.74
457.28	498.53
457.46	414.27
457.64	475.13
457.83	369.80
458.01	421.30
458.19	510.24
458.38	425.98
458.56	423.64
458.74	374.49
458.93	430.66
459.11	425.98
459.29	409.59
459.48	456.40
459.66	430.66
459.84	461.09
460.03	486.83
460.21	400.23
460.39	397.89
460.57	435.34
460.76	428.32
460.94	454.06
461.12	454.06
461.31	454.06
461.49	395.55
461.67	451.72
461.85	425.98
462.04	423.64
462.22	936.21
462.40	491.51
462.59	479.81
462.77	421.30
462.95	447.04
463.13	430.66
463.32	500.87
463.50	470.45
463.68	454.06
463.86	456.40
464.05	444.70
464.23	500.87
464.41	519.60
464.59	458.74
464.78	477.47
464.96	353.42
465.14	407.25
465.32	388.53
465.50	402.57
465.69	442.36
465.87	421.30
466.05	402.57
466.23	386.19
466.41	468.11
466.60	440.02
466.78	447.04
466.96	454.06
467.14	463.43
467.32	437.68
467.51	409.59
467.69	435.34
467.87	489.17
468.05	339.38
468.23	397.89
468.41	451.72
468.60	447.04
468.78	332.36
468.96	365.12
469.14	315.97
469.32	365.12
469.50	325.33
469.69	404.91
469.87	433.00
470.05	369.80
470.23	402.57
470.41	449.38
470.59	355.76
470.77	386.19
470.95	402.57
471.14	468.11
471.32	369.80
471.50	447.04
471.68	435.34
471.86	428.32
472.04	362.78
472.22	344.06
472.40	425.98
472.58	365.12
472.77	407.25
472.95	351.08
473.13	484.49
473.31	393.21
473.49	470.45
473.67	372.15
473.85	475.13
474.03	475.13
474.21	470.45
474.39	386.19
474.57	512.58
474.75	423.64
474.93	433.00
475.12	362.78
475.30	430.66
475.48	423.64
475.66	416.62
475.84	493.85
476.02	433.00
476.20	479.81
476.38	454.06
476.56	498.53
476.74	409.59
476.92	433.00
477.10	425.98
477.28	425.98
477.46	400.23
477.64	465.77
477.82	430.66
478.00	552.37
478.18	507.90
478.36	554.71
478.54	543.00
478.72	442.36
478.90	484.49
479.08	564.07
479.26	559.39
479.44	482.15
479.62	500.87
479.80	601.52
479.98	564.07
480.16	526.62
480.34	655.35
480.52	662.37
480.70	662.37
480.88	655.35
481.06	624.92
481.24	812.17
481.41	805.14
481.59	875.36
481.77	830.89
481.95	945.58
482.13	990.05
482.31	973.66
482.49	1041.54
482.67	1158.57
482.85	1284.95
483.03	1308.36
483.21	1313.04
483.39	1523.69
483.57	1554.12
483.74	1563.48
483.92	1710.93
484.10	1767.10
484.28	1923.92
484.46	2047.97
484.64	2148.61
484.82	2186.06
485.00	2331.17
485.18	2614.38
485.35	2637.78
485.53	2747.79
485.71	2928.01
485.89	2979.50
486.07	3087.17
486.25	3061.42
486.43	3126.96
486.61	3000.57
486.78	3091.85
486.96	2981.84
487.14	3150.36
487.32	3112.91
487.50	2967.80
487.68	3070.78
487.85	2984.18
488.03	2834.39
488.21	2906.95
488.39	2925.67
488.57	2803.96
488.75	2708.00
488.92	2920.99
489.10	2541.82
489.28	2670.55
489.46	2497.35
489.64	2464.58
489.81	2487.99
489.99	2464.58
490.17	2218.83
490.35	2342.88
490.53	2333.51
490.70	2354.58
490.88	2431.82
491.06	2443.52
491.24	2548.84
491.41	2684.59
491.59	2572.25
491.77	2349.90
491.95	2310.11
492.13	2022.22
492.30	2160.31
492.48	2228.19
492.66	2183.72
492.84	2258.62
493.01	2001.16
493.19	2012.86
493.37	2076.06
493.54	1907.54
493.72	2008.18
493.90	1853.70
494.08	1877.11
494.25	1905.20
494.43	1867.75
494.61	1708.59
494.79	1863.07
494.96	1715.61
495.14	1799.87
495.32	1727.32
495.49	1703.91
495.67	1643.06
495.85	1621.99
496.02	1572.84
496.20	1598.59
496.38	1530.71
496.55	1547.09
496.73	1500.28
496.91	1493.26
497.09	1425.39
497.26	1453.47
497.44	1366.87
497.62	1357.51
497.79	1401.98
497.97	1345.81
498.14	1359.85
498.32	1317.72
498.50	1249.85
498.67	1249.85
498.85	1160.91
499.03	1057.92
499.20	1090.69
499.38	1086.01
499.56	1095.37
499.73	1123.46
499.91	1067.28
500.08	1163.25
500.26	990.05
500.44	950.26
500.61	1015.79
500.79	868.34
500.97	931.53
501.14	924.51
501.32	976.00
501.49	819.19
501.67	840.25
501.84	763.01
502.02	678.76
502.20	758.33
502.37	685.78
502.55	751.31
502.72	746.63
502.90	732.59
503.07	685.78
503.25	671.73
503.43	657.69
503.60	634.29
503.78	648.33
503.95	720.88
504.13	528.96
504.30	636.63
504.48	568.75
504.65	622.58
504.83	653.01
505.01	519.60
505.18	498.53
505.36	573.43
505.53	557.05
505.71	535.98
505.88	519.60
506.06	538.32
506.23	528.96
506.41	486.83
506.58	528.96
506.76	461.09
506.93	465.77
507.11	425.98
507.28	447.04
507.46	507.90
507.63	482.15
507.81	411.93
507.98	503.22
508.16	465.77
508.33	533.64
508.50	503.22
508.68	545.34
508.85	552.37
509.03	519.60
509.20	437.68
509.38	526.62
509.55	573.43
509.73	433.00
509.90	484.49
510.08	503.22
510.25	437.68
510.42	470.45
510.60	428.32
510.77	437.68
510.95	463.43
511.12	416.62
511.30	517.26
511.47	447.04
511.64	514.92
511.82	505.56
511.99	461.09
512.17	425.98
512.34	416.62
512.51	416.62
512.69	491.51
512.86	425.98
513.04	383.85
513.21	493.85
513.38	388.53
513.56	465.77
513.73	390.87
513.90	400.23
514.08	414.27
514.25	407.25
514.43	360.44
514.60	388.53
514.77	360.44
514.95	383.85
515.12	304.27
515.29	451.72
515.47	386.19
515.64	395.55
515.81	367.46
515.99	390.87
516.16	416.62
516.33	428.32
516.51	376.83
516.68	348.74
516.85	395.55
517.03	379.17
517.20	407.25
517.37	353.42
517.54	351.08
517.72	283.20
517.89	217.67
518.06	383.85
518.24	416.62
518.41	383.85
518.58	454.06
518.75	390.87
518.93	355.76
519.10	330.02
519.27	355.76
519.45	390.87
519.62	456.40
519.79	407.25
519.96	330.02
520.14	475.13
520.31	449.38
520.48	390.87
520.65	376.83
520.83	348.74
521.00	358.10
521.17	395.55
521.34	383.85
521.52	341.72
521.69	379.17
521.86	367.46
522.03	344.06
522.20	430.66
522.38	334.70
522.55	320.65
522.72	365.12
522.89	407.25
523.07	322.99
523.24	475.13
523.41	383.85
523.58	381.51
523.75	407.25
523.92	425.98
524.10	489.17
524.27	381.51
524.44	320.65
524.61	449.38
524.78	351.08
524.96	344.06
525.13	402.57
525.30	407.25
525.47	433.00
525.64	376.83
525.81	381.51
525.98	407.25
526.16	388.53
526.33	397.89
526.50	369.80
526.67	414.27
526.84	404.91
527.01	407.25
527.18	470.45
527.36	425.98
527.53	477.47
527.70	578.11
527.87	557.05
528.04	512.58
528.21	407.25
528.38	433.00
528.55	491.51
528.72	517.26
528.89	442.36
529.07	498.53
529.24	540.66
529.41	486.83
529.58	430.66
529.75	447.04
529.92	521.94
530.09	482.15
530.26	540.66
530.43	503.22
530.60	564.07
530.77	608.54
530.94	582.79
531.11	498.53
531.28	561.73
531.46	674.07
531.63	674.07
531.80	601.52
531.97	760.67
532.14	823.87
532.31	929.19
532.48	1060.26
532.65	1252.19
532.82	1404.32
532.99	1586.88
533.16	1846.68
533.33	1898.17
533.50	1888.81
533.67	1554.12
533.84	1392.62
534.01	1270.91
534.18	1100.05
534.35	1196.01
534.52	1055.58
534.69	1118.78
534.86	1196.01
535.03	1217.08
535.20	1256.87
535.37	1331.76
535.54	1448.79
535.71	1451.13
535.88	1561.14
536.05	1629.01
536.22	1713.27
536.38	2003.50
536.55	2134.57
536.72	2368.62
536.89	2590.97
537.06	2855.45
537.23	3206.53
537.40	3445.27
537.57	3815.07
537.74	3896.99
537.91	4093.60
538.08	4053.81
538.25	4292.54
538.42	4219.99
538.59	4423.61
538.75	4517.23
538.92	4891.72
539.09	5359.83
539.26	5942.62
539.43	6572.22
539.60	7379.71
539.77	8327.63
539.94	9418.32
540.11	10211.76
540.28	11147.97
540.44	12243.34
540.61	13474.46
540.78	15379.66
540.95	19058.98
541.12	22422.33
541.29	25755.26
541.46	26717.22
541.62	26703.17
541.79	25495.46
541.96	23681.54
542.13	21638.25
542.30	20676.29
542.47	19381.98
542.63	18043.19
542.80	17837.22
542.97	17514.23
543.14	17345.71
543.31	17586.79
543.48	17774.03
543.64	18087.66
543.81	17750.62
543.98	17865.31
544.15	18132.13
544.32	18090.00
544.48	17987.02
544.65	17788.07
544.82	17921.48
544.99	17781.05
545.16	18097.02
545.32	19077.71
545.49	30532.29
545.66	54080.42
545.83	60903.08
546.00	56559.05
546.16	41958.78
546.33	31182.96
546.50	23073.00
546.67	18216.39
546.83	16439.92
547.00	15480.30
547.17	14787.50
547.34	14164.92
547.50	13640.64
547.67	13139.77
547.84	12365.05
548.00	12255.04
548.17	11822.05
548.34	11105.84
548.51	10885.83
548.67	10260.91
548.84	9778.76
549.01	9172.56
549.18	8912.76
549.34	8500.83
549.51	8154.43
549.68	7976.55
549.84	7548.23
550.01	7302.47
550.18	6937.35
550.34	6712.66
550.51	6272.64
550.68	5994.11
550.84	5767.08
551.01	5434.72
551.18	5179.61
551.34	4873.00
551.51	4795.76
551.68	4421.27
551.84	4540.64
552.01	4177.86
552.18	4133.39
552.34	3847.84
552.51	3653.58
552.68	3508.46
552.84	3398.46
553.01	3192.49
553.18	3190.15
553.34	3091.85
553.51	2932.69
553.67	2822.69
553.84	2839.07
554.01	2628.42
554.17	2576.93
554.34	2225.85
554.51	2188.40
554.67	2031.58
554.84	1970.73
555.00	1832.64
555.17	1755.40
555.33	1638.38
555.50	1537.73
555.67	1483.90
555.83	1640.72
556.00	1409.00
556.16	1446.45
556.33	1308.36
556.50	1284.95
556.66	1275.59
556.83	1233.46
556.99	1128.14
557.16	1043.88
557.32	1184.31
557.49	1100.05
557.65	1109.41
557.82	1071.97
557.98	1025.15
558.15	947.92
558.32	922.17
558.48	926.85
558.65	830.89
558.81	992.39
558.98	947.92
559.14	870.68
559.31	877.70
559.47	774.72
559.64	828.55
559.80	828.55
559.97	786.42
560.13	791.10
560.30	793.44
560.46	788.76
560.63	737.27
560.79	763.01
560.96	784.08
561.12	779.40
561.29	828.55
561.45	795.78
561.61	837.91
561.78	840.25
561.94	805.14
562.11	744.29
562.27	798.12
562.44	781.74
562.60	781.74
562.77	744.29
562.93	770.04
563.10	760.67
563.26	723.23
563.42	758.33
563.59	702.16
563.75	676.41
563.92	648.33
564.08	695.14
564.24	622.58
564.41	678.76
564.57	695.14
564.74	671.73
564.90	713.86
565.07	690.46
565.23	641.31
565.39	547.69
565.56	755.99
565.72	697.48
565.88	566.41
566.05	596.84
566.21	538.32
566.38	641.31
566.54	667.05
566.70	695.14
566.87	580.45
567.03	627.26
567.19	505.56
567.36	568.75
567.52	634.29
567.68	643.65
567.85	578.11
568.01	631.94
568.17	627.26
568.34	575.77
568.50	697.48
568.66	697.48
568.83	683.44
568.99	566.41
569.15	606.20
569.32	594.50
569.48	578.11
569.64	440.02
569.81	561.73
569.97	465.77
570.13	526.62
570.30	540.66
570.46	510.24
570.62	493.85
570.78	510.24
570.95	456.40
571.11	491.51
571.27	491.51
571.43	451.72
571.60	381.51
571.76	456.40
571.92	482.15
572.09	437.68
572.25	451.72
572.41	503.22
572.57	475.13
572.74	524.28
572.90	500.87
573.06	547.69
573.22	585.13
573.38	470.45
573.55	510.24
573.71	531.30
573.87	559.39
574.03	526.62
574.20	559.39
574.36	624.92
574.52	601.52
574.68	557.05
574.84	554.71
575.01	578.11
575.17	727.91
575.33	784.08
575.49	767.70
575.65	725.57
575.82	807.48
575.98	931.53
576.14	964.30
576.30	1982.43
576.46	6434.13
576.62	11932.05
576.79	12865.92
576.95	9219.37
577.11	6195.40
577.27	4250.41
577.43	2902.26
577.59	1966.05
577.75	1420.71
577.92	1294.32
578.08	1331.76
578.24	1357.51
578.40	2282.02
578.56	6001.13
578.72	10782.85
578.88	12058.44
579.04	9055.53
579.21	5909.85
579.37	4545.32
579.53	3463.99
579.69	3379.73
579.85	3955.51
580.01	4713.84
580.17	4542.98
580.33	3859.54
580.49	3344.63
580.65	2888.22
580.82	2876.52
580.98	2607.36
581.14	2633.10
581.30	2808.64
581.46	3026.31
581.62	3192.49
581.78	3363.35
581.94	3698.05
582.10	3932.10
582.26	4210.62
582.42	4421.27
582.58	4620.22
582.74	4528.94
582.90	4704.48
583.06	4603.83
583.22	4676.39
583.38	4582.77
583.54	4704.48
583.70	4482.13
583.86	4519.57
584.02	4292.54
584.18	4318.29
584.34	4346.37
584.50	4093.60
584.66	4117.00
584.82	4091.26
584.98	4058.49
585.14	3981.25
585.30	3901.67
585.46	3889.97
585.62	3777.62
585.78	3801.03
585.94	3892.31
586.10	3955.51
586.26	4109.98
586.42	4514.89
586.58	5383.23
586.74	6691.59
586.90	8051.44
587.06	8940.85
587.22	8760.63
587.38	8025.70
587.54	6658.82
587.70	5755.38
587.86	4978.32
588.02	4456.38
588.18	3786.99
588.34	3344.63
588.49	3150.36
588.65	2841.41
588.81	2745.45
588.97	2717.36
589.13	2612.04
589.29	2541.82
589.45	2597.99
589.61	2520.76
589.77	2640.12
589.93	2595.65
590.08	2602.68
590.24	2736.09
590.40	2935.03
590.56	2984.18
590.72	2888.22
590.88	2967.80
591.04	3091.85
591.20	3105.89
591.35	3276.75
591.51	3431.23
591.67	3674.64
591.83	3999.98
591.99	4231.69
592.15	4561.70
592.31	4865.97
592.46	5284.93
592.62	5767.08
592.78	6305.40
592.94	6408.39
593.10	6246.89
593.26	6143.91
593.41	5453.45
593.57	5097.69
593.73	4360.42
593.89	4039.76
594.05	3456.97
594.20	3115.25
594.36	2988.86
594.52	2708.00
594.68	2670.55
594.84	2527.78
594.99	2499.69
595.15	2403.73
595.31	2312.45
595.47	2354.58
595.62	2263.30
595.78	2275.00
595.94	2228.19
596.10	2242.23
596.25	2197.76
596.41	2314.79
596.57	2174.36
596.73	2235.21
596.88	2239.89
597.04	2263.30
597.20	2195.42
597.36	2387.35
597.51	2340.54
597.67	2473.95
597.83	2593.31
597.99	2644.81
598.14	3016.95
598.30	3194.83
598.46	3213.56
598.61	3548.25
598.77	3545.91
598.93	3646.55
599.09	3698.05
599.24	3878.27
599.40	3840.82
599.56	3693.37
599.71	3562.30
599.87	3346.97
600.03	3211.22
600.18	2888.22
600.34	2738.43
600.50	2490.33
600.65	2300.75
600.81	2279.68
600.97	2160.31
601.12	2150.95
601.28	1942.64
601.44	1907.54
601.59	1750.72
601.75	1762.42
601.91	1720.29
602.06	1621.99
602.22	1781.15
602.37	1680.50
602.53	1535.39
602.69	1610.29
602.84	1575.18
603.00	1617.31
603.16	1549.43
603.31	1593.90
603.47	1584.54
603.62	1540.07
603.78	1664.12
603.94	1746.04
604.09	1748.38
604.25	1739.02
604.40	1863.07
604.56	1842.00
604.71	1720.29
604.87	1748.38
605.03	1753.06
605.18	1825.62
605.34	1900.52
605.49	1886.47
605.65	1930.94
605.80	2012.86
605.96	2237.55
606.12	2211.81
606.27	2445.86
606.43	2396.71
606.58	2462.24
606.74	2612.04
606.89	2761.83
607.05	2939.71
607.20	3009.93
607.36	3201.85
607.51	3307.18
607.67	3571.66
607.82	3763.58
607.98	4198.92
608.13	4222.33
608.29	4559.36
608.44	5074.28
608.60	5589.20
608.75	6197.74
608.91	6731.38
609.06	7206.51
609.22	8107.62
609.37	8746.58
609.53	9617.26
609.68	11185.42
609.84	12924.44
609.99	14913.89
610.15	17589.13
610.30	21809.11
610.46	28212.82
610.61	36177.66
610.76	45848.75
610.92	53212.08
611.07	56591.81
611.23	57235.46
611.38	55540.91
611.54	51812.44
611.69	46064.08
611.84	38628.20
612.00	32613.02
612.15	27557.47
612.31	24180.07
612.46	21490.80
612.62	19772.85
612.77	18450.44
612.92	17659.34
613.08	16475.03
613.23	15955.43
613.39	15185.40
613.54	14607.28
613.69	14504.30
613.85	14155.56
614.00	14033.85
614.15	14132.15
614.31	13699.16
614.46	13516.59
614.62	12767.62
614.77	12224.62
614.92	11611.40
615.08	10843.70
615.23	10076.01
615.38	9242.78
615.54	8379.12
615.69	7669.94
615.84	7119.91
616.00	6679.89
616.15	6008.16
616.30	5685.16
616.46	5439.40
616.61	4940.87
616.76	4947.89
616.92	4587.45
617.07	4266.80
617.22	4086.58
617.37	3845.50
617.53	3688.68
617.68	3590.38
617.83	3337.60
617.99	3363.35
618.14	3246.32
618.29	3042.70
618.45	3042.70
618.60	3033.33
618.75	2974.82
618.90	2892.90
619.06	2876.52
619.21	3007.59
619.36	2780.56
619.51	2878.86
619.67	2923.33
619.82	2888.22
619.97	2890.56
620.12	2951.42
620.28	3136.32
620.43	3112.91
620.58	3309.52
620.73	3190.15
620.89	3265.05
621.04	3199.51
621.19	3110.57
621.34	3068.44
621.49	2977.16
621.65	3042.70
621.80	2995.89
621.95	2949.08
622.10	3005.25
622.25	3056.74
622.41	3131.64
622.56	3229.94
622.71	3148.02
622.86	3150.36
623.01	3344.63
623.16	3461.65
623.32	3236.96
623.47	3421.86
623.62	3372.71
623.77	3386.76
623.92	3353.99
624.07	3412.50
624.23	3492.08
624.38	3454.63
624.53	3318.88
624.68	3297.81
624.83	3332.92
624.98	3485.06
625.13	3473.36
625.29	3571.66
625.44	3421.86
625.59	3529.53
625.74	3543.57
625.89	3442.93
626.04	3445.27
626.19	3623.15
626.34	3480.38
626.49	3520.17
626.65	3478.04
626.80	3405.48
626.95	3358.67
627.10	3344.63
627.25	3426.54
627.40	3269.73
627.55	3229.94
627.70	3206.53
627.85	3124.62
628.00	3045.04
628.15	3206.53
628.30	3110.57
628.45	3126.96
628.60	3124.62
628.76	3115.25
628.91	3045.04
629.06	3166.74
629.21	3155.04
629.36	3351.65
629.51	3267.39
629.66	3609.11
629.81	3742.52
629.96	4023.38
630.11	4589.79
630.26	5093.01
630.41	5797.51
630.56	6392.00
630.71	6668.19
630.86	6740.74
631.01	6392.00
631.16	6005.81
631.31	5320.04
631.46	4830.87
631.61	4042.11
631.76	3370.37
631.91	2869.50
632.06	2485.65
632.21	2136.91
632.36	1846.68
632.51	1659.44
632.66	1629.01
632.81	1444.11
632.96	1338.79
633.10	1352.83
633.25	1259.21
633.40	1266.23
633.55	1086.01
633.70	1090.69
633.85	1088.35
634.00	1013.45
634.15	1015.79
634.30	931.53
634.45	954.94
634.60	950.26
634.75	940.90
634.90	842.59
635.05	887.06
635.19	898.77
635.34	908.13
635.49	898.77
635.64	784.08
635.79	844.93
635.94	840.25
636.09	795.78
636.24	751.31
636.39	807.48
636.53	793.44
636.68	812.17
636.83	805.14
636.98	784.08
637.13	706.84
637.28	699.82
637.43	706.84
637.57	716.20
637.72	751.31
637.87	699.82
638.02	681.10
638.17	648.33
638.32	720.88
638.46	688.12
638.61	683.44
638.76	660.03
638.91	620.24
639.06	601.52
639.20	767.70
639.35	685.78
639.50	606.20
639.65	643.65
639.80	603.86
639.94	650.67
640.09	657.69
640.24	643.65
640.39	634.29
640.54	615.56
640.68	627.26
640.83	589.82
640.98	587.47
641.13	517.26
641.27	535.98
641.42	533.64
641.57	688.12
641.72	650.67
641.86	645.99
642.01	599.18
642.16	641.31
642.31	648.33
642.45	634.29
642.60	603.86
642.75	589.82
642.90	617.90
643.04	531.30
643.19	557.05
643.34	613.22
643.48	589.82
643.63	610.88
643.78	699.82
643.93	763.01
644.07	688.12
644.22	697.48
644.37	601.52
644.51	585.13
644.66	636.63
644.81	608.54
644.95	678.76
645.10	634.29
645.25	571.09
645.39	627.26
645.54	540.66
645.69	648.33
645.83	550.03
645.98	599.18
646.13	470.45
646.27	613.22
646.42	552.37
646.57	561.73
646.71	587.47
646.86	571.09
647.00	585.13
647.15	557.05
647.30	477.47
647.44	573.43
647.59	603.86
647.74	631.94
647.88	594.50
648.03	589.82
648.17	624.92
648.32	543.00
648.47	587.47
648.61	631.94
648.76	748.97
648.90	650.67
649.05	716.20
649.20	751.31
649.34	746.63
649.49	849.61
649.63	1027.50
649.78	1078.99
649.92	1299.00
650.07	1563.48
650.21	1706.25
650.36	1844.34
650.51	1944.99
650.65	1799.87
650.80	1589.22
650.94	1392.62
651.09	1193.67
651.23	1156.22
651.38	1083.67
651.52	1011.11
651.67	924.51
651.81	800.46
651.96	805.14
652.10	772.38
652.25	688.12
652.39	784.08
652.54	814.51
652.68	882.38
652.83	882.38
652.97	1076.65
653.12	919.83
653.26	823.87
653.41	940.90
653.55	744.29
653.70	720.88
653.84	765.36
653.99	645.99
654.13	571.09
654.27	624.92
654.42	592.16
654.56	557.05
654.71	585.13
654.85	559.39
655.00	575.77
655.14	557.05
655.29	582.79
655.43	519.60
655.57	484.49
655.72	538.32
655.86	617.90
656.01	472.79
656.15	430.66
656.30	543.00
656.44	477.47
656.58	470.45
656.73	552.37
656.87	643.65
657.01	547.69
657.16	578.11
657.30	631.94
657.45	678.76
657.59	716.20
657.73	620.24
657.88	716.20
658.02	844.93
658.16	587.47
658.31	561.73
658.45	496.19
658.60	524.28
658.74	519.60
658.88	418.96
659.03	397.89
659.17	435.34
659.31	454.06
659.46	489.17
659.60	470.45
659.74	440.02
659.89	507.90
660.03	418.96
660.17	454.06
660.32	458.74
660.46	463.43
660.60	395.55
660.74	463.43
660.89	461.09
661.03	411.93
661.17	461.09
661.32	533.64
661.46	653.01
661.60	678.76
661.74	795.78
661.89	866.00
662.03	1018.13
662.17	1107.07
662.31	1188.99
662.46	1203.04
662.60	1123.46
662.74	901.11
662.88	847.27
663.03	664.71
663.17	706.84
663.31	613.22
663.45	599.18
663.60	564.07
663.74	582.79
663.88	517.26
664.02	517.26
664.17	500.87
664.31	540.66
664.45	498.53
664.59	531.30
664.73	397.89
664.88	465.77
665.02	341.72
665.16	390.87
665.30	447.04
665.44	444.70
665.59	428.32
665.73	425.98
665.87	440.02
666.01	395.55
666.15	386.19
666.29	400.23
666.44	470.45
666.58	465.77
666.72	341.72
666.86	369.80
667.00	440.02
667.14	386.19
667.28	482.15
667.43	388.53
667.57	388.53
667.71	430.66
667.85	322.99
667.99	433.00
668.13	386.19
668.27	491.51
668.41	388.53
668.56	416.62
668.70	411.93
668.84	393.21
668.98	395.55
669.12	430.66
669.26	353.42
669.40	411.93
669.54	407.25
669.68	430.66
669.82	367.46
669.96	456.40
670.10	393.21
670.25	381.51
670.39	348.74
670.53	390.87
670.67	437.68
670.81	351.08
670.95	344.06
671.09	339.38
671.23	465.77
671.37	477.47
671.51	374.49
671.65	393.21
671.79	388.53
671.93	339.38
672.07	395.55
672.21	351.08
672.35	278.52
672.49	390.87
672.63	341.72
672.77	372.15
672.91	318.31
673.05	344.06
673.19	337.04
673.33	311.29
673.47	362.78
673.61	428.32
673.75	330.02
673.89	311.29
674.03	294.91
674.17	311.29
674.31	315.97
674.45	334.70
674.59	259.80
674.73	344.06
674.87	297.25
675.01	308.95
675.15	301.93
675.29	388.53
675.43	365.12
675.56	355.76
675.70	365.12
675.84	301.93
675.98	393.21
676.12	283.20
676.26	304.27
676.40	315.97
676.54	278.52
676.68	262.14
676.82	301.93
676.96	262.14
677.10	330.02
677.23	280.86
677.37	234.05
677.51	318.31
677.65	369.80
677.79	290.23
677.93	243.42
678.07	245.76
678.21	269.16
678.34	299.59
678.48	297.25
678.62	315.97
678.76	262.14
678.90	238.73
679.04	325.33
679.18	271.50
679.31	231.71
679.45	304.27
679.59	327.68
679.73	327.68
679.87	313.63
680.00	327.68
680.14	332.36
680.28	306.61
680.42	280.86
680.56	339.38
680.70	367.46
680.83	276.18
680.97	301.93
681.11	334.70
681.25	360.44
681.39	355.76
681.52	339.38
681.66	297.25
681.80	273.84
681.94	252.78
682.07	273.84
682.21	278.52
682.35	287.89
682.49	280.86
682.62	283.20
682.76	276.18
682.90	330.02
683.04	341.72
683.17	325.33
683.31	339.38
683.45	299.59
683.59	362.78
683.72	250.44
683.86	273.84
684.00	259.80
684.13	278.52
684.27	262.14
684.41	337.04
684.55	217.67
684.68	269.16
684.82	262.14
684.96	322.99
685.09	304.27
685.23	320.65
685.37	241.08
685.50	320.65
685.64	367.46
685.78	334.70
685.91	379.17
686.05	297.25
686.19	409.59
686.32	351.08
686.46	381.51
686.60	393.21
686.73	496.19
686.87	528.96
687.01	533.64
687.14	540.66
687.28	592.16
687.42	603.86
687.55	580.45
687.69	674.07
687.82	662.37
687.96	606.20
688.10	617.90
688.23	554.71
688.37	688.12
688.50	538.32
688.64	500.87
688.78	477.47
688.91	365.12
689.05	388.53
689.18	311.29
689.32	376.83
689.46	262.14
689.59	299.59
689.73	255.12
689.86	269.16
690.00	276.18
690.13	180.22
690.27	238.73
690.41	301.93
690.54	360.44
690.68	393.21
690.81	334.70
690.95	245.76
691.08	311.29
691.22	234.05
691.35	220.01
691.49	255.12
691.62	210.65
691.76	222.35
691.89	236.39
692.03	210.65
692.16	161.50
692.30	187.24
692.43	191.92
692.57	212.99
692.70	215.33
692.84	280.86
692.97	243.42
693.11	376.83
693.24	365.12
693.38	444.70
693.51	482.15
693.65	550.03
693.78	507.90
693.92	503.22
694.05	519.60
694.19	433.00
694.32	339.38
694.45	334.70
694.59	318.31
694.72	241.08
694.86	227.03
694.99	280.86
695.13	241.08
695.26	224.69
695.39	177.88
695.53	201.29
695.66	177.88
695.80	173.20
695.93	95.96
696.07	252.78
696.20	196.60
696.33	224.69
696.47	264.48
696.60	196.60
696.73	217.67
696.87	147.45
697.00	177.88
697.14	124.05
697.27	227.03
697.40	280.86
697.54	110.01
697.67	145.11
697.80	184.90
697.94	184.90
698.07	126.39
698.21	124.05
698.34	105.32
698.47	86.60
698.61	163.84
698.74	163.84
698.87	215.33
699.01	170.86
699.14	166.18
699.27	191.92
699.40	294.91
699.54	163.84
699.67	156.82
699.80	191.92
699.94	114.69
700.07	147.45
700.20	100.64
700.34	161.50
700.47	124.05
700.60	133.41
700.73	187.24
700.87	250.44
701.00	110.01
701.13	208.31
701.26	250.44
701.40	173.20
701.53	184.90
701.66	170.86
701.79	187.24
701.93	187.24
702.06	222.35
702.19	77.24
702.32	210.65
702.46	184.90
702.59	250.44
702.72	145.11
702.85	147.45
702.99	187.24
703.12	208.31
703.25	222.35
703.38	203.63
703.51	245.76
703.65	159.16
703.78	248.10
703.91	241.08
704.04	278.52
704.17	180.22
704.31	201.29
704.44	210.65
704.57	273.84
704.70	311.29
704.83	241.08
704.96	220.01
705.10	287.89
705.23	292.57
>>>>>End Processed Spectral Data<<<<<
