SpectraSuite Data File
++++++++++++++++++++++++++++++++++++
Date: Fri Oct 04 11:41:52 GMT-05:00 2013
User: price-jones
Dark Spectrum Present: No
Reference Spectrum Present: No
Number of Sampled Component Spectra: 1
Spectrometers: USB2+H05261
Integration Time (usec): 100000 (USB2+H05261)
Spectra Averaged: 1 (USB2+H05261)
Boxcar Smoothing: 0 (USB2+H05261)
Correct for Electrical Dark: No (USB2+H05261)
Strobe/Lamp Enabled: No (USB2+H05261)
Correct for Detector Non-linearity: No (USB2+H05261)
Correct for Stray Light: No (USB2+H05261)
Number of Pixels in Processed Spectrum: 2048
>>>>>Begin Processed Spectral Data<<<<<
365.73	46.81
365.92	46.81
366.12	46.81
366.32	0.00
366.52	0.00
366.72	2.34
366.91	0.00
367.11	21.06
367.31	0.00
367.51	0.00
367.70	0.00
367.90	0.00
368.10	0.00
368.30	0.00
368.49	0.00
368.69	0.00
368.89	0.00
369.09	0.00
369.28	0.00
369.48	0.00
369.68	0.00
369.87	25.75
370.07	0.00
370.27	0.00
370.47	0.00
370.66	44.47
370.86	11.70
371.06	30.43
371.25	112.35
371.45	49.15
371.65	135.75
371.84	84.26
372.04	84.26
372.24	95.96
372.44	95.96
372.63	93.62
372.83	100.64
373.03	147.45
373.22	84.26
373.42	81.92
373.62	133.41
373.81	102.98
374.01	175.54
374.21	166.18
374.40	67.88
374.60	63.19
374.79	217.67
374.99	142.77
375.19	159.16
375.38	112.35
375.58	114.69
375.78	187.24
375.97	128.73
376.17	189.58
376.37	159.16
376.56	173.20
376.76	152.13
376.95	114.69
377.15	88.94
377.35	161.50
377.54	156.82
377.74	128.73
377.93	110.01
378.13	124.05
378.33	154.48
378.52	95.96
378.72	161.50
378.91	88.94
379.11	175.54
379.31	135.75
379.50	93.62
379.70	191.92
379.89	250.44
380.09	100.64
380.28	63.19
380.48	88.94
380.68	100.64
380.87	147.45
381.07	147.45
381.26	126.39
381.46	149.79
381.65	149.79
381.85	126.39
382.04	117.03
382.24	126.39
382.43	152.13
382.63	30.43
382.83	44.47
383.02	159.16
383.22	102.98
383.41	117.03
383.61	81.92
383.80	156.82
384.00	77.24
384.19	53.83
384.39	105.32
384.58	117.03
384.78	145.11
384.97	114.69
385.17	105.32
385.36	117.03
385.56	177.88
385.75	184.90
385.95	187.24
386.14	255.12
386.34	84.26
386.53	196.60
386.72	84.26
386.92	156.82
387.11	140.43
387.31	124.05
387.50	117.03
387.70	189.58
387.89	95.96
388.09	133.41
388.28	84.26
388.48	142.77
388.67	128.73
388.86	131.07
389.06	177.88
389.25	154.48
389.45	166.18
389.64	81.92
389.84	234.05
390.03	124.05
390.22	105.32
390.42	147.45
390.61	49.15
390.81	126.39
391.00	81.92
391.19	131.07
391.39	91.28
391.58	133.41
391.78	74.90
391.97	93.62
392.16	126.39
392.36	138.09
392.55	163.84
392.75	117.03
392.94	60.85
393.13	105.32
393.33	107.66
393.52	135.75
393.71	105.32
393.91	93.62
394.10	128.73
394.29	121.71
394.49	110.01
394.68	119.37
394.88	154.48
395.07	152.13
395.26	117.03
395.46	100.64
395.65	147.45
395.84	65.54
396.04	110.01
396.23	154.48
396.42	105.32
396.62	156.82
396.81	126.39
397.00	35.11
397.19	198.95
397.39	72.56
397.58	93.62
397.77	173.20
397.97	198.95
398.16	149.79
398.35	114.69
398.55	138.09
398.74	163.84
398.93	124.05
399.12	184.90
399.32	142.77
399.51	131.07
399.70	119.37
399.90	128.73
400.09	110.01
400.28	131.07
400.47	161.50
400.67	215.33
400.86	149.79
401.05	198.95
401.24	135.75
401.44	145.11
401.63	98.30
401.82	220.01
402.01	91.28
402.21	248.10
402.40	180.22
402.59	114.69
402.78	182.56
402.97	145.11
403.17	189.58
403.36	227.03
403.55	257.46
403.74	599.18
403.93	2090.10
404.13	4711.50
404.32	6497.33
404.51	5640.69
404.70	3389.10
404.89	1259.21
405.09	449.38
405.28	287.89
405.47	252.78
405.66	234.05
405.85	212.99
406.05	224.69
406.24	196.60
406.43	154.48
406.62	182.56
406.81	243.42
407.00	299.59
407.20	634.29
407.39	887.06
407.58	938.55
407.77	641.31
407.96	351.08
408.15	217.67
408.34	241.08
408.54	159.16
408.73	220.01
408.92	212.99
409.11	147.45
409.30	208.31
409.49	154.48
409.68	196.60
409.87	208.31
410.07	182.56
410.26	177.88
410.45	229.37
410.64	208.31
410.83	100.64
411.02	236.39
411.21	212.99
411.40	201.29
411.59	215.33
411.78	177.88
411.98	168.52
412.17	212.99
412.36	198.95
412.55	147.45
412.74	264.48
412.93	217.67
413.12	222.35
413.31	203.63
413.50	182.56
413.69	187.24
413.88	269.16
414.07	227.03
414.26	175.54
414.45	269.16
414.64	189.58
414.83	222.35
415.02	220.01
415.22	215.33
415.41	315.97
415.60	255.12
415.79	196.60
415.98	245.76
416.17	201.29
416.36	236.39
416.55	196.60
416.74	222.35
416.93	266.82
417.12	248.10
417.31	215.33
417.50	173.20
417.69	205.97
417.88	194.26
418.07	222.35
418.26	241.08
418.45	245.76
418.64	278.52
418.83	208.31
419.02	276.18
419.21	243.42
419.39	210.65
419.58	168.52
419.77	156.82
419.96	227.03
420.15	276.18
420.34	156.82
420.53	238.73
420.72	330.02
420.91	313.63
421.10	287.89
421.29	264.48
421.48	234.05
421.67	344.06
421.86	255.12
422.05	241.08
422.24	266.82
422.43	191.92
422.61	306.61
422.80	245.76
422.99	175.54
423.18	276.18
423.37	325.33
423.56	287.89
423.75	287.89
423.94	294.91
424.13	280.86
424.32	212.99
424.50	299.59
424.69	367.46
424.88	311.29
425.07	250.44
425.26	294.91
425.45	320.65
425.64	311.29
425.83	297.25
426.01	322.99
426.20	280.86
426.39	259.80
426.58	234.05
426.77	301.93
426.96	222.35
427.15	311.29
427.33	337.04
427.52	280.86
427.71	334.70
427.90	278.52
428.09	280.86
428.28	320.65
428.46	374.49
428.65	337.04
428.84	386.19
429.03	367.46
429.22	301.93
429.40	322.99
429.59	308.95
429.78	393.21
429.97	264.48
430.16	348.74
430.34	351.08
430.53	285.55
430.72	306.61
430.91	355.76
431.10	238.73
431.28	348.74
431.47	416.62
431.66	395.55
431.85	393.21
432.03	372.15
432.22	433.00
432.41	379.17
432.60	411.93
432.79	379.17
432.97	381.51
433.16	458.74
433.35	512.58
433.54	603.86
433.72	599.18
433.91	589.82
434.10	636.63
434.28	807.48
434.47	807.48
434.66	931.53
434.85	1177.29
435.03	3138.66
435.22	12184.83
435.41	27854.72
435.59	29546.92
435.78	18338.10
435.97	9228.73
436.16	3676.98
436.34	1322.40
436.53	795.78
436.72	669.39
436.90	531.30
437.09	519.60
437.28	489.17
437.46	524.28
437.65	477.47
437.84	571.09
438.02	510.24
438.21	421.30
438.40	463.43
438.58	442.36
438.77	486.83
438.96	433.00
439.14	390.87
439.33	479.81
439.52	470.45
439.70	475.13
439.89	468.11
440.08	414.27
440.26	369.80
440.45	512.58
440.63	512.58
440.82	449.38
441.01	456.40
441.19	461.09
441.38	454.06
441.57	463.43
441.75	425.98
441.94	475.13
442.12	458.74
442.31	355.76
442.50	428.32
442.68	470.45
442.87	440.02
443.05	425.98
443.24	358.10
443.43	416.62
443.61	447.04
443.80	421.30
443.98	461.09
444.17	374.49
444.35	454.06
444.54	423.64
444.73	376.83
444.91	475.13
445.10	404.91
445.28	423.64
445.47	407.25
445.65	348.74
445.84	376.83
446.02	505.56
446.21	425.98
446.39	388.53
446.58	411.93
446.77	409.59
446.95	440.02
447.14	514.92
447.32	395.55
447.51	444.70
447.69	395.55
447.88	447.04
448.06	482.15
448.25	421.30
448.43	341.72
448.62	376.83
448.80	458.74
448.99	402.57
449.17	454.06
449.36	428.32
449.54	449.38
449.73	367.46
449.91	489.17
450.10	470.45
450.28	552.37
450.46	500.87
450.65	524.28
450.83	425.98
451.02	425.98
451.20	444.70
451.39	400.23
451.57	470.45
451.76	358.10
451.94	346.40
452.13	465.77
452.31	496.19
452.49	458.74
452.68	402.57
452.86	393.21
453.05	458.74
453.23	456.40
453.42	423.64
453.60	477.47
453.78	486.83
453.97	348.74
454.15	423.64
454.34	379.17
454.52	465.77
454.70	367.46
454.89	456.40
455.07	379.17
455.26	430.66
455.44	430.66
455.62	449.38
455.81	463.43
455.99	407.25
456.17	475.13
456.36	367.46
456.54	383.85
456.73	409.59
456.91	442.36
457.09	482.15
457.28	433.00
457.46	440.02
457.64	411.93
457.83	465.77
458.01	442.36
458.19	435.34
458.38	437.68
458.56	407.25
458.74	383.85
458.93	381.51
459.11	510.24
459.29	437.68
459.48	458.74
459.66	503.22
459.84	475.13
460.03	500.87
460.21	390.87
460.39	503.22
460.57	397.89
460.76	381.51
460.94	472.79
461.12	465.77
461.31	437.68
461.49	416.62
461.67	355.76
461.85	404.91
462.04	461.09
462.22	947.92
462.40	355.76
462.59	463.43
462.77	386.19
462.95	360.44
463.13	407.25
463.32	388.53
463.50	461.09
463.68	404.91
463.86	442.36
464.05	430.66
464.23	447.04
464.41	444.70
464.59	447.04
464.78	360.44
464.96	376.83
465.14	404.91
465.32	325.33
465.50	395.55
465.69	444.70
465.87	367.46
466.05	397.89
466.23	456.40
466.41	428.32
466.60	353.42
466.78	428.32
466.96	454.06
467.14	468.11
467.32	456.40
467.51	440.02
467.69	411.93
467.87	381.51
468.05	404.91
468.23	423.64
468.41	409.59
468.60	353.42
468.78	418.96
468.96	470.45
469.14	435.34
469.32	376.83
469.50	353.42
469.69	418.96
469.87	320.65
470.05	278.52
470.23	344.06
470.41	456.40
470.59	287.89
470.77	482.15
470.95	367.46
471.14	451.72
471.32	365.12
471.50	428.32
471.68	425.98
471.86	388.53
472.04	334.70
472.22	400.23
472.40	400.23
472.58	425.98
472.77	383.85
472.95	388.53
473.13	425.98
473.31	397.89
473.49	388.53
473.67	362.78
473.85	463.43
474.03	465.77
474.21	400.23
474.39	461.09
474.57	486.83
474.75	400.23
474.93	416.62
475.12	437.68
475.30	409.59
475.48	414.27
475.66	365.12
475.84	390.87
476.02	411.93
476.20	404.91
476.38	386.19
476.56	458.74
476.74	447.04
476.92	383.85
477.10	435.34
477.28	510.24
477.46	409.59
477.64	372.15
477.82	433.00
478.00	440.02
478.18	472.79
478.36	465.77
478.54	470.45
478.72	376.83
478.90	491.51
479.08	507.90
479.26	491.51
479.44	526.62
479.62	559.39
479.80	491.51
479.98	580.45
480.16	568.75
480.34	631.94
480.52	589.82
480.70	573.43
480.88	645.99
481.06	636.63
481.24	624.92
481.41	697.48
481.59	683.44
481.77	854.30
481.95	748.97
482.13	933.87
482.31	905.79
482.49	992.39
482.67	1111.75
482.85	1055.58
483.03	1240.48
483.21	1261.55
483.39	1212.40
483.57	1394.96
483.74	1537.73
483.92	1544.75
484.10	1727.32
484.28	1785.83
484.46	1912.22
484.64	1949.67
484.82	2069.03
485.00	2165.00
485.18	2413.09
485.35	2450.54
485.53	2506.71
485.71	2663.53
485.89	2832.05
486.07	2796.94
486.25	2885.88
486.43	2977.16
486.61	2881.20
486.78	2761.83
486.96	2799.28
487.14	2794.60
487.32	2787.58
487.50	2806.30
487.68	2827.37
487.85	2738.43
488.03	2745.45
488.21	2775.88
488.39	2651.83
488.57	2605.02
488.75	2443.52
488.92	2675.23
489.10	2429.48
489.28	2413.09
489.46	2289.04
489.64	2293.72
489.81	2272.66
489.99	2202.44
490.17	2139.25
490.35	2239.89
490.53	2251.60
490.70	2134.57
490.88	2167.34
491.06	2260.96
491.24	2385.01
491.41	2392.03
491.59	2345.22
491.77	2033.93
491.95	2003.50
492.13	2092.44
492.30	2010.52
492.48	2026.90
492.66	1893.49
492.84	1856.04
493.01	1792.85
493.19	1851.36
493.37	1902.86
493.54	1795.19
493.72	1680.50
493.90	1703.91
494.08	1680.50
494.25	1781.15
494.43	1732.00
494.61	1682.85
494.79	1547.09
494.96	1568.16
495.14	1640.72
495.32	1621.99
495.49	1490.92
495.67	1472.20
495.85	1472.20
496.02	1528.37
496.20	1511.99
496.38	1341.13
496.55	1371.55
496.73	1383.26
496.91	1341.13
497.09	1291.98
497.26	1406.66
497.44	1252.19
497.62	1261.55
497.79	1217.08
497.97	1224.10
498.14	1224.10
498.32	1212.40
498.50	1116.44
498.67	999.41
498.85	1118.78
499.03	1074.31
499.20	959.62
499.38	1018.13
499.56	1043.88
499.73	1074.31
499.91	938.55
500.08	997.07
500.26	847.27
500.44	877.70
500.61	947.92
500.79	847.27
500.97	830.89
501.14	908.13
501.32	763.01
501.49	847.27
501.67	774.72
501.84	760.67
502.02	671.73
502.20	713.86
502.37	739.61
502.55	643.65
502.72	699.82
502.90	660.03
503.07	629.60
503.25	594.50
503.43	594.50
503.60	552.37
503.78	580.45
503.95	566.41
504.13	505.56
504.30	599.18
504.48	554.71
504.65	517.26
504.83	505.56
505.01	552.37
505.18	538.32
505.36	468.11
505.53	564.07
505.71	505.56
505.88	564.07
506.06	451.72
506.23	491.51
506.41	524.28
506.58	475.13
506.76	479.81
506.93	372.15
507.11	517.26
507.28	447.04
507.46	416.62
507.63	404.91
507.81	409.59
507.98	440.02
508.16	409.59
508.33	507.90
508.50	451.72
508.68	440.02
508.85	458.74
509.03	437.68
509.20	475.13
509.38	465.77
509.55	514.92
509.73	433.00
509.90	472.79
510.08	449.38
510.25	367.46
510.42	397.89
510.60	409.59
510.77	468.11
510.95	451.72
511.12	451.72
511.30	400.23
511.47	414.27
511.64	489.17
511.82	393.21
511.99	379.17
512.17	440.02
512.34	388.53
512.51	435.34
512.69	404.91
512.86	484.49
513.04	379.17
513.21	425.98
513.38	430.66
513.56	367.46
513.73	428.32
513.90	404.91
514.08	409.59
514.25	383.85
514.43	381.51
514.60	360.44
514.77	346.40
514.95	341.72
515.12	397.89
515.29	330.02
515.47	376.83
515.64	367.46
515.81	318.31
515.99	351.08
516.16	372.15
516.33	311.29
516.51	299.59
516.68	344.06
516.85	290.23
517.03	299.59
517.20	383.85
517.37	414.27
517.54	430.66
517.72	423.64
517.89	334.70
518.06	341.72
518.24	407.25
518.41	355.76
518.58	358.10
518.75	404.91
518.93	411.93
519.10	386.19
519.27	337.04
519.45	344.06
519.62	308.95
519.79	421.30
519.96	358.10
520.14	402.57
520.31	404.91
520.48	330.02
520.65	339.38
520.83	360.44
521.00	341.72
521.17	397.89
521.34	365.12
521.52	362.78
521.69	379.17
521.86	287.89
522.03	351.08
522.20	440.02
522.38	402.57
522.55	318.31
522.72	280.86
522.89	299.59
523.07	360.44
523.24	390.87
523.41	283.20
523.58	355.76
523.75	374.49
523.92	386.19
524.10	393.21
524.27	397.89
524.44	353.42
524.61	376.83
524.78	308.95
524.96	383.85
525.13	383.85
525.30	379.17
525.47	369.80
525.64	348.74
525.81	456.40
525.98	383.85
526.16	334.70
526.33	390.87
526.50	390.87
526.67	320.65
526.84	376.83
527.01	400.23
527.18	374.49
527.36	465.77
527.53	528.96
527.70	482.15
527.87	421.30
528.04	411.93
528.21	404.91
528.38	458.74
528.55	482.15
528.72	404.91
528.89	437.68
529.07	423.64
529.24	500.87
529.41	543.00
529.58	454.06
529.75	477.47
529.92	456.40
530.09	468.11
530.26	554.71
530.43	458.74
530.60	531.30
530.77	564.07
530.94	573.43
531.11	528.96
531.28	571.09
531.46	573.43
531.63	599.18
531.80	685.78
531.97	664.71
532.14	760.67
532.31	908.13
532.48	966.64
532.65	1149.20
532.82	1207.72
532.99	1500.28
533.16	1739.02
533.33	1666.46
533.50	1582.20
533.67	1371.55
533.84	1219.42
534.01	1020.47
534.18	994.73
534.35	1008.77
534.52	1086.01
534.69	1144.52
534.86	1142.18
535.03	1114.10
535.20	1200.69
535.37	1268.57
535.54	1348.15
535.71	1378.58
535.88	1504.96
536.05	1549.43
536.22	1614.97
536.38	1778.81
536.55	1930.94
536.72	2120.53
536.89	2375.64
537.06	2583.95
537.23	2958.44
537.40	3201.85
537.57	3496.76
537.74	3564.64
537.91	3817.41
538.08	3847.84
538.25	3644.21
538.42	3850.18
538.59	4086.58
538.75	4079.55
538.92	4418.93
539.09	4688.09
539.26	5336.42
539.43	5996.45
539.60	6679.89
539.77	7573.97
539.94	8344.01
540.11	9179.58
540.28	10200.05
540.44	11349.26
540.61	12524.21
540.78	14347.48
540.95	17076.55
541.12	20198.82
541.29	23033.21
541.46	23803.25
541.62	23749.42
541.79	22724.26
541.96	21214.62
542.13	19555.18
542.30	18216.39
542.47	17502.53
542.63	16521.84
542.80	15587.97
542.97	15831.38
543.14	15435.83
543.31	15487.32
543.48	15744.78
543.64	15655.84
543.81	15962.45
543.98	16156.72
544.15	16315.87
544.32	16074.80
544.48	16240.98
544.65	15960.11
544.82	15772.87
544.99	15754.15
545.16	16311.19
545.32	17018.04
545.49	28191.75
545.66	51423.91
545.83	57911.88
546.00	52488.85
546.16	37635.81
546.33	28030.26
546.50	20767.57
546.67	16456.31
546.83	14628.35
547.00	13909.80
547.17	13418.29
547.34	12606.13
547.50	12271.43
547.67	11754.17
547.84	11225.21
548.00	10691.57
548.17	10464.54
548.34	10078.35
548.51	9666.41
548.67	9158.52
548.84	8847.22
549.01	8407.20
549.18	7906.33
549.34	7751.85
549.51	7332.90
549.68	7119.91
549.84	6738.40
550.01	6614.35
550.18	6202.42
550.34	5891.13
550.51	5753.04
550.68	5359.83
550.84	5057.90
551.01	4814.48
551.18	4545.32
551.34	4243.39
551.51	4119.34
551.68	3997.64
551.84	3978.91
552.01	3796.35
552.18	3658.26
552.34	3456.97
552.51	3288.45
552.68	3194.83
552.84	3023.97
553.01	2998.23
553.18	2932.69
553.34	2808.64
553.51	2818.00
553.67	2693.96
553.84	2630.76
554.01	2382.67
554.17	2214.15
554.34	2165.00
554.51	2047.97
554.67	1863.07
554.84	1668.80
555.00	1685.19
555.17	1572.84
555.33	1591.56
555.50	1425.39
555.67	1390.28
555.83	1357.51
556.00	1327.08
556.16	1451.13
556.33	1231.12
556.50	1184.31
556.66	1207.72
556.83	1036.86
556.99	1177.29
557.16	1022.81
557.32	1071.97
557.49	964.30
557.65	1022.81
557.82	952.60
557.98	887.06
558.15	901.11
558.32	943.24
558.48	868.34
558.65	821.53
558.81	880.04
558.98	837.91
559.14	819.19
559.31	716.20
559.47	795.78
559.64	695.14
559.80	723.23
559.97	713.86
560.13	716.20
560.30	643.65
560.46	699.82
560.63	711.52
560.79	676.41
560.96	737.27
561.12	690.46
561.29	725.57
561.45	725.57
561.61	730.25
561.78	800.46
561.94	716.20
562.11	695.14
562.27	784.08
562.44	678.76
562.60	744.29
562.77	662.37
562.93	723.23
563.10	650.67
563.26	648.33
563.42	667.05
563.59	610.88
563.75	533.64
563.92	624.92
564.08	606.20
564.24	582.79
564.41	711.52
564.57	552.37
564.74	650.67
564.90	603.86
565.07	617.90
565.23	627.26
565.39	653.01
565.56	638.97
565.72	580.45
565.88	531.30
566.05	510.24
566.21	592.16
566.38	599.18
566.54	589.82
566.70	564.07
566.87	582.79
567.03	669.39
567.19	587.47
567.36	463.43
567.52	606.20
567.68	580.45
567.85	554.71
568.01	554.71
568.17	486.83
568.34	596.84
568.50	617.90
568.66	554.71
568.83	653.01
568.99	496.19
569.15	580.45
569.32	496.19
569.48	526.62
569.64	547.69
569.81	442.36
569.97	449.38
570.13	500.87
570.30	521.94
570.46	510.24
570.62	390.87
570.78	456.40
570.95	479.81
571.11	376.83
571.27	528.96
571.43	486.83
571.60	458.74
571.76	505.56
571.92	411.93
572.09	477.47
572.25	430.66
572.41	430.66
572.57	444.70
572.74	503.22
572.90	456.40
573.06	477.47
573.22	433.00
573.38	547.69
573.55	568.75
573.71	524.28
573.87	447.04
574.03	524.28
574.20	571.09
574.36	526.62
574.52	514.92
574.68	545.34
574.84	601.52
575.01	585.13
575.17	655.35
575.33	638.97
575.49	741.95
575.65	812.17
575.82	751.31
575.98	763.01
576.14	924.51
576.30	1879.45
576.46	6076.03
576.62	10764.12
576.79	11688.64
576.95	8248.05
577.11	5198.33
577.27	3754.22
577.43	2630.76
577.59	1750.72
577.75	1345.81
577.92	1336.45
578.08	1151.54
578.24	1289.64
578.40	2036.27
578.56	5631.33
578.72	9474.49
578.88	9980.04
579.04	7508.44
579.21	5245.14
579.37	3992.95
579.53	3213.56
579.69	3033.33
579.85	3548.25
580.01	4327.65
580.17	3922.74
580.33	3466.33
580.49	3002.91
580.65	2750.13
580.82	2359.26
580.98	2352.24
581.14	2448.20
581.30	2572.25
581.46	2696.30
581.62	3038.02
581.78	3098.87
581.94	3328.24
582.10	3550.59
582.26	3716.77
582.42	3929.76
582.58	3847.84
582.74	3962.53
582.90	4028.06
583.06	4170.83
583.22	4131.05
583.38	4227.01
583.54	4362.76
583.70	4166.15
583.86	3960.19
584.02	3882.95
584.18	3866.56
584.34	3555.27
584.50	3651.24
584.66	3784.65
584.82	3595.06
584.98	3599.74
585.14	3620.81
585.30	3618.47
585.46	3456.97
585.62	3428.88
585.78	3328.24
585.94	3435.91
586.10	3590.38
586.26	3803.37
586.42	4168.49
586.58	5022.79
586.74	6040.92
586.90	7290.77
587.06	7822.07
587.22	7859.52
587.38	6913.94
587.54	5980.07
587.70	5163.22
587.86	4372.12
588.02	3719.11
588.18	3262.71
588.34	2998.23
588.49	2668.21
588.65	2532.46
588.81	2490.33
588.97	2349.90
589.13	2385.01
589.29	2256.28
589.45	2324.15
589.61	2282.02
589.77	2310.11
589.93	2342.88
590.08	2356.92
590.24	2544.16
590.40	2562.89
590.56	2658.85
590.72	2691.62
590.88	2829.71
591.04	2757.15
591.20	2956.10
591.35	3061.42
591.51	3052.06
591.67	3339.94
591.83	3538.89
591.99	3772.94
592.15	4058.49
592.31	4395.53
592.46	4730.22
592.62	5266.21
592.78	5607.92
592.94	5891.13
593.10	5570.48
593.26	5427.70
593.41	4957.25
593.57	4425.95
593.73	3955.51
593.89	3531.87
594.05	3178.45
594.20	2834.39
594.36	2581.61
594.52	2495.01
594.68	2389.69
594.84	2324.15
594.99	2148.61
595.15	2202.44
595.31	2181.38
595.47	2052.65
595.62	2094.78
595.78	2036.27
595.94	1935.62
596.10	2139.25
596.25	2090.10
596.41	2071.37
596.57	2122.87
596.73	2052.65
596.88	2052.65
597.04	2054.99
597.20	2019.88
597.36	2092.44
597.51	2106.48
597.67	2230.53
597.83	2387.35
597.99	2506.71
598.14	2619.06
598.30	2785.24
598.46	2956.10
598.61	3155.04
598.77	3262.71
598.93	3208.87
599.09	3433.57
599.24	3428.88
599.40	3281.43
599.56	3267.39
599.71	3115.25
599.87	3129.30
600.03	2696.30
600.18	2562.89
600.34	2553.52
600.50	2263.30
600.65	2106.48
600.81	2099.46
600.97	1933.28
601.12	1952.01
601.28	1839.66
601.44	1724.97
601.59	1631.35
601.75	1600.93
601.91	1479.22
602.06	1441.77
602.22	1488.58
602.37	1341.13
602.53	1451.13
602.69	1352.83
602.84	1451.13
603.00	1467.52
603.16	1390.28
603.31	1533.05
603.47	1406.66
603.62	1490.92
603.78	1476.88
603.94	1570.50
604.09	1519.01
604.25	1603.27
604.40	1530.71
604.56	1643.06
604.71	1540.07
604.87	1619.65
605.03	1706.25
605.18	1823.28
605.34	1750.72
605.49	1834.98
605.65	1905.20
605.80	1846.68
605.96	1844.34
606.12	1930.94
606.27	1998.82
606.43	2129.89
606.58	2314.79
606.74	2256.28
606.89	2385.01
607.05	2562.89
607.20	2633.10
607.36	2846.09
607.51	3068.44
607.67	3243.98
607.82	3375.05
607.98	3611.45
608.13	3868.91
608.29	4203.60
608.44	4568.73
608.60	5158.54
608.75	5352.81
608.91	6015.18
609.06	6387.32
609.22	7173.74
609.37	7885.26
609.53	8931.48
609.68	9961.32
609.84	11272.02
609.99	13563.40
610.15	15936.71
610.30	19489.64
610.46	25006.28
610.61	32292.37
610.76	41240.24
610.92	49385.30
611.07	52992.07
611.23	53724.66
611.38	51533.92
611.54	46939.44
611.69	41352.58
611.84	35079.95
612.00	28861.15
612.15	24053.69
612.31	20828.43
612.46	18401.29
612.62	17544.66
612.77	16493.76
612.92	15042.62
613.08	14487.92
613.23	13825.54
613.39	13277.86
613.54	13114.02
613.69	12599.10
613.85	12564.00
614.00	12636.55
614.15	12585.06
614.31	12037.38
614.46	11908.65
614.62	11421.81
614.77	10881.15
614.92	10270.27
615.08	9549.39
615.23	9064.89
615.38	8039.74
615.54	7412.48
615.69	6815.64
615.84	6099.44
616.00	5722.61
616.15	5308.34
616.30	5097.69
616.46	4814.48
616.61	4463.40
616.76	4327.65
616.92	3976.57
617.07	3700.39
617.22	3592.72
617.37	3412.50
617.53	3379.73
617.68	3119.93
617.83	2977.16
617.99	3038.02
618.14	2942.05
618.29	2977.16
618.45	2766.51
618.60	2771.19
618.75	2703.32
618.90	2480.97
619.06	2567.57
619.21	2506.71
619.36	2612.04
619.51	2495.01
619.67	2586.29
619.82	2675.23
619.97	2740.77
620.12	2740.77
620.28	2698.64
620.43	2810.98
620.58	2871.84
620.73	2918.65
620.89	2939.71
621.04	2958.44
621.19	2752.47
621.34	2729.06
621.49	2759.49
621.65	2693.96
621.80	2661.19
621.95	2679.91
622.10	2703.32
622.25	2722.04
622.41	2874.18
622.56	2855.45
622.71	2885.88
622.86	2935.03
623.01	3087.17
623.16	3012.27
623.32	2970.14
623.47	2904.60
623.62	3105.89
623.77	3030.99
623.92	3129.30
624.07	3042.70
624.23	3009.93
624.38	3002.91
624.53	3129.30
624.68	2974.82
624.83	3218.24
624.98	3033.33
625.13	3112.91
625.29	3122.27
625.44	3150.36
625.59	3185.47
625.74	3215.90
625.89	3016.95
626.04	3232.28
626.19	2998.23
626.34	3066.10
626.49	3101.21
626.65	3129.30
626.80	3138.66
626.95	3023.97
627.10	3012.27
627.25	3012.27
627.40	2906.95
627.55	2888.22
627.70	2736.09
627.85	2881.20
628.00	2841.41
628.15	2825.03
628.30	2771.19
628.45	2750.13
628.60	2729.06
628.76	2740.77
628.91	2874.18
629.06	2860.13
629.21	2930.35
629.36	2998.23
629.51	2911.63
629.66	3089.51
629.81	3412.50
629.96	3613.79
630.11	4128.70
630.26	4533.62
630.41	5022.79
630.56	5600.90
630.71	5860.70
630.86	6033.90
631.01	5942.62
631.16	5406.64
631.31	4802.78
631.46	4203.60
631.61	3566.98
631.76	3110.57
631.91	2464.58
632.06	2155.63
632.21	1921.58
632.36	1736.68
632.51	1462.83
632.66	1327.08
632.81	1296.66
632.96	1137.50
633.10	1121.12
633.25	1093.03
633.40	1011.11
633.55	990.05
633.70	985.37
633.85	968.98
634.00	992.39
634.15	894.08
634.30	809.83
634.45	835.57
634.60	837.91
634.75	716.20
634.90	795.78
635.05	802.80
635.19	763.01
635.34	793.44
635.49	760.67
635.64	737.27
635.79	774.72
635.94	748.97
636.09	784.08
636.24	734.93
636.39	697.48
636.53	793.44
636.68	641.31
636.83	620.24
636.98	657.69
637.13	683.44
637.28	711.52
637.43	793.44
637.57	727.91
637.72	685.78
637.87	636.63
638.02	629.60
638.17	685.78
638.32	678.76
638.46	550.03
638.61	690.46
638.76	552.37
638.91	512.58
639.06	578.11
639.20	585.13
639.35	678.76
639.50	589.82
639.65	622.58
639.80	636.63
639.94	528.96
640.09	631.94
640.24	535.98
640.39	566.41
640.54	627.26
640.68	557.05
640.83	678.76
640.98	615.56
641.13	531.30
641.27	540.66
641.42	526.62
641.57	568.75
641.72	564.07
641.86	535.98
642.01	603.86
642.16	631.94
642.31	493.85
642.45	664.71
642.60	594.50
642.75	603.86
642.90	557.05
643.04	521.94
643.19	477.47
643.34	559.39
643.48	547.69
643.63	559.39
643.78	601.52
643.93	592.16
644.07	571.09
644.22	559.39
644.37	620.24
644.51	596.84
644.66	557.05
644.81	559.39
644.95	615.56
645.10	559.39
645.25	566.41
645.39	580.45
645.54	521.94
645.69	587.47
645.83	554.71
645.98	601.52
646.13	561.73
646.27	505.56
646.42	470.45
646.57	491.51
646.71	484.49
646.86	533.64
647.00	540.66
647.15	491.51
647.30	425.98
647.44	528.96
647.59	554.71
647.74	463.43
647.88	533.64
648.03	573.43
648.17	592.16
648.32	468.11
648.47	610.88
648.61	615.56
648.76	589.82
648.90	596.84
649.05	603.86
649.20	582.79
649.34	638.97
649.49	812.17
649.63	877.70
649.78	1025.15
649.92	1270.91
650.07	1493.26
650.21	1629.01
650.36	1605.61
650.51	1771.79
650.65	1575.18
650.80	1352.83
650.94	1273.25
651.09	1083.67
651.23	1020.47
651.38	873.02
651.52	938.55
651.67	868.34
651.81	755.99
651.96	772.38
652.10	711.52
652.25	702.16
652.39	746.63
652.54	777.06
652.68	784.08
652.83	730.25
652.97	917.49
653.12	854.30
653.26	851.96
653.41	730.25
653.55	805.14
653.70	643.65
653.84	685.78
653.99	662.37
654.13	690.46
654.27	638.97
654.42	655.35
654.56	596.84
654.71	564.07
654.85	463.43
655.00	524.28
655.14	503.22
655.29	521.94
655.43	505.56
655.57	603.86
655.72	557.05
655.86	463.43
656.01	550.03
656.15	550.03
656.30	528.96
656.44	437.68
656.58	475.13
656.73	491.51
656.87	479.81
657.01	571.09
657.16	603.86
657.30	566.41
657.45	650.67
657.59	622.58
657.73	657.69
657.88	653.01
658.02	627.26
658.16	587.47
658.31	550.03
658.45	491.51
658.60	409.59
658.74	451.72
658.88	400.23
659.03	411.93
659.17	388.53
659.31	456.40
659.46	444.70
659.60	386.19
659.74	369.80
659.89	379.17
660.03	414.27
660.17	397.89
660.32	458.74
660.46	393.21
660.60	334.70
660.74	411.93
660.89	418.96
661.03	386.19
661.17	442.36
661.32	425.98
661.46	479.81
661.60	627.26
661.74	706.84
661.89	823.87
662.03	854.30
662.17	1015.79
662.31	1029.84
662.46	1069.62
662.60	950.26
662.74	858.98
662.88	730.25
663.03	627.26
663.17	627.26
663.31	615.56
663.45	638.97
663.60	510.24
663.74	561.73
663.88	531.30
664.02	430.66
664.17	456.40
664.31	372.15
664.45	379.17
664.59	425.98
664.73	425.98
664.88	416.62
665.02	390.87
665.16	444.70
665.30	400.23
665.44	433.00
665.59	360.44
665.73	327.68
665.87	407.25
666.01	397.89
666.15	292.57
666.29	386.19
666.44	397.89
666.58	414.27
666.72	330.02
666.86	351.08
667.00	360.44
667.14	327.68
667.28	409.59
667.43	433.00
667.57	449.38
667.71	397.89
667.85	388.53
667.99	407.25
668.13	386.19
668.27	407.25
668.41	344.06
668.56	379.17
668.70	353.42
668.84	344.06
668.98	390.87
669.12	374.49
669.26	351.08
669.40	510.24
669.54	379.17
669.68	339.38
669.82	315.97
669.96	409.59
670.10	322.99
670.25	280.86
670.39	301.93
670.53	257.46
670.67	348.74
670.81	259.80
670.95	353.42
671.09	262.14
671.23	374.49
671.37	397.89
671.51	433.00
671.65	390.87
671.79	283.20
671.93	285.55
672.07	437.68
672.21	313.63
672.35	330.02
672.49	351.08
672.63	311.29
672.77	337.04
672.91	337.04
673.05	348.74
673.19	320.65
673.33	266.82
673.47	365.12
673.61	322.99
673.75	271.50
673.89	283.20
674.03	231.71
674.17	224.69
674.31	369.80
674.45	250.44
674.59	271.50
674.73	290.23
674.87	355.76
675.01	360.44
675.15	344.06
675.29	306.61
675.43	325.33
675.56	330.02
675.70	346.40
675.84	283.20
675.98	234.05
676.12	262.14
676.26	245.76
676.40	262.14
676.54	283.20
676.68	266.82
676.82	266.82
676.96	311.29
677.10	287.89
677.23	313.63
677.37	308.95
677.51	278.52
677.65	283.20
677.79	250.44
677.93	259.80
678.07	259.80
678.21	210.65
678.34	283.20
678.48	374.49
678.62	297.25
678.76	212.99
678.90	269.16
679.04	266.82
679.18	212.99
679.31	301.93
679.45	262.14
679.59	334.70
679.73	290.23
679.87	327.68
680.00	283.20
680.14	360.44
680.28	325.33
680.42	386.19
680.56	376.83
680.70	339.38
680.83	290.23
680.97	315.97
681.11	217.67
681.25	337.04
681.39	421.30
681.52	311.29
681.66	386.19
681.80	381.51
681.94	224.69
682.07	306.61
682.21	346.40
682.35	290.23
682.49	299.59
682.62	271.50
682.76	210.65
682.90	269.16
683.04	252.78
683.17	252.78
683.31	255.12
683.45	341.72
683.59	290.23
683.72	332.36
683.86	287.89
684.00	273.84
684.13	365.12
684.27	205.97
684.41	248.10
684.55	194.26
684.68	280.86
684.82	243.42
684.96	262.14
685.09	266.82
685.23	198.95
685.37	280.86
685.50	313.63
685.64	276.18
685.78	334.70
685.91	243.42
686.05	395.55
686.19	264.48
686.32	330.02
686.46	386.19
686.60	306.61
686.73	479.81
686.87	454.06
687.01	465.77
687.14	491.51
687.28	571.09
687.42	557.05
687.55	653.01
687.69	638.97
687.82	585.13
687.96	573.43
688.10	557.05
688.23	538.32
688.37	477.47
688.50	533.64
688.64	454.06
688.78	409.59
688.91	425.98
689.05	358.10
689.18	311.29
689.32	318.31
689.46	355.76
689.59	301.93
689.73	346.40
689.86	241.08
690.00	243.42
690.13	201.29
690.27	315.97
690.41	358.10
690.54	341.72
690.68	365.12
690.81	292.57
690.95	212.99
691.08	276.18
691.22	212.99
691.35	280.86
691.49	248.10
691.62	182.56
691.76	250.44
691.89	252.78
692.03	229.37
692.16	222.35
692.30	205.97
692.43	210.65
692.57	262.14
692.70	177.88
692.84	266.82
692.97	245.76
693.11	322.99
693.24	402.57
693.38	332.36
693.51	454.06
693.65	505.56
693.78	430.66
693.92	454.06
694.05	390.87
694.19	388.53
694.32	348.74
694.45	184.90
694.59	238.73
694.72	177.88
694.86	234.05
694.99	217.67
695.13	152.13
695.26	175.54
695.39	170.86
695.53	168.52
695.66	124.05
695.80	215.33
695.93	196.60
696.07	142.77
696.20	198.95
696.33	257.46
696.47	234.05
696.60	245.76
696.73	212.99
696.87	234.05
697.00	145.11
697.14	182.56
697.27	196.60
697.40	231.71
697.54	210.65
697.67	231.71
697.80	140.43
697.94	133.41
698.07	177.88
698.21	175.54
698.34	168.52
698.47	191.92
698.61	88.94
698.74	173.20
698.87	220.01
699.01	191.92
699.14	126.39
699.27	145.11
699.40	255.12
699.54	128.73
699.67	159.16
699.80	126.39
699.94	152.13
700.07	173.20
700.20	138.09
700.34	166.18
700.47	154.48
700.60	205.97
700.73	142.77
700.87	243.42
701.00	140.43
701.13	140.43
701.26	142.77
701.40	180.22
701.53	138.09
701.66	138.09
701.79	135.75
701.93	159.16
702.06	205.97
702.19	124.05
702.32	241.08
702.46	175.54
702.59	154.48
702.72	140.43
702.85	236.39
702.99	173.20
703.12	184.90
703.25	133.41
703.38	220.01
703.51	203.63
703.65	124.05
703.78	229.37
703.91	243.42
704.04	210.65
704.17	266.82
704.31	182.56
704.44	250.44
704.57	311.29
704.70	229.37
704.83	210.65
704.96	269.16
705.10	252.78
705.23	292.57
>>>>>End Processed Spectral Data<<<<<
