SpectraSuite Data File
++++++++++++++++++++++++++++++++++++
Date: Fri Oct 04 11:41:49 GMT-05:00 2013
User: price-jones
Dark Spectrum Present: No
Reference Spectrum Present: No
Number of Sampled Component Spectra: 1
Spectrometers: USB2+H05261
Integration Time (usec): 100000 (USB2+H05261)
Spectra Averaged: 1 (USB2+H05261)
Boxcar Smoothing: 0 (USB2+H05261)
Correct for Electrical Dark: No (USB2+H05261)
Strobe/Lamp Enabled: No (USB2+H05261)
Correct for Detector Non-linearity: No (USB2+H05261)
Correct for Stray Light: No (USB2+H05261)
Number of Pixels in Processed Spectrum: 2048
>>>>>Begin Processed Spectral Data<<<<<
365.73	0.00
365.92	0.00
366.12	0.00
366.32	0.00
366.52	0.00
366.72	0.00
366.91	0.00
367.11	0.00
367.31	0.00
367.51	0.00
367.70	0.00
367.90	0.00
368.10	0.00
368.30	0.00
368.49	0.00
368.69	0.00
368.89	44.47
369.09	0.00
369.28	0.00
369.48	0.00
369.68	0.00
369.87	2.34
370.07	0.00
370.27	72.56
370.47	44.47
370.66	0.00
370.86	21.06
371.06	126.39
371.25	81.92
371.45	23.41
371.65	102.98
371.84	72.56
372.04	121.71
372.24	88.94
372.44	84.26
372.63	222.35
372.83	124.05
373.03	133.41
373.22	142.77
373.42	159.16
373.62	159.16
373.81	84.26
374.01	140.43
374.21	191.92
374.40	168.52
374.60	201.29
374.79	203.63
374.99	110.01
375.19	161.50
375.38	131.07
375.58	184.90
375.78	131.07
375.97	156.82
376.17	175.54
376.37	159.16
376.56	133.41
376.76	154.48
376.95	142.77
377.15	102.98
377.35	112.35
377.54	156.82
377.74	100.64
377.93	77.24
378.13	72.56
378.33	84.26
378.52	163.84
378.72	159.16
378.91	100.64
379.11	114.69
379.31	140.43
379.50	201.29
379.70	128.73
379.89	93.62
380.09	145.11
380.28	79.58
380.48	102.98
380.68	84.26
380.87	95.96
381.07	63.19
381.26	147.45
381.46	220.01
381.65	177.88
381.85	105.32
382.04	161.50
382.24	81.92
382.43	102.98
382.63	102.98
382.83	79.58
383.02	145.11
383.22	182.56
383.41	58.51
383.61	159.16
383.80	102.98
384.00	170.86
384.19	156.82
384.39	119.37
384.58	88.94
384.78	170.86
384.97	191.92
385.17	152.13
385.36	100.64
385.56	112.35
385.75	147.45
385.95	102.98
386.14	72.56
386.34	77.24
386.53	114.69
386.72	114.69
386.92	126.39
387.11	133.41
387.31	175.54
387.50	208.31
387.70	149.79
387.89	70.22
388.09	156.82
388.28	107.66
388.48	196.60
388.67	177.88
388.86	152.13
389.06	88.94
389.25	93.62
389.45	81.92
389.64	135.75
389.84	215.33
390.03	166.18
390.22	168.52
390.42	163.84
390.61	145.11
390.81	102.98
391.00	107.66
391.19	194.26
391.39	72.56
391.58	121.71
391.78	147.45
391.97	102.98
392.16	140.43
392.36	205.97
392.55	166.18
392.75	180.22
392.94	121.71
393.13	126.39
393.33	107.66
393.52	126.39
393.71	147.45
393.91	79.58
394.10	126.39
394.29	126.39
394.49	81.92
394.68	142.77
394.88	154.48
395.07	187.24
395.26	107.66
395.46	93.62
395.65	70.22
395.84	135.75
396.04	156.82
396.23	81.92
396.42	135.75
396.62	170.86
396.81	175.54
397.00	105.32
397.19	166.18
397.39	86.60
397.58	163.84
397.77	93.62
397.97	170.86
398.16	117.03
398.35	168.52
398.55	88.94
398.74	203.63
398.93	105.32
399.12	60.85
399.32	173.20
399.51	86.60
399.70	166.18
399.90	121.71
400.09	210.65
400.28	227.03
400.47	117.03
400.67	215.33
400.86	98.30
401.05	173.20
401.24	170.86
401.44	201.29
401.63	163.84
401.82	250.44
402.01	159.16
402.21	234.05
402.40	198.95
402.59	191.92
402.78	210.65
402.97	187.24
403.17	257.46
403.36	259.80
403.55	278.52
403.74	741.95
403.93	2239.89
404.13	5727.29
404.32	8760.63
404.51	8051.44
404.70	5366.85
404.89	1909.88
405.09	608.54
405.28	283.20
405.47	257.46
405.66	248.10
405.85	224.69
406.05	217.67
406.24	201.29
406.43	224.69
406.62	243.42
406.81	243.42
407.00	400.23
407.20	641.31
407.39	1172.61
407.58	1198.35
407.77	901.11
407.96	528.96
408.15	252.78
408.34	191.92
408.54	191.92
408.73	170.86
408.92	224.69
409.11	224.69
409.30	215.33
409.49	161.50
409.68	88.94
409.87	163.84
410.07	126.39
410.26	201.29
410.45	215.33
410.64	212.99
410.83	198.95
411.02	222.35
411.21	264.48
411.40	189.58
411.59	243.42
411.78	168.52
411.98	191.92
412.17	201.29
412.36	203.63
412.55	212.99
412.74	360.44
412.93	259.80
413.12	222.35
413.31	187.24
413.50	170.86
413.69	245.76
413.88	215.33
414.07	252.78
414.26	294.91
414.45	257.46
414.64	278.52
414.83	187.24
415.02	315.97
415.22	341.72
415.41	248.10
415.60	231.71
415.79	325.33
415.98	262.14
416.17	334.70
416.36	215.33
416.55	299.59
416.74	344.06
416.93	280.86
417.12	229.37
417.31	304.27
417.50	245.76
417.69	255.12
417.88	327.68
418.07	301.93
418.26	252.78
418.45	170.86
418.64	315.97
418.83	285.55
419.02	273.84
419.21	278.52
419.39	306.61
419.58	297.25
419.77	266.82
419.96	294.91
420.15	229.37
420.34	269.16
420.53	243.42
420.72	348.74
420.91	304.27
421.10	315.97
421.29	294.91
421.48	294.91
421.67	358.10
421.86	334.70
422.05	423.64
422.24	297.25
422.43	311.29
422.61	327.68
422.80	252.78
422.99	351.08
423.18	301.93
423.37	353.42
423.56	344.06
423.75	374.49
423.94	259.80
424.13	287.89
424.32	269.16
424.50	397.89
424.69	393.21
424.88	379.17
425.07	285.55
425.26	381.51
425.45	297.25
425.64	332.36
425.83	299.59
426.01	402.57
426.20	372.15
426.39	435.34
426.58	379.17
426.77	351.08
426.96	416.62
427.15	381.51
427.33	433.00
427.52	306.61
427.71	355.76
427.90	360.44
428.09	409.59
428.28	358.10
428.46	409.59
428.65	360.44
428.84	341.72
429.03	379.17
429.22	313.63
429.40	397.89
429.59	379.17
429.78	353.42
429.97	433.00
430.16	491.51
430.34	409.59
430.53	395.55
430.72	447.04
430.91	341.72
431.10	362.78
431.28	470.45
431.47	447.04
431.66	433.00
431.85	409.59
432.03	360.44
432.22	500.87
432.41	533.64
432.60	538.32
432.79	437.68
432.97	538.32
433.16	592.16
433.35	671.73
433.54	760.67
433.72	784.08
433.91	748.97
434.10	807.48
434.28	968.98
434.47	1177.29
434.66	1366.87
434.85	1598.59
435.03	3775.28
435.22	13954.27
435.41	34759.30
435.59	42838.83
435.78	29205.20
435.97	13865.33
436.16	5313.02
436.34	1708.59
436.53	1118.78
436.72	814.51
436.90	690.46
437.09	655.35
437.28	580.45
437.46	543.00
437.65	519.60
437.84	580.45
438.02	566.41
438.21	552.37
438.40	585.13
438.58	514.92
438.77	592.16
438.96	575.77
439.14	566.41
439.33	517.26
439.52	514.92
439.70	552.37
439.89	507.90
440.08	575.77
440.26	599.18
440.45	589.82
440.63	538.32
440.82	521.94
441.01	566.41
441.19	507.90
441.38	484.49
441.57	573.43
441.75	550.03
441.94	545.34
442.12	552.37
442.31	613.22
442.50	500.87
442.68	498.53
442.87	554.71
443.05	573.43
443.24	500.87
443.43	573.43
443.61	564.07
443.80	566.41
443.98	624.92
444.17	564.07
444.35	592.16
444.54	545.34
444.73	477.47
444.91	571.09
445.10	535.98
445.28	451.72
445.47	543.00
445.65	517.26
445.84	512.58
446.02	538.32
446.21	554.71
446.39	535.98
446.58	594.50
446.77	540.66
446.95	503.22
447.14	545.34
447.32	627.26
447.51	500.87
447.69	512.58
447.88	561.73
448.06	512.58
448.25	507.90
448.43	500.87
448.62	559.39
448.80	545.34
448.99	575.77
449.17	435.34
449.36	433.00
449.54	561.73
449.73	552.37
449.91	526.62
450.10	571.09
450.28	543.00
450.46	521.94
450.65	491.51
450.83	496.19
451.02	557.05
451.20	561.73
451.39	484.49
451.57	454.06
451.76	404.91
451.94	507.90
452.13	528.96
452.31	554.71
452.49	493.85
452.68	533.64
452.86	580.45
453.05	617.90
453.23	557.05
453.42	540.66
453.60	465.77
453.78	486.83
453.97	557.05
454.15	484.49
454.34	470.45
454.52	500.87
454.70	578.11
454.89	545.34
455.07	531.30
455.26	573.43
455.44	482.15
455.62	564.07
455.81	540.66
455.99	557.05
456.17	538.32
456.36	472.79
456.54	540.66
456.73	482.15
456.91	507.90
457.09	456.40
457.28	526.62
457.46	491.51
457.64	465.77
457.83	517.26
458.01	531.30
458.19	568.75
458.38	514.92
458.56	451.72
458.74	510.24
458.93	547.69
459.11	472.79
459.29	479.81
459.48	531.30
459.66	475.13
459.84	519.60
460.03	580.45
460.21	594.50
460.39	531.30
460.57	468.11
460.76	402.57
460.94	582.79
461.12	533.64
461.31	498.53
461.49	489.17
461.67	437.68
461.85	463.43
462.04	500.87
462.22	910.47
462.40	498.53
462.59	554.71
462.77	531.30
462.95	463.43
463.13	425.98
463.32	493.85
463.50	454.06
463.68	531.30
463.86	573.43
464.05	554.71
464.23	554.71
464.41	599.18
464.59	507.90
464.78	533.64
464.96	449.38
465.14	526.62
465.32	475.13
465.50	596.84
465.69	514.92
465.87	491.51
466.05	491.51
466.23	540.66
466.41	517.26
466.60	517.26
466.78	596.84
466.96	589.82
467.14	585.13
467.32	561.73
467.51	479.81
467.69	564.07
467.87	416.62
468.05	503.22
468.23	521.94
468.41	514.92
468.60	456.40
468.78	468.11
468.96	463.43
469.14	442.36
469.32	510.24
469.50	365.12
469.69	458.74
469.87	421.30
470.05	496.19
470.23	512.58
470.41	554.71
470.59	435.34
470.77	496.19
470.95	423.64
471.14	486.83
471.32	447.04
471.50	482.15
471.68	526.62
471.86	468.11
472.04	503.22
472.22	498.53
472.40	505.56
472.58	519.60
472.77	564.07
472.95	489.17
473.13	533.64
473.31	496.19
473.49	503.22
473.67	500.87
473.85	510.24
474.03	521.94
474.21	552.37
474.39	524.28
474.57	512.58
474.75	482.15
474.93	470.45
475.12	496.19
475.30	517.26
475.48	500.87
475.66	498.53
475.84	468.11
476.02	491.51
476.20	500.87
476.38	538.32
476.56	447.04
476.74	456.40
476.92	477.47
477.10	528.96
477.28	517.26
477.46	423.64
477.64	519.60
477.82	486.83
478.00	505.56
478.18	573.43
478.36	564.07
478.54	641.31
478.72	622.58
478.90	566.41
479.08	624.92
479.26	573.43
479.44	603.86
479.62	634.29
479.80	613.22
479.98	650.67
480.16	685.78
480.34	805.14
480.52	746.63
480.70	781.74
480.88	725.57
481.06	842.59
481.24	889.40
481.41	1008.77
481.59	1034.52
481.77	1071.97
481.95	1057.92
482.13	1315.38
482.31	1266.23
482.49	1327.08
482.67	1277.93
482.85	1547.09
483.03	1626.67
483.21	1699.23
483.39	1750.72
483.57	1909.88
483.74	2083.08
483.92	2176.70
484.10	2279.68
484.28	2394.37
484.46	2635.44
484.64	2757.15
484.82	2810.98
485.00	2909.29
485.18	3056.74
485.35	3351.65
485.53	3321.22
485.71	3688.68
485.89	3777.62
486.07	3772.94
486.25	3880.61
486.43	3852.52
486.61	3896.99
486.78	3826.78
486.96	3960.19
487.14	3927.42
487.32	3735.50
487.50	3864.22
487.68	3789.33
487.85	3864.22
488.03	3812.73
488.21	3707.41
488.39	3494.42
488.57	3606.77
488.75	3356.33
488.92	3543.57
489.10	3307.18
489.28	3122.27
489.46	3105.89
489.64	3162.06
489.81	3040.36
489.99	3052.06
490.17	3047.38
490.35	2876.52
490.53	2906.95
490.70	2857.79
490.88	2953.76
491.06	3052.06
491.24	3286.11
491.41	3346.97
491.59	3164.40
491.77	2930.35
491.95	2778.22
492.13	2871.84
492.30	2719.70
492.48	2593.31
492.66	2614.38
492.84	2476.29
493.01	2644.81
493.19	2476.29
493.37	2581.61
493.54	2438.84
493.72	2483.31
493.90	2487.99
494.08	2139.25
494.25	2277.34
494.43	2275.00
494.61	2310.11
494.79	2092.44
494.96	2099.46
495.14	2099.46
495.32	2087.76
495.49	2022.22
495.67	2059.67
495.85	1954.35
496.02	1949.67
496.20	1975.41
496.38	1968.39
496.55	1853.70
496.73	1860.73
496.91	1743.70
497.09	1844.34
497.26	1736.68
497.44	1802.21
497.62	1654.76
497.79	1703.91
497.97	1593.90
498.14	1647.74
498.32	1549.43
498.50	1614.97
498.67	1432.41
498.85	1350.49
499.03	1444.11
499.20	1366.87
499.38	1270.91
499.56	1397.30
499.73	1409.00
499.91	1345.81
500.08	1284.95
500.26	1191.33
500.44	1210.06
500.61	1123.46
500.79	1032.18
500.97	1128.14
501.14	997.07
501.32	987.71
501.49	954.94
501.67	1034.52
501.84	938.55
502.02	1060.26
502.20	971.32
502.37	926.85
502.55	807.48
502.72	844.93
502.90	826.21
503.07	723.23
503.25	830.89
503.43	788.76
503.60	777.06
503.78	716.20
503.95	706.84
504.13	734.93
504.30	711.52
504.48	678.76
504.65	746.63
504.83	676.41
505.01	702.16
505.18	587.47
505.36	641.31
505.53	599.18
505.71	578.11
505.88	585.13
506.06	657.69
506.23	489.17
506.41	547.69
506.58	521.94
506.76	526.62
506.93	507.90
507.11	543.00
507.28	496.19
507.46	533.64
507.63	437.68
507.81	454.06
507.98	531.30
508.16	526.62
508.33	510.24
508.50	545.34
508.68	571.09
508.85	545.34
509.03	578.11
509.20	610.88
509.38	538.32
509.55	545.34
509.73	505.56
509.90	587.47
510.08	477.47
510.25	550.03
510.42	465.77
510.60	482.15
510.77	519.60
510.95	514.92
511.12	505.56
511.30	472.79
511.47	538.32
511.64	475.13
511.82	458.74
511.99	550.03
512.17	414.27
512.34	379.17
512.51	425.98
512.69	428.32
512.86	517.26
513.04	423.64
513.21	435.34
513.38	463.43
513.56	414.27
513.73	409.59
513.90	477.47
514.08	425.98
514.25	540.66
514.43	440.02
514.60	411.93
514.77	423.64
514.95	440.02
515.12	421.30
515.29	400.23
515.47	435.34
515.64	437.68
515.81	369.80
515.99	440.02
516.16	393.21
516.33	545.34
516.51	484.49
516.68	451.72
516.85	470.45
517.03	414.27
517.20	381.51
517.37	442.36
517.54	437.68
517.72	400.23
517.89	400.23
518.06	269.16
518.24	404.91
518.41	489.17
518.58	521.94
518.75	341.72
518.93	400.23
519.10	472.79
519.27	355.76
519.45	362.78
519.62	374.49
519.79	379.17
519.96	421.30
520.14	411.93
520.31	287.89
520.48	390.87
520.65	367.46
520.83	442.36
521.00	425.98
521.17	397.89
521.34	414.27
521.52	411.93
521.69	353.42
521.86	332.36
522.03	454.06
522.20	397.89
522.38	358.10
522.55	423.64
522.72	395.55
522.89	386.19
523.07	491.51
523.24	388.53
523.41	430.66
523.58	397.89
523.75	355.76
523.92	379.17
524.10	395.55
524.27	362.78
524.44	416.62
524.61	472.79
524.78	407.25
524.96	409.59
525.13	339.38
525.30	376.83
525.47	568.75
525.64	451.72
525.81	465.77
525.98	472.79
526.16	444.70
526.33	418.96
526.50	404.91
526.67	456.40
526.84	491.51
527.01	505.56
527.18	517.26
527.36	559.39
527.53	573.43
527.70	451.72
527.87	533.64
528.04	528.96
528.21	524.28
528.38	486.83
528.55	575.77
528.72	514.92
528.89	468.11
529.07	468.11
529.24	503.22
529.41	580.45
529.58	507.90
529.75	559.39
529.92	566.41
530.09	533.64
530.26	550.03
530.43	608.54
530.60	528.96
530.77	660.03
530.94	550.03
531.11	624.92
531.28	603.86
531.46	688.12
531.63	758.33
531.80	772.38
531.97	777.06
532.14	915.15
532.31	992.39
532.48	1308.36
532.65	1502.62
532.82	1696.89
532.99	1863.07
533.16	2307.77
533.33	2345.22
533.50	2209.47
533.67	1818.60
533.84	1631.35
534.01	1474.54
534.18	1409.00
534.35	1345.81
534.52	1329.42
534.69	1444.11
534.86	1406.66
535.03	1425.39
535.20	1472.20
535.37	1631.35
535.54	1598.59
535.71	1739.02
535.88	1881.79
536.05	1886.47
536.22	2157.97
536.38	2356.92
536.55	2635.44
536.72	2928.01
536.89	3197.17
537.06	3433.57
537.23	3829.12
537.40	4372.12
537.57	4634.26
537.74	4905.76
537.91	5123.43
538.08	5121.09
538.25	5266.21
538.42	5235.78
538.59	5416.00
538.75	5584.52
538.92	5865.38
539.09	6593.29
539.26	7211.19
539.43	8250.39
539.60	9184.26
539.77	10331.12
539.94	11454.58
540.11	12767.62
540.28	14377.91
540.44	15742.44
540.61	17142.08
540.78	19410.06
540.95	23379.61
541.12	27845.35
541.29	31793.84
541.46	33940.11
541.62	33394.76
541.79	32259.60
541.96	30012.69
542.13	27681.52
542.30	25926.11
542.47	24512.43
542.63	22881.08
542.80	22071.25
542.97	21919.12
543.14	21624.21
543.31	21586.76
543.48	21362.07
543.64	22183.60
543.81	22471.48
543.98	22410.63
544.15	22618.94
544.32	22778.09
544.48	22899.80
544.65	22593.19
544.82	22394.25
544.99	22850.65
545.16	23063.64
545.32	24219.86
545.49	37326.86
545.66	58461.90
545.83	65535.00
546.00	64919.44
546.16	52608.22
546.33	39782.09
546.50	30497.18
546.67	23201.73
546.83	20322.87
547.00	19564.54
547.17	18857.70
547.34	17776.37
547.50	17397.20
547.67	16360.34
547.84	15917.98
548.00	15580.95
548.17	15063.69
548.34	14101.73
548.51	13540.00
548.67	12776.98
548.84	12372.07
549.01	11667.57
549.18	11236.91
549.34	10782.85
549.51	10422.41
549.68	9900.47
549.84	9940.26
550.01	9198.31
550.18	8723.18
550.34	8348.69
550.51	7749.51
550.68	7562.27
550.84	7019.27
551.01	6684.57
551.18	6670.53
551.34	6136.88
551.51	5909.85
551.68	5535.37
551.84	5434.72
552.01	5298.97
552.18	5139.82
552.34	4683.41
552.51	4500.85
552.68	4528.94
552.84	4348.72
553.01	4086.58
553.18	3992.95
553.34	3950.82
553.51	3705.07
553.67	3623.15
553.84	3463.99
554.01	3318.88
554.17	3042.70
554.34	2782.90
554.51	2619.06
554.67	2469.27
554.84	2513.74
555.00	2298.41
555.17	2085.42
555.33	2106.48
555.50	1907.54
555.67	1877.11
555.83	1703.91
556.00	1769.44
556.16	1797.53
556.33	1617.31
556.50	1593.90
556.66	1486.24
556.83	1458.15
556.99	1376.24
557.16	1469.86
557.32	1299.00
557.49	1245.16
557.65	1291.98
557.82	1177.29
557.98	1249.85
558.15	1228.78
558.32	1177.29
558.48	1142.18
558.65	1109.41
558.81	1086.01
558.98	1027.50
559.14	1064.94
559.31	1039.20
559.47	971.32
559.64	987.71
559.80	954.94
559.97	952.60
560.13	924.51
560.30	915.15
560.46	933.87
560.63	898.77
560.79	887.06
560.96	954.94
561.12	929.19
561.29	952.60
561.45	936.21
561.61	964.30
561.78	973.66
561.94	957.28
562.11	847.27
562.27	966.64
562.44	896.43
562.60	908.13
562.77	891.74
562.93	968.98
563.10	800.46
563.26	800.46
563.42	894.08
563.59	835.57
563.75	751.31
563.92	866.00
564.08	849.61
564.24	842.59
564.41	741.95
564.57	751.31
564.74	723.23
564.90	671.73
565.07	650.67
565.23	777.06
565.39	718.54
565.56	800.46
565.72	629.60
565.88	655.35
566.05	713.86
566.21	713.86
566.38	723.23
566.54	760.67
566.70	779.40
566.87	739.61
567.03	755.99
567.19	716.20
567.36	674.07
567.52	730.25
567.68	702.16
567.85	709.18
568.01	732.59
568.17	744.29
568.34	779.40
568.50	709.18
568.66	681.10
568.83	774.72
568.99	739.61
569.15	688.12
569.32	641.31
569.48	608.54
569.64	669.39
569.81	599.18
569.97	575.77
570.13	603.86
570.30	543.00
570.46	486.83
570.62	535.98
570.78	538.32
570.95	500.87
571.11	535.98
571.27	622.58
571.43	538.32
571.60	582.79
571.76	526.62
571.92	547.69
572.09	547.69
572.25	582.79
572.41	472.79
572.57	592.16
572.74	578.11
572.90	505.56
573.06	550.03
573.22	519.60
573.38	599.18
573.55	531.30
573.71	627.26
573.87	578.11
574.03	580.45
574.20	692.80
574.36	608.54
574.52	662.37
574.68	669.39
574.84	704.50
575.01	777.06
575.17	844.93
575.33	772.38
575.49	837.91
575.65	884.72
575.82	1036.86
575.98	1130.48
576.14	1224.10
576.30	2204.78
576.46	6506.69
576.62	14284.29
576.79	18092.34
576.95	12730.17
577.11	7925.05
577.27	5460.47
577.43	3382.07
577.59	2267.98
577.75	1853.70
577.92	1671.14
578.08	1533.05
578.24	1600.93
578.40	2485.65
578.56	6298.38
578.72	13312.97
578.88	16276.09
579.04	11981.20
579.21	7550.57
579.37	5526.00
579.53	4182.54
579.69	3833.80
579.85	4889.38
580.01	5762.40
580.17	5874.74
580.33	5043.85
580.49	4327.65
580.65	3733.15
580.82	3363.35
580.98	3400.80
581.14	3222.92
581.30	3494.42
581.46	3660.60
581.62	3969.55
581.78	4278.50
581.94	4582.77
582.10	4975.98
582.26	5137.48
582.42	5341.10
582.58	5554.09
582.74	5516.64
582.90	5605.58
583.06	5715.59
583.22	5699.20
583.38	5645.37
583.54	5636.01
583.70	5643.03
583.86	5640.69
584.02	5448.77
584.18	5490.90
584.34	5149.18
584.50	5193.65
584.66	5125.77
584.82	5043.85
584.98	5177.26
585.14	4980.66
585.30	4863.63
585.46	4826.18
585.62	4720.86
585.78	4725.54
585.94	4697.46
586.10	4929.17
586.26	5146.84
586.42	5802.19
586.58	7007.56
586.74	8170.81
586.90	9926.21
587.06	11000.52
587.22	11044.99
587.38	10064.30
587.54	8692.75
587.70	7370.35
587.86	6186.04
588.02	5387.91
588.18	4704.48
588.34	4217.65
588.49	3786.99
588.65	3632.51
588.81	3431.23
588.97	3183.13
589.13	3117.59
589.29	3152.70
589.45	3105.89
589.61	3080.14
589.77	3148.02
589.93	3040.36
590.08	3166.74
590.24	3337.60
590.40	3456.97
590.56	3492.08
590.72	3513.14
590.88	3562.30
591.04	3824.44
591.20	4067.85
591.35	4098.28
591.51	4327.65
591.67	4566.39
591.83	4805.12
591.99	5125.77
592.15	5593.88
592.31	6099.44
592.46	6647.12
592.62	7155.02
592.78	7740.15
592.94	7983.57
593.10	7969.52
593.26	7588.02
593.41	7211.19
593.57	6502.01
593.73	5418.34
593.89	4922.15
594.05	4430.63
594.20	3943.80
594.36	3590.38
594.52	3417.18
594.68	3243.98
594.84	3112.91
594.99	3019.29
595.15	2892.90
595.31	2916.31
595.47	2920.99
595.62	2918.65
595.78	2846.09
595.94	2738.43
596.10	2855.45
596.25	2829.71
596.41	2829.71
596.57	2768.85
596.73	2757.15
596.88	2775.88
597.04	2752.47
597.20	2750.13
597.36	2820.35
597.51	2960.78
597.67	2998.23
597.83	3253.34
597.99	3428.88
598.14	3630.17
598.30	3798.69
598.46	4021.04
598.61	4320.63
598.77	4517.23
598.93	4610.86
599.09	4854.27
599.24	4819.16
599.40	4830.87
599.56	4702.14
599.71	4505.53
599.87	4219.99
600.03	4124.02
600.18	3796.35
600.34	3393.78
600.50	3215.90
600.65	3014.61
600.81	2895.24
600.97	2743.11
601.12	2593.31
601.28	2490.33
601.44	2319.47
601.59	2279.68
601.75	2181.38
601.91	2036.27
602.06	2017.54
602.22	2045.63
602.37	1900.52
602.53	1839.66
602.69	1827.96
602.84	1823.28
603.00	1851.36
603.16	1909.88
603.31	1994.14
603.47	1886.47
603.62	1954.35
603.78	1984.77
603.94	2031.58
604.09	2024.56
604.25	2132.23
604.40	2132.23
604.56	2097.12
604.71	2183.72
604.87	2251.60
605.03	2253.94
605.18	2179.04
605.34	2424.80
605.49	2300.75
605.65	2473.95
605.80	2525.44
605.96	2672.89
606.12	2759.49
606.27	2818.00
606.43	2979.50
606.58	2963.12
606.74	3084.83
606.89	3311.86
607.05	3517.83
607.20	3705.07
607.36	3873.59
607.51	4142.75
607.67	4381.48
607.82	4865.97
607.98	5153.86
608.13	5504.94
608.29	5900.49
608.44	6335.83
608.60	6700.95
608.75	7494.40
608.91	8409.54
609.06	9027.45
609.22	9928.55
609.37	10806.25
609.53	12374.41
609.68	13872.36
609.84	16280.77
609.99	18810.89
610.15	22377.86
610.30	27742.37
610.46	34792.06
610.61	44175.27
610.76	53921.26
610.92	59297.47
611.07	62927.64
611.23	63793.64
611.38	62541.45
611.54	59681.32
611.69	54932.37
611.84	49219.13
612.00	41792.61
612.15	34885.68
612.31	30506.54
612.46	26700.83
612.62	25348.00
612.77	23653.45
612.92	22796.82
613.08	21146.74
613.23	19950.73
613.39	19000.47
613.54	18562.79
613.69	18735.99
613.85	17954.25
614.00	18136.81
614.15	17788.07
614.31	17397.20
614.46	17308.26
614.62	16353.32
614.77	15782.23
614.92	14726.65
615.08	13523.62
615.23	12676.34
615.38	11709.70
615.54	10509.01
615.69	9724.93
615.84	9067.24
616.00	8060.80
616.15	7449.93
616.30	7021.61
616.46	6504.35
616.61	6340.51
616.76	5884.11
616.92	5659.42
617.07	5359.83
617.22	4983.00
617.37	4699.80
617.53	4564.04
617.68	4414.25
617.83	4280.84
617.99	4259.78
618.14	3990.61
618.29	3922.74
618.45	3885.29
618.60	3868.91
618.75	3784.65
618.90	3662.94
619.06	3482.72
619.21	3595.06
619.36	3531.87
619.51	3517.83
619.67	3588.04
619.82	3499.10
619.97	3599.74
620.12	3698.05
620.28	3812.73
620.43	3967.21
620.58	3889.97
620.73	4079.55
620.89	3957.85
621.04	3859.54
621.19	4002.32
621.34	3801.03
621.49	3794.01
621.65	3845.50
621.80	3777.62
621.95	3604.42
622.10	3669.96
622.25	3702.73
622.41	3770.60
622.56	3901.67
622.71	3913.38
622.86	4114.66
623.01	4067.85
623.16	4203.60
623.32	4159.13
623.47	4306.59
623.62	4337.01
623.77	4243.39
623.92	4322.97
624.07	4102.96
624.23	4227.01
624.38	4212.96
624.53	4322.97
624.68	4362.76
624.83	4510.21
624.98	4236.37
625.13	4306.59
625.29	4402.55
625.44	4353.40
625.59	4360.42
625.74	4346.37
625.89	4423.61
626.04	4362.76
626.19	4376.80
626.34	4493.83
626.49	4489.15
626.65	4339.35
626.80	4259.78
626.95	4395.53
627.10	4140.41
627.25	4086.58
627.40	4119.34
627.55	4018.70
627.70	3936.78
627.85	3901.67
628.00	3936.78
628.15	3911.04
628.30	3784.65
628.45	3955.51
628.60	3878.27
628.76	3911.04
628.91	3838.48
629.06	3995.29
629.21	3967.21
629.36	4152.11
629.51	4203.60
629.66	4475.10
629.81	4622.56
629.96	5123.43
630.11	5668.78
630.26	6181.35
630.41	6993.52
630.56	7810.37
630.71	8500.83
630.86	8690.41
631.01	8234.00
631.16	7765.90
631.31	7080.12
631.46	6179.01
631.61	5170.24
631.76	4358.08
631.91	3543.57
632.06	2972.48
632.21	2696.30
632.36	2387.35
632.51	2085.42
632.66	1849.02
632.81	1699.23
632.96	1621.99
633.10	1542.41
633.25	1598.59
633.40	1504.96
633.55	1334.11
633.70	1371.55
633.85	1362.19
634.00	1214.74
634.15	1174.95
634.30	1217.08
634.45	1228.78
634.60	1083.67
634.75	1156.22
634.90	1050.90
635.05	1100.05
635.19	1067.28
635.34	1097.71
635.49	1076.65
635.64	1015.79
635.79	1006.43
635.94	1006.43
636.09	884.72
636.24	1001.75
636.39	856.64
636.53	976.00
636.68	933.87
636.83	798.12
636.98	966.64
637.13	952.60
637.28	943.24
637.43	858.98
637.57	835.57
637.72	809.83
637.87	863.66
638.02	847.27
638.17	875.36
638.32	791.10
638.46	807.48
638.61	692.80
638.76	791.10
638.91	774.72
639.06	760.67
639.20	826.21
639.35	788.76
639.50	758.33
639.65	777.06
639.80	692.80
639.94	779.40
640.09	744.29
640.24	702.16
640.39	648.33
640.54	667.05
640.68	704.50
640.83	709.18
640.98	683.44
641.13	711.52
641.27	795.78
641.42	662.37
641.57	711.52
641.72	653.01
641.86	683.44
642.01	765.36
642.16	713.86
642.31	688.12
642.45	746.63
642.60	650.67
642.75	716.20
642.90	741.95
643.04	725.57
643.19	746.63
643.34	730.25
643.48	699.82
643.63	702.16
643.78	674.07
643.93	791.10
644.07	690.46
644.22	807.48
644.37	727.91
644.51	704.50
644.66	746.63
644.81	669.39
644.95	709.18
645.10	681.10
645.25	751.31
645.39	765.36
645.54	650.67
645.69	732.59
645.83	615.56
645.98	744.29
646.13	660.03
646.27	720.88
646.42	711.52
646.57	685.78
646.71	676.41
646.86	732.59
647.00	582.79
647.15	678.76
647.30	688.12
647.44	631.94
647.59	685.78
647.74	744.29
647.88	732.59
648.03	674.07
648.17	809.83
648.32	763.01
648.47	671.73
648.61	671.73
648.76	779.40
648.90	727.91
649.05	809.83
649.20	854.30
649.34	931.53
649.49	957.28
649.63	1240.48
649.78	1359.85
649.92	1666.46
650.07	1949.67
650.21	2141.59
650.36	2326.49
650.51	2293.72
650.65	2181.38
650.80	1970.73
650.94	1769.44
651.09	1458.15
651.23	1572.84
651.38	1383.26
651.52	1193.67
651.67	1078.99
651.81	1069.62
651.96	903.45
652.10	795.78
652.25	828.55
652.39	924.51
652.54	917.49
652.68	1071.97
652.83	1107.07
652.97	1172.61
653.12	1259.21
653.26	1109.41
653.41	1128.14
653.55	1001.75
653.70	943.24
653.84	919.83
653.99	786.42
654.13	760.67
654.27	737.27
654.42	732.59
654.56	678.76
654.71	821.53
654.85	655.35
655.00	681.10
655.14	802.80
655.29	613.22
655.43	638.97
655.57	720.88
655.72	601.52
655.86	617.90
656.01	660.03
656.15	589.82
656.30	676.41
656.44	627.26
656.58	606.20
656.73	653.01
656.87	531.30
657.01	702.16
657.16	753.65
657.30	737.27
657.45	833.23
657.59	809.83
657.73	765.36
657.88	765.36
658.02	858.98
658.16	791.10
658.31	753.65
658.45	683.44
658.60	653.01
658.74	566.41
658.88	571.09
659.03	585.13
659.17	543.00
659.31	592.16
659.46	489.17
659.60	528.96
659.74	535.98
659.89	496.19
660.03	458.74
660.17	582.79
660.32	615.56
660.46	594.50
660.60	514.92
660.74	505.56
660.89	503.22
661.03	454.06
661.17	617.90
661.32	655.35
661.46	676.41
661.60	758.33
661.74	929.19
661.89	1090.69
662.03	1383.26
662.17	1479.22
662.31	1472.20
662.46	1341.13
662.60	1366.87
662.74	1186.65
662.88	1139.84
663.03	945.58
663.17	861.32
663.31	807.48
663.45	770.04
663.60	709.18
663.74	725.57
663.88	676.41
664.02	610.88
664.17	573.43
664.31	540.66
664.45	561.73
664.59	521.94
664.73	547.69
664.88	526.62
665.02	491.51
665.16	470.45
665.30	449.38
665.44	449.38
665.59	475.13
665.73	500.87
665.87	388.53
666.01	514.92
666.15	393.21
666.29	458.74
666.44	465.77
666.58	564.07
666.72	514.92
666.86	416.62
667.00	580.45
667.14	482.15
667.28	510.24
667.43	514.92
667.57	498.53
667.71	573.43
667.85	468.11
667.99	545.34
668.13	498.53
668.27	528.96
668.41	416.62
668.56	430.66
668.70	496.19
668.84	423.64
668.98	456.40
669.12	428.32
669.26	372.15
669.40	472.79
669.54	367.46
669.68	458.74
669.82	535.98
669.96	430.66
670.10	470.45
670.25	449.38
670.39	454.06
670.53	379.17
670.67	463.43
670.81	386.19
670.95	397.89
671.09	355.76
671.23	423.64
671.37	547.69
671.51	428.32
671.65	454.06
671.79	383.85
671.93	411.93
672.07	456.40
672.21	369.80
672.35	393.21
672.49	407.25
672.63	379.17
672.77	402.57
672.91	421.30
673.05	348.74
673.19	496.19
673.33	355.76
673.47	344.06
673.61	346.40
673.75	416.62
673.89	365.12
674.03	374.49
674.17	435.34
674.31	437.68
674.45	360.44
674.59	315.97
674.73	390.87
674.87	344.06
675.01	428.32
675.15	341.72
675.29	397.89
675.43	351.08
675.56	393.21
675.70	344.06
675.84	327.68
675.98	344.06
676.12	325.33
676.26	287.89
676.40	304.27
676.54	313.63
676.68	276.18
676.82	355.76
676.96	297.25
677.10	334.70
677.23	381.51
677.37	327.68
677.51	273.84
677.65	351.08
677.79	285.55
677.93	346.40
678.07	325.33
678.21	365.12
678.34	294.91
678.48	421.30
678.62	320.65
678.76	320.65
678.90	369.80
679.04	313.63
679.18	344.06
679.31	299.59
679.45	348.74
679.59	306.61
679.73	313.63
679.87	355.76
680.00	395.55
680.14	360.44
680.28	447.04
680.42	369.80
680.56	386.19
680.70	358.10
680.83	400.23
680.97	365.12
681.11	339.38
681.25	332.36
681.39	379.17
681.52	393.21
681.66	299.59
681.80	341.72
681.94	365.12
682.07	341.72
682.21	344.06
682.35	306.61
682.49	346.40
682.62	393.21
682.76	306.61
682.90	330.02
683.04	379.17
683.17	379.17
683.31	304.27
683.45	313.63
683.59	325.33
683.72	351.08
683.86	353.42
684.00	308.95
684.13	322.99
684.27	308.95
684.41	344.06
684.55	278.52
684.68	243.42
684.82	325.33
684.96	353.42
685.09	294.91
685.23	393.21
685.37	374.49
685.50	395.55
685.64	425.98
685.78	318.31
685.91	409.59
686.05	400.23
686.19	409.59
686.32	437.68
686.46	402.57
686.60	456.40
686.73	538.32
686.87	587.47
687.01	592.16
687.14	603.86
687.28	746.63
687.42	779.40
687.55	798.12
687.69	861.32
687.82	809.83
687.96	828.55
688.10	805.14
688.23	767.70
688.37	760.67
688.50	671.73
688.64	554.71
688.78	596.84
688.91	493.85
689.05	407.25
689.18	440.02
689.32	393.21
689.46	325.33
689.59	332.36
689.73	348.74
689.86	318.31
690.00	301.93
690.13	297.25
690.27	351.08
690.41	327.68
690.54	353.42
690.68	355.76
690.81	379.17
690.95	344.06
691.08	369.80
691.22	234.05
691.35	280.86
691.49	313.63
691.62	222.35
691.76	248.10
691.89	271.50
692.03	231.71
692.16	149.79
692.30	224.69
692.43	311.29
692.57	217.67
692.70	205.97
692.84	266.82
692.97	315.97
693.11	358.10
693.24	327.68
693.38	505.56
693.51	531.30
693.65	685.78
693.78	688.12
693.92	627.26
694.05	540.66
694.19	458.74
694.32	461.09
694.45	484.49
694.59	369.80
694.72	271.50
694.86	269.16
694.99	250.44
695.13	203.63
695.26	180.22
695.39	262.14
695.53	287.89
695.66	154.48
695.80	276.18
695.93	168.52
696.07	269.16
696.20	236.39
696.33	234.05
696.47	280.86
696.60	250.44
696.73	264.48
696.87	248.10
697.00	257.46
697.14	140.43
697.27	196.60
697.40	231.71
697.54	236.39
697.67	283.20
697.80	224.69
697.94	170.86
698.07	262.14
698.21	100.64
698.34	152.13
698.47	182.56
698.61	227.03
698.74	119.37
698.87	166.18
699.01	203.63
699.14	135.75
699.27	175.54
699.40	271.50
699.54	217.67
699.67	166.18
699.80	138.09
699.94	166.18
700.07	182.56
700.20	203.63
700.34	126.39
700.47	86.60
700.60	128.73
700.73	154.48
700.87	236.39
701.00	149.79
701.13	126.39
701.26	189.58
701.40	131.07
701.53	175.54
701.66	161.50
701.79	161.50
701.93	177.88
702.06	238.73
702.19	208.31
702.32	208.31
702.46	173.20
702.59	128.73
702.72	173.20
702.85	168.52
702.99	189.58
703.12	271.50
703.25	220.01
703.38	236.39
703.51	266.82
703.65	315.97
703.78	278.52
703.91	278.52
704.04	341.72
704.17	315.97
704.31	243.42
704.44	238.73
704.57	255.12
704.70	353.42
704.83	344.06
704.96	362.78
705.10	306.61
705.23	306.61
>>>>>End Processed Spectral Data<<<<<
