SpectraSuite Data File
++++++++++++++++++++++++++++++++++++
Date: Fri Oct 04 11:42:01 GMT-05:00 2013
User: price-jones
Dark Spectrum Present: No
Reference Spectrum Present: No
Number of Sampled Component Spectra: 1
Spectrometers: USB2+H05261
Integration Time (usec): 100000 (USB2+H05261)
Spectra Averaged: 1 (USB2+H05261)
Boxcar Smoothing: 0 (USB2+H05261)
Correct for Electrical Dark: No (USB2+H05261)
Strobe/Lamp Enabled: No (USB2+H05261)
Correct for Detector Non-linearity: No (USB2+H05261)
Correct for Stray Light: No (USB2+H05261)
Number of Pixels in Processed Spectrum: 2048
>>>>>Begin Processed Spectral Data<<<<<
365.73	0.00
365.92	0.00
366.12	0.00
366.32	0.00
366.52	0.00
366.72	2.34
366.91	0.00
367.11	30.43
367.31	0.00
367.51	0.00
367.70	0.00
367.90	0.00
368.10	0.00
368.30	0.00
368.49	0.00
368.69	0.00
368.89	0.00
369.09	0.00
369.28	0.00
369.48	0.00
369.68	63.19
369.87	0.00
370.07	0.00
370.27	79.58
370.47	86.60
370.66	32.77
370.86	0.00
371.06	58.51
371.25	117.03
371.45	102.98
371.65	79.58
371.84	159.16
372.04	49.15
372.24	4.68
372.44	44.47
372.63	154.48
372.83	67.88
373.03	70.22
373.22	65.54
373.42	107.66
373.62	121.71
373.81	98.30
374.01	100.64
374.21	95.96
374.40	35.11
374.60	95.96
374.79	84.26
374.99	133.41
375.19	124.05
375.38	72.56
375.58	180.22
375.78	147.45
375.97	102.98
376.17	173.20
376.37	128.73
376.56	168.52
376.76	126.39
376.95	161.50
377.15	149.79
377.35	58.51
377.54	147.45
377.74	138.09
377.93	152.13
378.13	121.71
378.33	126.39
378.52	112.35
378.72	138.09
378.91	133.41
379.11	74.90
379.31	159.16
379.50	117.03
379.70	184.90
379.89	170.86
380.09	86.60
380.28	70.22
380.48	121.71
380.68	145.11
380.87	126.39
381.07	114.69
381.26	147.45
381.46	110.01
381.65	110.01
381.85	100.64
382.04	147.45
382.24	21.06
382.43	102.98
382.63	124.05
382.83	117.03
383.02	100.64
383.22	126.39
383.41	79.58
383.61	100.64
383.80	124.05
384.00	88.94
384.19	138.09
384.39	114.69
384.58	128.73
384.78	105.32
384.97	65.54
385.17	140.43
385.36	74.90
385.56	84.26
385.75	110.01
385.95	77.24
386.14	124.05
386.34	117.03
386.53	135.75
386.72	77.24
386.92	161.50
387.11	140.43
387.31	177.88
387.50	154.48
387.70	138.09
387.89	159.16
388.09	102.98
388.28	154.48
388.48	135.75
388.67	189.58
388.86	119.37
389.06	131.07
389.25	98.30
389.45	67.88
389.64	117.03
389.84	166.18
390.03	166.18
390.22	93.62
390.42	100.64
390.61	86.60
390.81	67.88
391.00	102.98
391.19	170.86
391.39	126.39
391.58	117.03
391.78	138.09
391.97	49.15
392.16	25.75
392.36	163.84
392.55	205.97
392.75	74.90
392.94	37.45
393.13	175.54
393.33	81.92
393.52	88.94
393.71	175.54
393.91	65.54
394.10	156.82
394.29	72.56
394.49	117.03
394.68	147.45
394.88	91.28
395.07	112.35
395.26	140.43
395.46	105.32
395.65	93.62
395.84	60.85
396.04	203.63
396.23	56.17
396.42	107.66
396.62	105.32
396.81	168.52
397.00	114.69
397.19	168.52
397.39	121.71
397.58	49.15
397.77	138.09
397.97	110.01
398.16	135.75
398.35	117.03
398.55	121.71
398.74	124.05
398.93	180.22
399.12	149.79
399.32	145.11
399.51	168.52
399.70	84.26
399.90	140.43
400.09	138.09
400.28	175.54
400.47	121.71
400.67	189.58
400.86	194.26
401.05	194.26
401.24	184.90
401.44	159.16
401.63	201.29
401.82	170.86
402.01	91.28
402.21	138.09
402.40	170.86
402.59	112.35
402.78	177.88
402.97	133.41
403.17	191.92
403.36	194.26
403.55	259.80
403.74	468.11
403.93	1511.99
404.13	3342.28
404.32	3918.06
404.51	3187.81
404.70	1790.51
404.89	692.80
405.09	278.52
405.28	173.20
405.47	227.03
405.66	203.63
405.85	201.29
406.05	168.52
406.24	210.65
406.43	145.11
406.62	91.28
406.81	231.71
407.00	269.16
407.20	451.72
407.39	624.92
407.58	498.53
407.77	461.09
407.96	318.31
408.15	191.92
408.34	180.22
408.54	187.24
408.73	189.58
408.92	191.92
409.11	72.56
409.30	105.32
409.49	177.88
409.68	161.50
409.87	140.43
410.07	119.37
410.26	196.60
410.45	110.01
410.64	203.63
410.83	180.22
411.02	156.82
411.21	227.03
411.40	203.63
411.59	187.24
411.78	95.96
411.98	110.01
412.17	163.84
412.36	180.22
412.55	131.07
412.74	170.86
412.93	173.20
413.12	138.09
413.31	234.05
413.50	168.52
413.69	152.13
413.88	217.67
414.07	180.22
414.26	215.33
414.45	170.86
414.64	145.11
414.83	231.71
415.02	245.76
415.22	290.23
415.41	212.99
415.60	142.77
415.79	93.62
415.98	215.33
416.17	184.90
416.36	205.97
416.55	217.67
416.74	203.63
416.93	156.82
417.12	212.99
417.31	121.71
417.50	177.88
417.69	236.39
417.88	177.88
418.07	161.50
418.26	161.50
418.45	152.13
418.64	294.91
418.83	175.54
419.02	177.88
419.21	257.46
419.39	231.71
419.58	177.88
419.77	175.54
419.96	245.76
420.15	257.46
420.34	234.05
420.53	229.37
420.72	208.31
420.91	278.52
421.10	290.23
421.29	220.01
421.48	243.42
421.67	269.16
421.86	231.71
422.05	156.82
422.24	168.52
422.43	273.84
422.61	196.60
422.80	156.82
422.99	276.18
423.18	306.61
423.37	243.42
423.56	217.67
423.75	126.39
423.94	208.31
424.13	238.73
424.32	227.03
424.50	184.90
424.69	250.44
424.88	276.18
425.07	212.99
425.26	215.33
425.45	271.50
425.64	229.37
425.83	208.31
426.01	285.55
426.20	222.35
426.39	184.90
426.58	180.22
426.77	154.48
426.96	224.69
427.15	161.50
427.33	245.76
427.52	215.33
427.71	180.22
427.90	339.38
428.09	194.26
428.28	196.60
428.46	241.08
428.65	231.71
428.84	280.86
429.03	283.20
429.22	304.27
429.40	243.42
429.59	227.03
429.78	301.93
429.97	187.24
430.16	236.39
430.34	269.16
430.53	262.14
430.72	322.99
430.91	271.50
431.10	156.82
431.28	285.55
431.47	311.29
431.66	203.63
431.85	194.26
432.03	285.55
432.22	351.08
432.41	313.63
432.60	299.59
432.79	304.27
432.97	283.20
433.16	311.29
433.35	325.33
433.54	337.04
433.72	397.89
433.91	376.83
434.10	447.04
434.28	575.77
434.47	613.22
434.66	643.65
434.85	882.38
435.03	2502.03
435.22	9256.82
435.41	16903.35
435.59	15417.11
435.78	9914.51
435.97	5020.45
436.16	1914.56
436.34	788.76
436.53	512.58
436.72	475.13
436.90	372.15
437.09	458.74
437.28	376.83
437.46	423.64
437.65	346.40
437.84	325.33
438.02	285.55
438.21	393.21
438.40	292.57
438.58	388.53
438.77	273.84
438.96	325.33
439.14	255.12
439.33	241.08
439.52	409.59
439.70	348.74
439.89	376.83
440.08	325.33
440.26	297.25
440.45	374.49
440.63	238.73
440.82	313.63
441.01	285.55
441.19	248.10
441.38	411.93
441.57	292.57
441.75	358.10
441.94	400.23
442.12	346.40
442.31	252.78
442.50	290.23
442.68	355.76
442.87	351.08
443.05	297.25
443.24	264.48
443.43	341.72
443.61	339.38
443.80	269.16
443.98	313.63
444.17	339.38
444.35	330.02
444.54	374.49
444.73	252.78
444.91	397.89
445.10	273.84
445.28	341.72
445.47	358.10
445.65	287.89
445.84	273.84
446.02	299.59
446.21	224.69
446.39	255.12
446.58	266.82
446.77	243.42
446.95	203.63
447.14	339.38
447.32	325.33
447.51	355.76
447.69	294.91
447.88	273.84
448.06	374.49
448.25	308.95
448.43	287.89
448.62	255.12
448.80	362.78
448.99	264.48
449.17	344.06
449.36	280.86
449.54	334.70
449.73	290.23
449.91	386.19
450.10	318.31
450.28	388.53
450.46	311.29
450.65	255.12
450.83	337.04
451.02	290.23
451.20	330.02
451.39	229.37
451.57	271.50
451.76	250.44
451.94	344.06
452.13	287.89
452.31	299.59
452.49	341.72
452.68	327.68
452.86	304.27
453.05	351.08
453.23	320.65
453.42	285.55
453.60	294.91
453.78	278.52
453.97	271.50
454.15	287.89
454.34	306.61
454.52	327.68
454.70	355.76
454.89	315.97
455.07	320.65
455.26	388.53
455.44	313.63
455.62	299.59
455.81	297.25
455.99	379.17
456.17	346.40
456.36	315.97
456.54	322.99
456.73	294.91
456.91	322.99
457.09	292.57
457.28	360.44
457.46	262.14
457.64	322.99
457.83	257.46
458.01	339.38
458.19	297.25
458.38	311.29
458.56	301.93
458.74	276.18
458.93	266.82
459.11	278.52
459.29	271.50
459.48	215.33
459.66	330.02
459.84	388.53
460.03	348.74
460.21	327.68
460.39	327.68
460.57	276.18
460.76	355.76
460.94	304.27
461.12	369.80
461.31	355.76
461.49	215.33
461.67	304.27
461.85	348.74
462.04	315.97
462.22	692.80
462.40	271.50
462.59	379.17
462.77	292.57
462.95	330.02
463.13	238.73
463.32	236.39
463.50	313.63
463.68	276.18
463.86	327.68
464.05	358.10
464.23	346.40
464.41	351.08
464.59	362.78
464.78	276.18
464.96	266.82
465.14	205.97
465.32	330.02
465.50	248.10
465.69	283.20
465.87	231.71
466.05	322.99
466.23	360.44
466.41	271.50
466.60	325.33
466.78	330.02
466.96	348.74
467.14	362.78
467.32	362.78
467.51	325.33
467.69	292.57
467.87	325.33
468.05	278.52
468.23	313.63
468.41	332.36
468.60	334.70
468.78	304.27
468.96	271.50
469.14	362.78
469.32	290.23
469.50	330.02
469.69	266.82
469.87	248.10
470.05	344.06
470.23	191.92
470.41	259.80
470.59	266.82
470.77	292.57
470.95	280.86
471.14	241.08
471.32	325.33
471.50	362.78
471.68	285.55
471.86	273.84
472.04	294.91
472.22	283.20
472.40	231.71
472.58	344.06
472.77	322.99
472.95	320.65
473.13	339.38
473.31	271.50
473.49	215.33
473.67	283.20
473.85	407.25
474.03	334.70
474.21	224.69
474.39	353.42
474.57	337.04
474.75	278.52
474.93	276.18
475.12	308.95
475.30	257.46
475.48	273.84
475.66	341.72
475.84	269.16
476.02	304.27
476.20	313.63
476.38	224.69
476.56	320.65
476.74	315.97
476.92	339.38
477.10	266.82
477.28	381.51
477.46	301.93
477.64	320.65
477.82	348.74
478.00	287.89
478.18	353.42
478.36	369.80
478.54	262.14
478.72	313.63
478.90	311.29
479.08	297.25
479.26	369.80
479.44	379.17
479.62	433.00
479.80	383.85
479.98	414.27
480.16	313.63
480.34	477.47
480.52	435.34
480.70	414.27
480.88	374.49
481.06	559.39
481.24	437.68
481.41	552.37
481.59	538.32
481.77	512.58
481.95	505.56
482.13	678.76
482.31	589.82
482.49	648.33
482.67	798.12
482.85	692.80
483.03	791.10
483.21	793.44
483.39	795.78
483.57	870.68
483.74	1039.20
483.92	1036.86
484.10	1043.88
484.28	1125.80
484.46	1196.01
484.64	1165.59
484.82	1200.69
485.00	1306.02
485.18	1394.96
485.35	1540.07
485.53	1519.01
485.71	1460.49
485.89	1652.42
486.07	1636.03
486.25	1781.15
486.43	1558.80
486.61	1650.08
486.78	1687.53
486.96	1722.63
487.14	1764.76
487.32	1783.49
487.50	1668.80
487.68	1629.01
487.85	1626.67
488.03	1568.16
488.21	1696.89
488.39	1582.20
488.57	1479.22
488.75	1486.24
488.92	1748.38
489.10	1544.75
489.28	1526.03
489.46	1413.68
489.64	1341.13
489.81	1317.72
489.99	1373.89
490.17	1334.11
490.35	1364.53
490.53	1409.00
490.70	1352.83
490.88	1266.23
491.06	1394.96
491.24	1458.15
491.41	1462.83
491.59	1299.00
491.77	1273.25
491.95	1172.61
492.13	1242.82
492.30	1254.53
492.48	1226.44
492.66	1233.46
492.84	1172.61
493.01	1067.28
493.19	1086.01
493.37	1200.69
493.54	1142.18
493.72	1219.42
493.90	1060.26
494.08	1111.75
494.25	1128.14
494.43	1102.39
494.61	1086.01
494.79	1076.65
494.96	1011.11
495.14	1011.11
495.32	915.15
495.49	938.55
495.67	905.79
495.85	861.32
496.02	837.91
496.20	1008.77
496.38	938.55
496.55	877.70
496.73	800.46
496.91	882.38
497.09	856.64
497.26	868.34
497.44	870.68
497.62	889.40
497.79	770.04
497.97	798.12
498.14	837.91
498.32	793.44
498.50	784.08
498.67	669.39
498.85	690.46
499.03	692.80
499.20	671.73
499.38	695.14
499.56	758.33
499.73	741.95
499.91	683.44
500.08	594.50
500.26	573.43
500.44	547.69
500.61	613.22
500.79	610.88
500.97	589.82
501.14	723.23
501.32	610.88
501.49	528.96
501.67	507.90
501.84	587.47
502.02	580.45
502.20	585.13
502.37	465.77
502.55	482.15
502.72	454.06
502.90	383.85
503.07	470.45
503.25	463.43
503.43	465.77
503.60	376.83
503.78	393.21
503.95	372.15
504.13	454.06
504.30	465.77
504.48	416.62
504.65	397.89
504.83	433.00
505.01	454.06
505.18	390.87
505.36	341.72
505.53	425.98
505.71	437.68
505.88	472.79
506.06	360.44
506.23	374.49
506.41	341.72
506.58	355.76
506.76	376.83
506.93	449.38
507.11	400.23
507.28	285.55
507.46	393.21
507.63	351.08
507.81	322.99
507.98	351.08
508.16	341.72
508.33	383.85
508.50	409.59
508.68	372.15
508.85	400.23
509.03	360.44
509.20	313.63
509.38	376.83
509.55	290.23
509.73	369.80
509.90	390.87
510.08	362.78
510.25	334.70
510.42	348.74
510.60	365.12
510.77	376.83
510.95	332.36
511.12	365.12
511.30	362.78
511.47	308.95
511.64	325.33
511.82	315.97
511.99	280.86
512.17	339.38
512.34	308.95
512.51	344.06
512.69	290.23
512.86	334.70
513.04	299.59
513.21	360.44
513.38	290.23
513.56	341.72
513.73	388.53
513.90	287.89
514.08	283.20
514.25	330.02
514.43	311.29
514.60	292.57
514.77	280.86
514.95	278.52
515.12	332.36
515.29	245.76
515.47	320.65
515.64	337.04
515.81	372.15
515.99	322.99
516.16	404.91
516.33	280.86
516.51	299.59
516.68	285.55
516.85	360.44
517.03	313.63
517.20	344.06
517.37	306.61
517.54	351.08
517.72	266.82
517.89	283.20
518.06	301.93
518.24	395.55
518.41	299.59
518.58	292.57
518.75	297.25
518.93	409.59
519.10	351.08
519.27	308.95
519.45	313.63
519.62	362.78
519.79	301.93
519.96	252.78
520.14	365.12
520.31	379.17
520.48	315.97
520.65	332.36
520.83	332.36
521.00	255.12
521.17	341.72
521.34	238.73
521.52	290.23
521.69	311.29
521.86	337.04
522.03	348.74
522.20	341.72
522.38	271.50
522.55	425.98
522.72	344.06
522.89	238.73
523.07	330.02
523.24	276.18
523.41	355.76
523.58	245.76
523.75	184.90
523.92	280.86
524.10	320.65
524.27	299.59
524.44	276.18
524.61	411.93
524.78	315.97
524.96	299.59
525.13	325.33
525.30	308.95
525.47	351.08
525.64	360.44
525.81	376.83
525.98	348.74
526.16	299.59
526.33	292.57
526.50	227.03
526.67	311.29
526.84	322.99
527.01	337.04
527.18	393.21
527.36	348.74
527.53	372.15
527.70	444.70
527.87	315.97
528.04	259.80
528.21	376.83
528.38	437.68
528.55	407.25
528.72	404.91
528.89	381.51
529.07	299.59
529.24	362.78
529.41	360.44
529.58	376.83
529.75	327.68
529.92	433.00
530.09	374.49
530.26	376.83
530.43	386.19
530.60	411.93
530.77	313.63
530.94	411.93
531.11	433.00
531.28	369.80
531.46	416.62
531.63	465.77
531.80	475.13
531.97	500.87
532.14	465.77
532.31	589.82
532.48	667.05
532.65	784.08
532.82	856.64
532.99	966.64
533.16	1039.20
533.33	1062.60
533.50	1050.90
533.67	851.96
533.84	786.42
534.01	718.54
534.18	610.88
534.35	727.91
534.52	692.80
534.69	840.25
534.86	699.82
535.03	734.93
535.20	699.82
535.37	833.23
535.54	847.27
535.71	863.66
535.88	997.07
536.05	1053.24
536.22	1081.33
536.38	1093.03
536.55	1219.42
536.72	1329.42
536.89	1528.37
537.06	1631.35
537.23	1853.70
537.40	1863.07
537.57	2069.03
537.74	2083.08
537.91	2193.08
538.08	2176.70
538.25	2218.83
538.42	2359.26
538.59	2251.60
538.75	2476.29
538.92	2487.99
539.09	2789.92
539.26	3070.78
539.43	3545.91
539.60	3824.44
539.77	4400.21
539.94	5036.83
540.11	5390.25
540.28	5760.06
540.44	6317.11
540.61	7103.53
540.78	8121.66
540.95	9661.73
541.12	11014.56
541.29	12575.70
541.46	13099.98
541.62	12938.48
541.79	12322.92
541.96	11360.96
542.13	10534.75
542.30	10040.90
542.47	9465.13
542.63	8985.32
542.80	8779.35
542.97	8952.55
543.14	8596.79
543.31	8716.16
543.48	8924.46
543.64	8868.29
543.81	8971.27
543.98	8912.76
544.15	9027.45
544.32	9062.55
544.48	9057.87
544.65	9013.40
544.82	8739.56
544.99	8739.56
545.16	8842.54
545.32	9877.06
545.49	18537.04
545.66	32362.59
545.83	35306.98
546.00	29369.04
546.16	19585.60
546.33	14712.61
546.50	10862.43
546.67	8889.35
546.83	8191.88
547.00	7503.76
547.17	7115.23
547.34	7026.29
547.50	6651.80
547.67	6359.24
547.84	6157.95
548.00	6019.86
548.17	5638.35
548.34	5373.87
548.51	5305.99
548.67	5064.92
548.84	4973.64
549.01	4706.82
549.18	4418.93
549.34	4266.80
549.51	4173.18
549.68	4086.58
549.84	3894.65
550.01	3634.85
550.18	3644.21
550.34	3389.10
550.51	3229.94
550.68	3084.83
550.84	2923.33
551.01	2764.17
551.18	2626.08
551.34	2495.01
551.51	2382.67
551.68	2438.84
551.84	2197.76
552.01	2148.61
552.18	2190.74
552.34	1984.77
552.51	1959.03
552.68	1888.81
552.84	1778.81
553.01	1757.74
553.18	1727.32
553.34	1643.06
553.51	1689.87
553.67	1472.20
553.84	1530.71
554.01	1425.39
554.17	1366.87
554.34	1238.14
554.51	1174.95
554.67	1167.93
554.84	1125.80
555.00	992.39
555.17	954.94
555.33	1001.75
555.50	884.72
555.67	931.53
555.83	837.91
556.00	779.40
556.16	997.07
556.33	770.04
556.50	823.87
556.66	671.73
556.83	702.16
556.99	744.29
557.16	674.07
557.32	657.69
557.49	620.24
557.65	615.56
557.82	669.39
557.98	578.11
558.15	503.22
558.32	622.58
558.48	564.07
558.65	655.35
558.81	592.16
558.98	592.16
559.14	599.18
559.31	575.77
559.47	596.84
559.64	468.11
559.80	461.09
559.97	444.70
560.13	512.58
560.30	538.32
560.46	479.81
560.63	517.26
560.79	587.47
560.96	507.90
561.12	500.87
561.29	491.51
561.45	533.64
561.61	482.15
561.78	535.98
561.94	440.02
562.11	524.28
562.27	564.07
562.44	517.26
562.60	585.13
562.77	458.74
562.93	526.62
563.10	470.45
563.26	475.13
563.42	470.45
563.59	498.53
563.75	519.60
563.92	468.11
564.08	454.06
564.24	521.94
564.41	503.22
564.57	425.98
564.74	444.70
564.90	465.77
565.07	383.85
565.23	479.81
565.39	400.23
565.56	442.36
565.72	437.68
565.88	402.57
566.05	428.32
566.21	444.70
566.38	442.36
566.54	440.02
566.70	437.68
566.87	477.47
567.03	416.62
567.19	521.94
567.36	428.32
567.52	435.34
567.68	421.30
567.85	491.51
568.01	428.32
568.17	444.70
568.34	402.57
568.50	514.92
568.66	416.62
568.83	437.68
568.99	337.04
569.15	498.53
569.32	444.70
569.48	395.55
569.64	416.62
569.81	374.49
569.97	334.70
570.13	351.08
570.30	416.62
570.46	351.08
570.62	327.68
570.78	400.23
570.95	346.40
571.11	458.74
571.27	362.78
571.43	285.55
571.60	306.61
571.76	348.74
571.92	348.74
572.09	353.42
572.25	369.80
572.41	332.36
572.57	285.55
572.74	383.85
572.90	365.12
573.06	344.06
573.22	290.23
573.38	346.40
573.55	348.74
573.71	425.98
573.87	383.85
574.03	358.10
574.20	430.66
574.36	388.53
574.52	470.45
574.68	411.93
574.84	416.62
575.01	451.72
575.17	498.53
575.33	470.45
575.49	444.70
575.65	561.73
575.82	543.00
575.98	622.58
576.14	690.46
576.30	1420.71
576.46	4170.83
576.62	5776.44
576.79	6003.47
576.95	4128.70
577.11	2810.98
577.27	1947.33
577.43	1336.45
577.59	1060.26
577.75	854.30
577.92	770.04
578.08	779.40
578.24	706.84
578.40	1362.19
578.56	3822.09
578.72	5589.20
578.88	5694.52
579.04	4121.68
579.21	2897.58
579.37	2186.06
579.53	1795.19
579.69	1905.20
579.85	2258.62
580.01	2415.43
580.17	2228.19
580.33	1902.86
580.49	1722.63
580.65	1654.76
580.82	1479.22
580.98	1423.05
581.14	1406.66
581.30	1490.92
581.46	1645.40
581.62	1778.81
581.78	1874.77
581.94	1963.71
582.10	2033.93
582.26	2165.00
582.42	2179.04
582.58	2172.02
582.74	2317.13
582.90	2326.49
583.06	2251.60
583.22	2417.77
583.38	2340.54
583.54	2342.88
583.70	2279.68
583.86	2363.94
584.02	2286.70
584.18	2312.45
584.34	2244.57
584.50	2139.25
584.66	2207.13
584.82	2087.76
584.98	2174.36
585.14	2099.46
585.30	2111.16
585.46	2094.78
585.62	2001.16
585.78	1933.28
585.94	2010.52
586.10	2031.58
586.26	2085.42
586.42	2450.54
586.58	2977.16
586.74	3515.48
586.90	4053.81
587.06	4404.89
587.22	4259.78
587.38	3838.48
587.54	3293.13
587.70	2722.04
587.86	2429.48
588.02	2087.76
588.18	2036.27
588.34	1762.42
588.49	1584.54
588.65	1479.22
588.81	1425.39
588.97	1387.94
589.13	1310.70
589.29	1357.51
589.45	1394.96
589.61	1369.21
589.77	1357.51
589.93	1390.28
590.08	1490.92
590.24	1460.49
590.40	1547.09
590.56	1544.75
590.72	1619.65
590.88	1570.50
591.04	1657.10
591.20	1671.14
591.35	1806.89
591.51	1834.98
591.67	1795.19
591.83	1959.03
591.99	2310.11
592.15	2452.88
592.31	2530.12
592.46	2794.60
592.62	3066.10
592.78	3194.83
592.94	3199.51
593.10	3098.87
593.26	2733.75
593.41	2740.77
593.57	2466.92
593.73	2066.69
593.89	2026.90
594.05	1713.27
594.20	1638.38
594.36	1533.05
594.52	1348.15
594.68	1345.81
594.84	1331.76
594.99	1350.49
595.15	1240.48
595.31	1247.51
595.47	1231.12
595.62	1181.97
595.78	1196.01
595.94	1104.73
596.10	1282.61
596.25	1317.72
596.41	1287.29
596.57	1196.01
596.73	1188.99
596.88	1177.29
597.04	1245.16
597.20	1179.63
597.36	1331.76
597.51	1179.63
597.67	1315.38
597.83	1315.38
597.99	1448.79
598.14	1533.05
598.30	1682.85
598.46	1767.10
598.61	1764.76
598.77	1863.07
598.93	1858.39
599.09	1989.46
599.24	2052.65
599.40	1879.45
599.56	1790.51
599.71	1830.30
599.87	1657.10
600.03	1572.84
600.18	1558.80
600.34	1504.96
600.50	1359.85
600.65	1245.16
600.81	1301.34
600.97	1301.34
601.12	1142.18
601.28	1064.94
601.44	973.66
601.59	1001.75
601.75	971.32
601.91	926.85
602.06	938.55
602.22	915.15
602.37	863.66
602.53	812.17
602.69	877.70
602.84	741.95
603.00	798.12
603.16	814.51
603.31	875.36
603.47	830.89
603.62	837.91
603.78	905.79
603.94	978.34
604.09	884.72
604.25	947.92
604.40	985.37
604.56	936.21
604.71	983.02
604.87	936.21
605.03	1036.86
605.18	961.96
605.34	1095.37
605.49	1097.71
605.65	1153.88
605.80	1130.48
605.96	1118.78
606.12	1170.27
606.27	1275.59
606.43	1313.04
606.58	1376.24
606.74	1376.24
606.89	1462.83
607.05	1563.48
607.20	1664.12
607.36	1638.38
607.51	1729.66
607.67	1872.43
607.82	2036.27
607.98	2059.67
608.13	2270.32
608.29	2448.20
608.44	2630.76
608.60	2766.51
608.75	2998.23
608.91	3309.52
609.06	3644.21
609.22	3955.51
609.37	4470.42
609.53	5013.43
609.68	5699.20
609.84	6277.32
609.99	7548.23
610.15	8786.37
610.30	10757.10
610.46	13870.01
610.61	18120.43
610.76	23119.81
610.92	27674.49
611.07	30352.07
611.23	30501.86
611.38	28692.63
611.54	25081.18
611.69	21322.28
611.84	17474.44
612.00	14810.91
612.15	12498.46
612.31	10792.21
612.46	9891.10
612.62	9298.95
612.77	8578.06
612.92	8219.96
613.08	7927.39
613.23	7410.14
613.39	7204.17
613.54	7063.74
613.69	6930.33
613.85	6665.85
614.00	6703.29
614.15	6696.27
614.31	6684.57
614.46	6441.15
614.62	6303.06
614.77	5860.70
614.92	5399.62
615.08	5132.79
615.23	4744.27
615.38	4353.40
615.54	3943.80
615.69	3669.96
615.84	3332.92
616.00	3131.64
616.15	3077.80
616.30	2761.83
616.46	2518.42
616.61	2537.14
616.76	2422.45
616.92	2272.66
617.07	2216.49
617.22	2043.29
617.37	1902.86
617.53	1834.98
617.68	1884.13
617.83	1741.36
617.99	1739.02
618.14	1727.32
618.29	1675.82
618.45	1561.14
618.60	1469.86
618.75	1528.37
618.90	1495.60
619.06	1497.94
619.21	1511.99
619.36	1507.30
619.51	1490.92
619.67	1533.05
619.82	1575.18
619.97	1624.33
620.12	1614.97
620.28	1617.31
620.43	1629.01
620.58	1603.27
620.73	1675.82
620.89	1643.06
621.04	1584.54
621.19	1633.69
621.34	1696.89
621.49	1523.69
621.65	1638.38
621.80	1605.61
621.95	1600.93
622.10	1598.59
622.25	1621.99
622.41	1607.95
622.56	1631.35
622.71	1650.08
622.86	1647.74
623.01	1694.55
623.16	1757.74
623.32	1689.87
623.47	1710.93
623.62	1748.38
623.77	1696.89
623.92	1706.25
624.07	1722.63
624.23	1753.06
624.38	1769.44
624.53	1652.42
624.68	1806.89
624.83	1825.62
624.98	1764.76
625.13	1722.63
625.29	1729.66
625.44	1727.32
625.59	1830.30
625.74	1696.89
625.89	1788.17
626.04	1781.15
626.19	1727.32
626.34	1802.21
626.49	1734.34
626.65	1699.23
626.80	1755.40
626.95	1722.63
627.10	1687.53
627.25	1652.42
627.40	1659.44
627.55	1678.16
627.70	1643.06
627.85	1715.61
628.00	1533.05
628.15	1570.50
628.30	1584.54
628.45	1535.39
628.60	1547.09
628.76	1554.12
628.91	1647.74
629.06	1699.23
629.21	1661.78
629.36	1696.89
629.51	1764.76
629.66	1879.45
629.81	1877.11
629.96	2162.66
630.11	2263.30
630.26	2569.91
630.41	2902.26
630.56	3126.96
630.71	3248.66
630.86	3297.81
631.01	3283.77
631.16	2890.56
631.31	2712.68
631.46	2214.15
631.61	1923.92
631.76	1526.03
631.91	1373.89
632.06	1294.32
632.21	1135.16
632.36	943.24
632.51	882.38
632.66	807.48
632.81	711.52
632.96	758.33
633.10	702.16
633.25	805.14
633.40	603.86
633.55	615.56
633.70	641.31
633.85	620.24
634.00	550.03
634.15	543.00
634.30	613.22
634.45	603.86
634.60	519.60
634.75	489.17
634.90	477.47
635.05	533.64
635.19	507.90
635.34	535.98
635.49	578.11
635.64	449.38
635.79	526.62
635.94	440.02
636.09	435.34
636.24	479.81
636.39	468.11
636.53	528.96
636.68	468.11
636.83	454.06
636.98	503.22
637.13	411.93
637.28	428.32
637.43	514.92
637.57	496.19
637.72	526.62
637.87	477.47
638.02	414.27
638.17	475.13
638.32	437.68
638.46	421.30
638.61	430.66
638.76	411.93
638.91	425.98
639.06	390.87
639.20	456.40
639.35	423.64
639.50	390.87
639.65	472.79
639.80	397.89
639.94	362.78
640.09	383.85
640.24	409.59
640.39	423.64
640.54	489.17
640.68	402.57
640.83	433.00
640.98	409.59
641.13	301.93
641.27	332.36
641.42	339.38
641.57	404.91
641.72	433.00
641.86	421.30
642.01	330.02
642.16	416.62
642.31	383.85
642.45	444.70
642.60	337.04
642.75	386.19
642.90	358.10
643.04	339.38
643.19	369.80
643.34	400.23
643.48	365.12
643.63	407.25
643.78	416.62
643.93	418.96
644.07	334.70
644.22	388.53
644.37	353.42
644.51	341.72
644.66	390.87
644.81	365.12
644.95	437.68
645.10	372.15
645.25	454.06
645.39	386.19
645.54	400.23
645.69	423.64
645.83	313.63
645.98	416.62
646.13	355.76
646.27	346.40
646.42	292.57
646.57	283.20
646.71	404.91
646.86	376.83
647.00	402.57
647.15	372.15
647.30	369.80
647.44	397.89
647.59	308.95
647.74	299.59
647.88	341.72
648.03	411.93
648.17	341.72
648.32	308.95
648.47	337.04
648.61	374.49
648.76	421.30
648.90	393.21
649.05	386.19
649.20	397.89
649.34	482.15
649.49	440.02
649.63	552.37
649.78	720.88
649.92	809.83
650.07	866.00
650.21	983.02
650.36	940.90
650.51	884.72
650.65	1027.50
650.80	826.21
650.94	734.93
651.09	674.07
651.23	627.26
651.38	582.79
651.52	514.92
651.67	496.19
651.81	444.70
651.96	500.87
652.10	503.22
652.25	397.89
652.39	376.83
652.54	491.51
652.68	472.79
652.83	454.06
652.97	608.54
653.12	512.58
653.26	430.66
653.41	496.19
653.55	500.87
653.70	463.43
653.84	414.27
653.99	428.32
654.13	454.06
654.27	414.27
654.42	395.55
654.56	402.57
654.71	334.70
654.85	355.76
655.00	388.53
655.14	308.95
655.29	383.85
655.43	367.46
655.57	393.21
655.72	353.42
655.86	402.57
656.01	362.78
656.15	337.04
656.30	379.17
656.44	330.02
656.58	315.97
656.73	388.53
656.87	325.33
657.01	367.46
657.16	428.32
657.30	479.81
657.45	388.53
657.59	451.72
657.73	395.55
657.88	379.17
658.02	528.96
658.16	374.49
658.31	299.59
658.45	360.44
658.60	278.52
658.74	285.55
658.88	292.57
659.03	315.97
659.17	285.55
659.31	337.04
659.46	306.61
659.60	243.42
659.74	313.63
659.89	374.49
660.03	248.10
660.17	358.10
660.32	287.89
660.46	248.10
660.60	255.12
660.74	245.76
660.89	301.93
661.03	320.65
661.17	287.89
661.32	367.46
661.46	355.76
661.60	393.21
661.74	416.62
661.89	484.49
662.03	620.24
662.17	547.69
662.31	650.67
662.46	641.31
662.60	645.99
662.74	496.19
662.88	521.94
663.03	554.71
663.17	379.17
663.31	425.98
663.45	379.17
663.60	285.55
663.74	330.02
663.88	294.91
664.02	325.33
664.17	327.68
664.31	348.74
664.45	248.10
664.59	299.59
664.73	341.72
664.88	299.59
665.02	280.86
665.16	278.52
665.30	330.02
665.44	278.52
665.59	383.85
665.73	330.02
665.87	262.14
666.01	271.50
666.15	243.42
666.29	229.37
666.44	294.91
666.58	327.68
666.72	322.99
666.86	332.36
667.00	290.23
667.14	320.65
667.28	339.38
667.43	276.18
667.57	411.93
667.71	308.95
667.85	308.95
667.99	276.18
668.13	191.92
668.27	245.76
668.41	220.01
668.56	222.35
668.70	344.06
668.84	248.10
668.98	283.20
669.12	271.50
669.26	383.85
669.40	264.48
669.54	311.29
669.68	255.12
669.82	290.23
669.96	252.78
670.10	327.68
670.25	290.23
670.39	236.39
670.53	348.74
670.67	327.68
670.81	280.86
670.95	304.27
671.09	248.10
671.23	273.84
671.37	360.44
671.51	339.38
671.65	264.48
671.79	229.37
671.93	175.54
672.07	290.23
672.21	299.59
672.35	210.65
672.49	245.76
672.63	231.71
672.77	222.35
672.91	236.39
673.05	212.99
673.19	229.37
673.33	180.22
673.47	278.52
673.61	287.89
673.75	264.48
673.89	182.56
674.03	205.97
674.17	325.33
674.31	301.93
674.45	259.80
674.59	250.44
674.73	156.82
674.87	255.12
675.01	231.71
675.15	210.65
675.29	287.89
675.43	297.25
675.56	285.55
675.70	231.71
675.84	248.10
675.98	229.37
676.12	189.58
676.26	163.84
676.40	259.80
676.54	156.82
676.68	184.90
676.82	208.31
676.96	163.84
677.10	231.71
677.23	217.67
677.37	205.97
677.51	215.33
677.65	290.23
677.79	198.95
677.93	234.05
678.07	198.95
678.21	215.33
678.34	173.20
678.48	231.71
678.62	191.92
678.76	140.43
678.90	241.08
679.04	241.08
679.18	236.39
679.31	182.56
679.45	262.14
679.59	154.48
679.73	224.69
679.87	161.50
680.00	259.80
680.14	210.65
680.28	283.20
680.42	259.80
680.56	245.76
680.70	208.31
680.83	238.73
680.97	250.44
681.11	187.24
681.25	292.57
681.39	189.58
681.52	315.97
681.66	243.42
681.80	248.10
681.94	238.73
682.07	156.82
682.21	280.86
682.35	229.37
682.49	262.14
682.62	220.01
682.76	245.76
682.90	203.63
683.04	215.33
683.17	238.73
683.31	238.73
683.45	243.42
683.59	203.63
683.72	215.33
683.86	154.48
684.00	271.50
684.13	222.35
684.27	248.10
684.41	198.95
684.55	149.79
684.68	198.95
684.82	278.52
684.96	212.99
685.09	201.29
685.23	215.33
685.37	250.44
685.50	187.24
685.64	372.15
685.78	142.77
685.91	205.97
686.05	264.48
686.19	250.44
686.32	290.23
686.46	315.97
686.60	222.35
686.73	304.27
686.87	299.59
687.01	236.39
687.14	264.48
687.28	393.21
687.42	402.57
687.55	367.46
687.69	367.46
687.82	383.85
687.96	418.96
688.10	369.80
688.23	299.59
688.37	311.29
688.50	313.63
688.64	346.40
688.78	243.42
688.91	292.57
689.05	227.03
689.18	184.90
689.32	187.24
689.46	227.03
689.59	142.77
689.73	161.50
689.86	168.52
690.00	210.65
690.13	201.29
690.27	252.78
690.41	191.92
690.54	297.25
690.68	208.31
690.81	222.35
690.95	191.92
691.08	203.63
691.22	208.31
691.35	184.90
691.49	161.50
691.62	119.37
691.76	91.28
691.89	105.32
692.03	175.54
692.16	194.26
692.30	156.82
692.43	110.01
692.57	236.39
692.70	166.18
692.84	220.01
692.97	252.78
693.11	238.73
693.24	208.31
693.38	227.03
693.51	276.18
693.65	283.20
693.78	306.61
693.92	322.99
694.05	315.97
694.19	208.31
694.32	194.26
694.45	215.33
694.59	236.39
694.72	154.48
694.86	168.52
694.99	170.86
695.13	79.58
695.26	184.90
695.39	128.73
695.53	257.46
695.66	196.60
695.80	196.60
695.93	131.07
696.07	131.07
696.20	177.88
696.33	238.73
696.47	124.05
696.60	184.90
696.73	224.69
696.87	121.71
697.00	184.90
697.14	170.86
697.27	156.82
697.40	201.29
697.54	161.50
697.67	110.01
697.80	105.32
697.94	102.98
698.07	229.37
698.21	72.56
698.34	74.90
698.47	152.13
698.61	98.30
698.74	112.35
698.87	222.35
699.01	173.20
699.14	140.43
699.27	163.84
699.40	229.37
699.54	138.09
699.67	112.35
699.80	128.73
699.94	135.75
700.07	152.13
700.20	117.03
700.34	187.24
700.47	86.60
700.60	159.16
700.73	126.39
700.87	138.09
701.00	147.45
701.13	49.15
701.26	156.82
701.40	173.20
701.53	215.33
701.66	170.86
701.79	203.63
701.93	173.20
702.06	177.88
702.19	170.86
702.32	105.32
702.46	187.24
702.59	168.52
702.72	72.56
702.85	173.20
702.99	201.29
703.12	156.82
703.25	175.54
703.38	220.01
703.51	196.60
703.65	208.31
703.78	198.95
703.91	212.99
704.04	159.16
704.17	196.60
704.31	128.73
704.44	229.37
704.57	173.20
704.70	201.29
704.83	182.56
704.96	180.22
705.10	128.73
705.23	269.16
>>>>>End Processed Spectral Data<<<<<
