SpectraSuite Data File
++++++++++++++++++++++++++++++++++++
Date: Fri Oct 04 11:42:25 GMT-05:00 2013
User: price-jones
Dark Spectrum Present: No
Reference Spectrum Present: No
Number of Sampled Component Spectra: 1
Spectrometers: USB2+H05261
Integration Time (usec): 100000 (USB2+H05261)
Spectra Averaged: 1 (USB2+H05261)
Boxcar Smoothing: 0 (USB2+H05261)
Correct for Electrical Dark: No (USB2+H05261)
Strobe/Lamp Enabled: No (USB2+H05261)
Correct for Detector Non-linearity: No (USB2+H05261)
Correct for Stray Light: No (USB2+H05261)
Number of Pixels in Processed Spectrum: 2048
>>>>>Begin Processed Spectral Data<<<<<
365.73	35.11
365.92	35.11
366.12	35.11
366.32	0.00
366.52	0.00
366.72	0.00
366.91	0.00
367.11	0.00
367.31	0.00
367.51	0.00
367.70	0.00
367.90	0.00
368.10	0.00
368.30	0.00
368.49	0.00
368.69	0.00
368.89	0.00
369.09	0.00
369.28	0.00
369.48	0.00
369.68	0.00
369.87	0.00
370.07	0.00
370.27	35.11
370.47	28.09
370.66	0.00
370.86	4.68
371.06	105.32
371.25	121.71
371.45	65.54
371.65	93.62
371.84	32.77
372.04	39.79
372.24	98.30
372.44	93.62
372.63	180.22
372.83	124.05
373.03	149.79
373.22	105.32
373.42	126.39
373.62	121.71
373.81	126.39
374.01	156.82
374.21	131.07
374.40	93.62
374.60	177.88
374.79	112.35
374.99	117.03
375.19	93.62
375.38	161.50
375.58	74.90
375.78	182.56
375.97	93.62
376.17	119.37
376.37	159.16
376.56	98.30
376.76	93.62
376.95	133.41
377.15	152.13
377.35	88.94
377.54	142.77
377.74	107.66
377.93	88.94
378.13	91.28
378.33	159.16
378.52	126.39
378.72	44.47
378.91	131.07
379.11	140.43
379.31	121.71
379.50	65.54
379.70	133.41
379.89	119.37
380.09	156.82
380.28	102.98
380.48	161.50
380.68	102.98
380.87	175.54
381.07	159.16
381.26	201.29
381.46	189.58
381.65	140.43
381.85	100.64
382.04	100.64
382.24	145.11
382.43	161.50
382.63	65.54
382.83	119.37
383.02	166.18
383.22	156.82
383.41	107.66
383.61	105.32
383.80	142.77
384.00	138.09
384.19	58.51
384.39	91.28
384.58	0.00
384.78	88.94
384.97	128.73
385.17	93.62
385.36	72.56
385.56	124.05
385.75	42.13
385.95	166.18
386.14	105.32
386.34	46.81
386.53	147.45
386.72	49.15
386.92	159.16
387.11	98.30
387.31	117.03
387.50	107.66
387.70	67.88
387.89	145.11
388.09	124.05
388.28	58.51
388.48	117.03
388.67	88.94
388.86	32.77
389.06	105.32
389.25	110.01
389.45	79.58
389.64	93.62
389.84	156.82
390.03	56.17
390.22	170.86
390.42	102.98
390.61	79.58
390.81	102.98
391.00	81.92
391.19	154.48
391.39	166.18
391.58	135.75
391.78	100.64
391.97	81.92
392.16	131.07
392.36	231.71
392.55	156.82
392.75	114.69
392.94	114.69
393.13	140.43
393.33	37.45
393.52	91.28
393.71	98.30
393.91	70.22
394.10	79.58
394.29	70.22
394.49	65.54
394.68	175.54
394.88	147.45
395.07	117.03
395.26	84.26
395.46	166.18
395.65	107.66
395.84	67.88
396.04	189.58
396.23	77.24
396.42	126.39
396.62	166.18
396.81	149.79
397.00	107.66
397.19	63.19
397.39	147.45
397.58	126.39
397.77	112.35
397.97	119.37
398.16	98.30
398.35	126.39
398.55	126.39
398.74	86.60
398.93	95.96
399.12	105.32
399.32	86.60
399.51	58.51
399.70	77.24
399.90	175.54
400.09	145.11
400.28	152.13
400.47	67.88
400.67	156.82
400.86	124.05
401.05	170.86
401.24	191.92
401.44	203.63
401.63	112.35
401.82	86.60
402.01	152.13
402.21	100.64
402.40	126.39
402.59	117.03
402.78	44.47
402.97	135.75
403.17	131.07
403.36	138.09
403.55	177.88
403.74	306.61
403.93	543.00
404.13	1327.08
404.32	2200.10
404.51	2272.66
404.70	1586.88
404.89	664.71
405.09	304.27
405.28	187.24
405.47	161.50
405.66	149.79
405.85	84.26
406.05	175.54
406.24	135.75
406.43	154.48
406.62	124.05
406.81	198.95
407.00	198.95
407.20	306.61
407.39	440.02
407.58	510.24
407.77	390.87
407.96	269.16
408.15	205.97
408.34	166.18
408.54	149.79
408.73	194.26
408.92	131.07
409.11	187.24
409.30	217.67
409.49	112.35
409.68	170.86
409.87	173.20
410.07	131.07
410.26	86.60
410.45	126.39
410.64	154.48
410.83	93.62
411.02	180.22
411.21	133.41
411.40	91.28
411.59	163.84
411.78	175.54
411.98	77.24
412.17	119.37
412.36	102.98
412.55	145.11
412.74	135.75
412.93	234.05
413.12	187.24
413.31	140.43
413.50	170.86
413.69	93.62
413.88	250.44
414.07	95.96
414.26	133.41
414.45	177.88
414.64	93.62
414.83	168.52
415.02	117.03
415.22	201.29
415.41	210.65
415.60	187.24
415.79	159.16
415.98	124.05
416.17	212.99
416.36	142.77
416.55	149.79
416.74	220.01
416.93	220.01
417.12	142.77
417.31	147.45
417.50	168.52
417.69	124.05
417.88	227.03
418.07	205.97
418.26	163.84
418.45	135.75
418.64	156.82
418.83	180.22
419.02	215.33
419.21	175.54
419.39	191.92
419.58	159.16
419.77	142.77
419.96	180.22
420.15	154.48
420.34	245.76
420.53	177.88
420.72	177.88
420.91	131.07
421.10	208.31
421.29	208.31
421.48	215.33
421.67	198.95
421.86	184.90
422.05	248.10
422.24	198.95
422.43	210.65
422.61	152.13
422.80	175.54
422.99	156.82
423.18	126.39
423.37	248.10
423.56	128.73
423.75	208.31
423.94	147.45
424.13	217.67
424.32	196.60
424.50	159.16
424.69	173.20
424.88	301.93
425.07	182.56
425.26	203.63
425.45	147.45
425.64	170.86
425.83	229.37
426.01	163.84
426.20	252.78
426.39	170.86
426.58	189.58
426.77	166.18
426.96	189.58
427.15	189.58
427.33	205.97
427.52	191.92
427.71	269.16
427.90	220.01
428.09	156.82
428.28	203.63
428.46	180.22
428.65	149.79
428.84	297.25
429.03	238.73
429.22	241.08
429.40	128.73
429.59	152.13
429.78	301.93
429.97	180.22
430.16	222.35
430.34	142.77
430.53	140.43
430.72	231.71
430.91	250.44
431.10	147.45
431.28	203.63
431.47	194.26
431.66	241.08
431.85	227.03
432.03	222.35
432.22	301.93
432.41	194.26
432.60	269.16
432.79	269.16
432.97	271.50
433.16	257.46
433.35	266.82
433.54	271.50
433.72	383.85
433.91	353.42
434.10	362.78
434.28	372.15
434.47	545.34
434.66	472.79
434.85	503.22
435.03	978.34
435.22	3110.57
435.41	7531.84
435.59	9966.00
435.78	7243.96
435.97	3412.50
436.16	1336.45
436.34	543.00
436.53	325.33
436.72	348.74
436.90	400.23
437.09	259.80
437.28	304.27
437.46	245.76
437.65	278.52
437.84	245.76
438.02	330.02
438.21	294.91
438.40	287.89
438.58	276.18
438.77	283.20
438.96	241.08
439.14	292.57
439.33	252.78
439.52	271.50
439.70	210.65
439.89	220.01
440.08	210.65
440.26	231.71
440.45	276.18
440.63	234.05
440.82	266.82
441.01	220.01
441.19	229.37
441.38	231.71
441.57	180.22
441.75	290.23
441.94	308.95
442.12	285.55
442.31	266.82
442.50	292.57
442.68	243.42
442.87	313.63
443.05	292.57
443.24	301.93
443.43	292.57
443.61	351.08
443.80	304.27
443.98	299.59
444.17	271.50
444.35	315.97
444.54	245.76
444.73	245.76
444.91	273.84
445.10	238.73
445.28	217.67
445.47	273.84
445.65	238.73
445.84	283.20
446.02	292.57
446.21	337.04
446.39	198.95
446.58	257.46
446.77	276.18
446.95	315.97
447.14	177.88
447.32	266.82
447.51	311.29
447.69	292.57
447.88	315.97
448.06	308.95
448.25	351.08
448.43	287.89
448.62	220.01
448.80	248.10
448.99	243.42
449.17	259.80
449.36	287.89
449.54	299.59
449.73	292.57
449.91	248.10
450.10	215.33
450.28	297.25
450.46	348.74
450.65	269.16
450.83	285.55
451.02	327.68
451.20	259.80
451.39	271.50
451.57	236.39
451.76	198.95
451.94	215.33
452.13	271.50
452.31	236.39
452.49	297.25
452.68	252.78
452.86	292.57
453.05	290.23
453.23	231.71
453.42	182.56
453.60	231.71
453.78	191.92
453.97	227.03
454.15	250.44
454.34	238.73
454.52	290.23
454.70	337.04
454.89	320.65
455.07	227.03
455.26	304.27
455.44	264.48
455.62	234.05
455.81	290.23
455.99	208.31
456.17	184.90
456.36	189.58
456.54	222.35
456.73	311.29
456.91	210.65
457.09	236.39
457.28	278.52
457.46	318.31
457.64	243.42
457.83	248.10
458.01	236.39
458.19	243.42
458.38	292.57
458.56	273.84
458.74	292.57
458.93	299.59
459.11	262.14
459.29	191.92
459.48	217.67
459.66	248.10
459.84	308.95
460.03	292.57
460.21	243.42
460.39	238.73
460.57	271.50
460.76	248.10
460.94	264.48
461.12	344.06
461.31	210.65
461.49	269.16
461.67	264.48
461.85	301.93
462.04	203.63
462.22	454.06
462.40	255.12
462.59	297.25
462.77	264.48
462.95	238.73
463.13	273.84
463.32	273.84
463.50	276.18
463.68	252.78
463.86	147.45
464.05	243.42
464.23	313.63
464.41	241.08
464.59	287.89
464.78	238.73
464.96	245.76
465.14	248.10
465.32	229.37
465.50	229.37
465.69	283.20
465.87	278.52
466.05	215.33
466.23	236.39
466.41	273.84
466.60	257.46
466.78	241.08
466.96	287.89
467.14	203.63
467.32	362.78
467.51	304.27
467.69	283.20
467.87	259.80
468.05	304.27
468.23	308.95
468.41	262.14
468.60	234.05
468.78	285.55
468.96	315.97
469.14	290.23
469.32	243.42
469.50	283.20
469.69	266.82
469.87	175.54
470.05	266.82
470.23	229.37
470.41	241.08
470.59	255.12
470.77	203.63
470.95	248.10
471.14	259.80
471.32	205.97
471.50	227.03
471.68	241.08
471.86	290.23
472.04	234.05
472.22	285.55
472.40	220.01
472.58	196.60
472.77	231.71
472.95	248.10
473.13	301.93
473.31	184.90
473.49	189.58
473.67	255.12
473.85	259.80
474.03	266.82
474.21	215.33
474.39	262.14
474.57	306.61
474.75	231.71
474.93	315.97
475.12	259.80
475.30	173.20
475.48	231.71
475.66	262.14
475.84	212.99
476.02	297.25
476.20	264.48
476.38	217.67
476.56	334.70
476.74	322.99
476.92	252.78
477.10	280.86
477.28	161.50
477.46	236.39
477.64	348.74
477.82	257.46
478.00	311.29
478.18	187.24
478.36	306.61
478.54	259.80
478.72	262.14
478.90	320.65
479.08	313.63
479.26	238.73
479.44	222.35
479.62	339.38
479.80	264.48
479.98	320.65
480.16	297.25
480.34	353.42
480.52	318.31
480.70	315.97
480.88	220.01
481.06	259.80
481.24	358.10
481.41	367.46
481.59	418.96
481.77	397.89
481.95	383.85
482.13	503.22
482.31	465.77
482.49	486.83
482.67	585.13
482.85	510.24
483.03	545.34
483.21	571.09
483.39	533.64
483.57	641.31
483.74	683.44
483.92	690.46
484.10	732.59
484.28	828.55
484.46	826.21
484.64	931.53
484.82	929.19
485.00	952.60
485.18	1048.56
485.35	1022.81
485.53	1090.69
485.71	1088.35
485.89	1137.50
486.07	1130.48
486.25	1334.11
486.43	1266.23
486.61	1247.51
486.78	1191.33
486.96	1277.93
487.14	1320.06
487.32	1352.83
487.50	1327.08
487.68	1427.73
487.85	1238.14
488.03	1310.70
488.21	1282.61
488.39	1247.51
488.57	1259.21
488.75	1261.55
488.92	1542.41
489.10	1394.96
489.28	1383.26
489.46	1214.74
489.64	1203.04
489.81	1256.87
489.99	1268.57
490.17	1188.99
490.35	1266.23
490.53	1158.57
490.70	1188.99
490.88	1174.95
491.06	1198.35
491.24	1196.01
491.41	1245.16
491.59	1242.82
491.77	1104.73
491.95	1118.78
492.13	1067.28
492.30	1095.37
492.48	1142.18
492.66	1032.18
492.84	983.02
493.01	990.05
493.19	1013.45
493.37	1029.84
493.54	1076.65
493.72	990.05
493.90	992.39
494.08	992.39
494.25	976.00
494.43	882.38
494.61	901.11
494.79	880.04
494.96	816.85
495.14	896.43
495.32	856.64
495.49	922.17
495.67	896.43
495.85	901.11
496.02	880.04
496.20	833.23
496.38	835.57
496.55	791.10
496.73	849.61
496.91	795.78
497.09	924.51
497.26	741.95
497.44	816.85
497.62	723.23
497.79	758.33
497.97	760.67
498.14	774.72
498.32	730.25
498.50	720.88
498.67	671.73
498.85	671.73
499.03	512.58
499.20	709.18
499.38	585.13
499.56	521.94
499.73	578.11
499.91	575.77
500.08	524.28
500.26	491.51
500.44	486.83
500.61	472.79
500.79	411.93
500.97	414.27
501.14	409.59
501.32	430.66
501.49	423.64
501.67	414.27
501.84	402.57
502.02	395.55
502.20	393.21
502.37	397.89
502.55	407.25
502.72	334.70
502.90	367.46
503.07	358.10
503.25	383.85
503.43	266.82
503.60	341.72
503.78	369.80
503.95	299.59
504.13	297.25
504.30	301.93
504.48	318.31
504.65	351.08
504.83	411.93
505.01	266.82
505.18	320.65
505.36	294.91
505.53	353.42
505.71	388.53
505.88	299.59
506.06	255.12
506.23	299.59
506.41	292.57
506.58	248.10
506.76	250.44
506.93	217.67
507.11	294.91
507.28	255.12
507.46	304.27
507.63	255.12
507.81	238.73
507.98	241.08
508.16	266.82
508.33	304.27
508.50	311.29
508.68	313.63
508.85	280.86
509.03	390.87
509.20	287.89
509.38	276.18
509.55	287.89
509.73	278.52
509.90	297.25
510.08	255.12
510.25	252.78
510.42	262.14
510.60	299.59
510.77	271.50
510.95	355.76
511.12	304.27
511.30	334.70
511.47	344.06
511.64	337.04
511.82	339.38
511.99	283.20
512.17	238.73
512.34	264.48
512.51	308.95
512.69	222.35
512.86	339.38
513.04	330.02
513.21	280.86
513.38	234.05
513.56	224.69
513.73	311.29
513.90	280.86
514.08	322.99
514.25	290.23
514.43	271.50
514.60	278.52
514.77	278.52
514.95	334.70
515.12	278.52
515.29	241.08
515.47	330.02
515.64	245.76
515.81	262.14
515.99	292.57
516.16	306.61
516.33	320.65
516.51	243.42
516.68	290.23
516.85	236.39
517.03	259.80
517.20	259.80
517.37	271.50
517.54	245.76
517.72	299.59
517.89	222.35
518.06	292.57
518.24	311.29
518.41	339.38
518.58	285.55
518.75	266.82
518.93	257.46
519.10	250.44
519.27	292.57
519.45	280.86
519.62	290.23
519.79	313.63
519.96	330.02
520.14	212.99
520.31	299.59
520.48	210.65
520.65	248.10
520.83	327.68
521.00	257.46
521.17	250.44
521.34	330.02
521.52	285.55
521.69	318.31
521.86	294.91
522.03	301.93
522.20	278.52
522.38	294.91
522.55	322.99
522.72	325.33
522.89	290.23
523.07	320.65
523.24	191.92
523.41	318.31
523.58	248.10
523.75	304.27
523.92	245.76
524.10	285.55
524.27	210.65
524.44	224.69
524.61	271.50
524.78	222.35
524.96	276.18
525.13	283.20
525.30	308.95
525.47	271.50
525.64	306.61
525.81	304.27
525.98	287.89
526.16	234.05
526.33	241.08
526.50	266.82
526.67	248.10
526.84	308.95
527.01	285.55
527.18	248.10
527.36	299.59
527.53	327.68
527.70	327.68
527.87	313.63
528.04	369.80
528.21	238.73
528.38	337.04
528.55	250.44
528.72	346.40
528.89	351.08
529.07	236.39
529.24	290.23
529.41	299.59
529.58	322.99
529.75	358.10
529.92	351.08
530.09	374.49
530.26	313.63
530.43	266.82
530.60	269.16
530.77	292.57
530.94	308.95
531.11	346.40
531.28	304.27
531.46	308.95
531.63	395.55
531.80	365.12
531.97	351.08
532.14	362.78
532.31	376.83
532.48	409.59
532.65	463.43
532.82	444.70
532.99	535.98
533.16	634.29
533.33	645.99
533.50	610.88
533.67	589.82
533.84	477.47
534.01	388.53
534.18	423.64
534.35	442.36
534.52	395.55
534.69	477.47
534.86	451.72
535.03	533.64
535.20	571.09
535.37	528.96
535.54	533.64
535.71	552.37
535.88	636.63
536.05	521.94
536.22	648.33
536.38	631.94
536.55	627.26
536.72	734.93
536.89	697.48
537.06	774.72
537.23	884.72
537.40	922.17
537.57	964.30
537.74	1043.88
537.91	1172.61
538.08	1317.72
538.25	1469.86
538.42	1474.54
538.59	1638.38
538.75	1551.78
538.92	1673.48
539.09	1748.38
539.26	1724.97
539.43	1930.94
539.60	2005.84
539.77	2272.66
539.94	2476.29
540.11	2654.17
540.28	2780.56
540.44	2869.50
540.61	3136.32
540.78	3342.28
540.95	3889.97
541.12	4425.95
541.29	5046.20
541.46	5830.27
541.62	6738.40
541.79	7714.41
541.96	8538.27
542.13	9252.14
542.30	9397.25
542.47	9336.40
542.63	9303.63
542.80	9064.89
542.97	9181.92
543.14	9437.04
543.31	9401.93
543.48	9448.74
543.64	9525.98
543.81	9261.50
543.98	9165.54
544.15	8901.06
544.32	8676.37
544.48	8262.09
544.65	7880.58
544.82	7550.57
544.99	7159.70
545.16	6892.88
545.32	6876.49
545.49	9380.87
545.66	16035.01
545.83	24116.88
546.00	22047.85
546.16	13008.70
546.33	8667.00
546.50	6211.78
546.67	4306.59
546.83	3637.19
547.00	3332.92
547.17	3091.85
547.34	2808.64
547.50	2850.77
547.67	2810.98
547.84	2686.94
548.00	2665.87
548.17	2750.13
548.34	2796.94
548.51	2857.79
548.67	3005.25
548.84	3131.64
549.01	3080.14
549.18	3066.10
549.34	2979.50
549.51	2818.00
549.68	2796.94
549.84	2413.09
550.01	2431.82
550.18	2333.51
550.34	2286.70
550.51	2200.10
550.68	2026.90
550.84	2069.03
551.01	2012.86
551.18	2008.18
551.34	1966.05
551.51	2029.24
551.68	1886.47
551.84	2031.58
552.01	1877.11
552.18	1944.99
552.34	1884.13
552.51	1743.70
552.68	1717.95
552.84	1483.90
553.01	1458.15
553.18	1570.50
553.34	1479.22
553.51	1394.96
553.67	1256.87
553.84	1242.82
554.01	1069.62
554.17	908.13
554.34	866.00
554.51	823.87
554.67	767.70
554.84	664.71
555.00	631.94
555.17	650.67
555.33	727.91
555.50	629.60
555.67	617.90
555.83	601.52
556.00	571.09
556.16	578.11
556.33	557.05
556.50	454.06
556.66	533.64
556.83	390.87
556.99	482.15
557.16	519.60
557.32	458.74
557.49	388.53
557.65	407.25
557.82	472.79
557.98	376.83
558.15	386.19
558.32	411.93
558.48	451.72
558.65	421.30
558.81	390.87
558.98	393.21
559.14	383.85
559.31	440.02
559.47	442.36
559.64	332.36
559.80	320.65
559.97	348.74
560.13	360.44
560.30	330.02
560.46	418.96
560.63	311.29
560.79	400.23
560.96	337.04
561.12	390.87
561.29	372.15
561.45	402.57
561.61	374.49
561.78	411.93
561.94	346.40
562.11	337.04
562.27	374.49
562.44	297.25
562.60	369.80
562.77	330.02
562.93	416.62
563.10	301.93
563.26	400.23
563.42	437.68
563.59	348.74
563.75	344.06
563.92	376.83
564.08	290.23
564.24	341.72
564.41	245.76
564.57	318.31
564.74	252.78
564.90	365.12
565.07	369.80
565.23	299.59
565.39	280.86
565.56	327.68
565.72	227.03
565.88	301.93
566.05	365.12
566.21	262.14
566.38	292.57
566.54	346.40
566.70	341.72
566.87	393.21
567.03	327.68
567.19	362.78
567.36	372.15
567.52	348.74
567.68	362.78
567.85	318.31
568.01	311.29
568.17	311.29
568.34	276.18
568.50	379.17
568.66	351.08
568.83	430.66
568.99	325.33
569.15	367.46
569.32	301.93
569.48	234.05
569.64	203.63
569.81	264.48
569.97	360.44
570.13	299.59
570.30	322.99
570.46	341.72
570.62	194.26
570.78	301.93
570.95	227.03
571.11	297.25
571.27	381.51
571.43	297.25
571.60	301.93
571.76	313.63
571.92	285.55
572.09	325.33
572.25	334.70
572.41	355.76
572.57	299.59
572.74	351.08
572.90	390.87
573.06	355.76
573.22	360.44
573.38	372.15
573.55	313.63
573.71	437.68
573.87	421.30
574.03	362.78
574.20	390.87
574.36	442.36
574.52	306.61
574.68	407.25
574.84	374.49
575.01	433.00
575.17	395.55
575.33	393.21
575.49	479.81
575.65	461.09
575.82	538.32
575.98	624.92
576.14	510.24
576.30	695.14
576.46	1708.59
576.62	3080.14
576.79	4046.79
576.95	3171.43
577.11	1907.54
577.27	1327.08
577.43	873.02
577.59	685.78
577.75	634.29
577.92	650.67
578.08	582.79
578.24	547.69
578.40	854.30
578.56	1818.60
578.72	3192.49
578.88	4093.60
579.04	3133.98
579.21	2186.06
579.37	1713.27
579.53	1472.20
579.69	1359.85
579.85	1708.59
580.01	1944.99
580.17	1996.48
580.33	1872.43
580.49	1488.58
580.65	1317.72
580.82	1291.98
580.98	1256.87
581.14	1252.19
581.30	1416.02
581.46	1338.79
581.62	1416.02
581.78	1385.60
581.94	1547.09
582.10	1493.26
582.26	1544.75
582.42	1570.50
582.58	1645.40
582.74	1713.27
582.90	1825.62
583.06	1909.88
583.22	2143.93
583.38	2073.71
583.54	2026.90
583.70	1994.14
583.86	2017.54
584.02	1989.46
584.18	1975.41
584.34	1860.73
584.50	1837.32
584.66	1760.08
584.82	1795.19
584.98	1699.23
585.14	1598.59
585.30	1502.62
585.46	1502.62
585.62	1521.35
585.78	1549.43
585.94	1549.43
586.10	1654.76
586.26	1650.08
586.42	1837.32
586.58	2071.37
586.74	2321.81
586.90	2679.91
587.06	3089.51
587.22	3335.26
587.38	3084.83
587.54	2942.05
587.70	2539.48
587.86	2340.54
588.02	1994.14
588.18	1797.53
588.34	1764.76
588.49	1713.27
588.65	1444.11
588.81	1544.75
588.97	1380.92
589.13	1432.41
589.29	1425.39
589.45	1397.30
589.61	1373.89
589.77	1338.79
589.93	1294.32
590.08	1343.47
590.24	1266.23
590.40	1273.25
590.56	1313.04
590.72	1238.14
590.88	1188.99
591.04	1270.91
591.20	1217.08
591.35	1217.08
591.51	1196.01
591.67	1186.65
591.83	1221.76
591.99	1397.30
592.15	1451.13
592.31	1511.99
592.46	1605.61
592.62	1853.70
592.78	1900.52
592.94	1984.77
593.10	2003.50
593.26	1837.32
593.41	1734.34
593.57	1535.39
593.73	1291.98
593.89	1249.85
594.05	1097.71
594.20	966.64
594.36	922.17
594.52	889.40
594.68	777.06
594.84	830.89
594.99	795.78
595.15	748.97
595.31	723.23
595.47	828.55
595.62	713.86
595.78	683.44
595.94	669.39
596.10	807.48
596.25	720.88
596.41	739.61
596.57	643.65
596.73	636.63
596.88	741.95
597.04	723.23
597.20	725.57
597.36	748.97
597.51	725.57
597.67	704.50
597.83	802.80
597.99	898.77
598.14	997.07
598.30	1022.81
598.46	947.92
598.61	1050.90
598.77	1090.69
598.93	1123.46
599.09	1188.99
599.24	1167.93
599.40	1268.57
599.56	1212.40
599.71	1151.54
599.87	1093.03
600.03	1006.43
600.18	983.02
600.34	837.91
600.50	849.61
600.65	819.19
600.81	723.23
600.97	620.24
601.12	697.48
601.28	681.10
601.44	662.37
601.59	620.24
601.75	641.31
601.91	521.94
602.06	624.92
602.22	711.52
602.37	545.34
602.53	475.13
602.69	613.22
602.84	486.83
603.00	545.34
603.16	596.84
603.31	601.52
603.47	596.84
603.62	571.09
603.78	564.07
603.94	573.43
604.09	627.26
604.25	620.24
604.40	638.97
604.56	613.22
604.71	685.78
604.87	575.77
605.03	641.31
605.18	615.56
605.34	702.16
605.49	695.14
605.65	585.13
605.80	660.03
605.96	638.97
606.12	746.63
606.27	674.07
606.43	725.57
606.58	798.12
606.74	814.51
606.89	875.36
607.05	835.57
607.20	903.45
607.36	959.62
607.51	1097.71
607.67	1041.54
607.82	1090.69
607.98	1184.31
608.13	1266.23
608.29	1317.72
608.44	1432.41
608.60	1570.50
608.75	1739.02
608.91	1858.39
609.06	2059.67
609.22	2228.19
609.37	2459.90
609.53	2722.04
609.68	2958.44
609.84	3358.67
609.99	4100.62
610.15	4765.33
610.30	5713.25
610.46	7440.56
610.61	9631.30
610.76	12285.47
610.92	15758.83
611.07	18167.24
611.23	18604.92
611.38	17624.23
611.54	15056.67
611.69	12940.82
611.84	10668.16
612.00	9043.83
612.15	7431.20
612.31	6663.51
612.46	5898.15
612.62	5563.45
612.77	5331.74
612.92	5057.90
613.08	4723.20
613.23	4486.81
613.39	4234.03
613.54	3976.57
613.69	3974.23
613.85	4018.70
614.00	3833.80
614.15	4088.92
614.31	4014.02
614.46	3660.60
614.62	3693.37
614.77	3651.24
614.92	3262.71
615.08	3119.93
615.23	2928.01
615.38	2752.47
615.54	2478.63
615.69	2422.45
615.84	2200.10
616.00	1980.09
616.15	1877.11
616.30	1710.93
616.46	1717.95
616.61	1533.05
616.76	1561.14
616.92	1521.35
617.07	1629.01
617.22	1514.33
617.37	1476.88
617.53	1483.90
617.68	1348.15
617.83	1270.91
617.99	1277.93
618.14	1299.00
618.29	1252.19
618.45	1249.85
618.60	1252.19
618.75	1331.76
618.90	1296.66
619.06	1364.53
619.21	1511.99
619.36	1341.13
619.51	1378.58
619.67	1406.66
619.82	1427.73
619.97	1453.47
620.12	1533.05
620.28	1488.58
620.43	1540.07
620.58	1490.92
620.73	1502.62
620.89	1455.81
621.04	1451.13
621.19	1406.66
621.34	1411.34
621.49	1355.17
621.65	1338.79
621.80	1263.89
621.95	1324.74
622.10	1228.78
622.25	1160.91
622.41	1329.42
622.56	1256.87
622.71	1231.12
622.86	1137.50
623.01	1228.78
623.16	1188.99
623.32	1100.05
623.47	1116.44
623.62	1165.59
623.77	1118.78
623.92	1184.31
624.07	1170.27
624.23	1165.59
624.38	1109.41
624.53	1191.33
624.68	1132.82
624.83	1139.84
624.98	1177.29
625.13	1053.24
625.29	985.37
625.44	992.39
625.59	929.19
625.74	985.37
625.89	999.41
626.04	887.06
626.19	929.19
626.34	903.45
626.49	940.90
626.65	931.53
626.80	957.28
626.95	954.94
627.10	903.45
627.25	851.96
627.40	980.68
627.55	903.45
627.70	851.96
627.85	849.61
628.00	931.53
628.15	903.45
628.30	945.58
628.45	1015.79
628.60	978.34
628.76	1018.13
628.91	898.77
629.06	1001.75
629.21	926.85
629.36	1086.01
629.51	997.07
629.66	1006.43
629.81	1125.80
629.96	1233.46
630.11	1378.58
630.26	1451.13
630.41	1629.01
630.56	1867.75
630.71	1834.98
630.86	2186.06
631.01	1961.37
631.16	1877.11
631.31	1743.70
631.46	1418.36
631.61	1249.85
631.76	994.73
631.91	861.32
632.06	779.40
632.21	678.76
632.36	641.31
632.51	620.24
632.66	491.51
632.81	451.72
632.96	440.02
633.10	454.06
633.25	402.57
633.40	404.91
633.55	444.70
633.70	397.89
633.85	376.83
634.00	428.32
634.15	388.53
634.30	465.77
634.45	276.18
634.60	348.74
634.75	369.80
634.90	379.17
635.05	341.72
635.19	376.83
635.34	458.74
635.49	444.70
635.64	353.42
635.79	369.80
635.94	390.87
636.09	320.65
636.24	273.84
636.39	294.91
636.53	369.80
636.68	355.76
636.83	299.59
636.98	411.93
637.13	278.52
637.28	283.20
637.43	315.97
637.57	278.52
637.72	301.93
637.87	339.38
638.02	245.76
638.17	365.12
638.32	241.08
638.46	283.20
638.61	276.18
638.76	245.76
638.91	299.59
639.06	273.84
639.20	344.06
639.35	341.72
639.50	344.06
639.65	367.46
639.80	278.52
639.94	325.33
640.09	402.57
640.24	301.93
640.39	229.37
640.54	311.29
640.68	283.20
640.83	301.93
640.98	276.18
641.13	322.99
641.27	273.84
641.42	313.63
641.57	306.61
641.72	276.18
641.86	287.89
642.01	362.78
642.16	313.63
642.31	325.33
642.45	348.74
642.60	304.27
642.75	182.56
642.90	257.46
643.04	248.10
643.19	330.02
643.34	297.25
643.48	308.95
643.63	250.44
643.78	322.99
643.93	297.25
644.07	355.76
644.22	264.48
644.37	297.25
644.51	339.38
644.66	353.42
644.81	339.38
644.95	313.63
645.10	245.76
645.25	262.14
645.39	315.97
645.54	271.50
645.69	355.76
645.83	287.89
645.98	386.19
646.13	339.38
646.27	266.82
646.42	257.46
646.57	287.89
646.71	301.93
646.86	344.06
647.00	341.72
647.15	271.50
647.30	210.65
647.44	325.33
647.59	301.93
647.74	266.82
647.88	311.29
648.03	287.89
648.17	294.91
648.32	290.23
648.47	215.33
648.61	322.99
648.76	273.84
648.90	278.52
649.05	330.02
649.20	372.15
649.34	297.25
649.49	332.36
649.63	461.09
649.78	472.79
649.92	514.92
650.07	552.37
650.21	594.50
650.36	662.37
650.51	683.44
650.65	641.31
650.80	599.18
650.94	533.64
651.09	454.06
651.23	433.00
651.38	449.38
651.52	365.12
651.67	334.70
651.81	306.61
651.96	346.40
652.10	433.00
652.25	311.29
652.39	276.18
652.54	383.85
652.68	337.04
652.83	376.83
652.97	325.33
653.12	397.89
653.26	332.36
653.41	416.62
653.55	355.76
653.70	330.02
653.84	322.99
653.99	402.57
654.13	362.78
654.27	292.57
654.42	292.57
654.56	266.82
654.71	259.80
654.85	299.59
655.00	227.03
655.14	227.03
655.29	215.33
655.43	250.44
655.57	224.69
655.72	248.10
655.86	222.35
656.01	163.84
656.15	166.18
656.30	285.55
656.44	215.33
656.58	173.20
656.73	241.08
656.87	201.29
657.01	215.33
657.16	264.48
657.30	285.55
657.45	311.29
657.59	311.29
657.73	292.57
657.88	220.01
658.02	330.02
658.16	208.31
658.31	280.86
658.45	241.08
658.60	259.80
658.74	271.50
658.88	198.95
659.03	124.05
659.17	229.37
659.31	187.24
659.46	175.54
659.60	215.33
659.74	229.37
659.89	248.10
660.03	196.60
660.17	215.33
660.32	241.08
660.46	245.76
660.60	234.05
660.74	168.52
660.89	196.60
661.03	184.90
661.17	276.18
661.32	133.41
661.46	234.05
661.60	271.50
661.74	301.93
661.89	425.98
662.03	386.19
662.17	348.74
662.31	458.74
662.46	393.21
662.60	444.70
662.74	390.87
662.88	425.98
663.03	341.72
663.17	327.68
663.31	313.63
663.45	264.48
663.60	292.57
663.74	327.68
663.88	313.63
664.02	262.14
664.17	257.46
664.31	191.92
664.45	203.63
664.59	217.67
664.73	313.63
664.88	255.12
665.02	248.10
665.16	248.10
665.30	222.35
665.44	280.86
665.59	271.50
665.73	318.31
665.87	224.69
666.01	189.58
666.15	250.44
666.29	255.12
666.44	212.99
666.58	376.83
666.72	182.56
666.86	224.69
667.00	294.91
667.14	271.50
667.28	245.76
667.43	285.55
667.57	250.44
667.71	266.82
667.85	248.10
667.99	311.29
668.13	285.55
668.27	297.25
668.41	278.52
668.56	191.92
668.70	334.70
668.84	248.10
668.98	236.39
669.12	234.05
669.26	245.76
669.40	381.51
669.54	238.73
669.68	285.55
669.82	182.56
669.96	276.18
670.10	191.92
670.25	243.42
670.39	269.16
670.53	196.60
670.67	191.92
670.81	243.42
670.95	285.55
671.09	224.69
671.23	315.97
671.37	210.65
671.51	257.46
671.65	220.01
671.79	273.84
671.93	236.39
672.07	248.10
672.21	168.52
672.35	177.88
672.49	191.92
672.63	266.82
672.77	163.84
672.91	243.42
673.05	255.12
673.19	168.52
673.33	217.67
673.47	248.10
673.61	156.82
673.75	203.63
673.89	210.65
674.03	208.31
674.17	224.69
674.31	243.42
674.45	259.80
674.59	170.86
674.73	220.01
674.87	191.92
675.01	198.95
675.15	133.41
675.29	266.82
675.43	217.67
675.56	222.35
675.70	259.80
675.84	173.20
675.98	245.76
676.12	152.13
676.26	149.79
676.40	142.77
676.54	250.44
676.68	234.05
676.82	205.97
676.96	159.16
677.10	161.50
677.23	161.50
677.37	77.24
677.51	138.09
677.65	280.86
677.79	259.80
677.93	243.42
678.07	231.71
678.21	159.16
678.34	133.41
678.48	229.37
678.62	194.26
678.76	196.60
678.90	234.05
679.04	292.57
679.18	161.50
679.31	194.26
679.45	138.09
679.59	175.54
679.73	128.73
679.87	215.33
680.00	208.31
680.14	184.90
680.28	128.73
680.42	215.33
680.56	191.92
680.70	173.20
680.83	182.56
680.97	229.37
681.11	210.65
681.25	210.65
681.39	269.16
681.52	147.45
681.66	217.67
681.80	201.29
681.94	198.95
682.07	208.31
682.21	140.43
682.35	182.56
682.49	168.52
682.62	259.80
682.76	161.50
682.90	182.56
683.04	257.46
683.17	161.50
683.31	173.20
683.45	191.92
683.59	163.84
683.72	220.01
683.86	182.56
684.00	138.09
684.13	196.60
684.27	229.37
684.41	173.20
684.55	91.28
684.68	131.07
684.82	229.37
684.96	140.43
685.09	119.37
685.23	241.08
685.37	210.65
685.50	102.98
685.64	161.50
685.78	220.01
685.91	154.48
686.05	166.18
686.19	166.18
686.32	149.79
686.46	191.92
686.60	152.13
686.73	283.20
686.87	236.39
687.01	271.50
687.14	231.71
687.28	294.91
687.42	273.84
687.55	250.44
687.69	243.42
687.82	266.82
687.96	248.10
688.10	292.57
688.23	262.14
688.37	238.73
688.50	168.52
688.64	231.71
688.78	180.22
688.91	234.05
689.05	184.90
689.18	182.56
689.32	236.39
689.46	126.39
689.59	154.48
689.73	198.95
689.86	170.86
690.00	184.90
690.13	187.24
690.27	161.50
690.41	182.56
690.54	198.95
690.68	189.58
690.81	161.50
690.95	245.76
691.08	145.11
691.22	173.20
691.35	79.58
691.49	100.64
691.62	180.22
691.76	166.18
691.89	182.56
692.03	65.54
692.16	182.56
692.30	168.52
692.43	135.75
692.57	86.60
692.70	119.37
692.84	177.88
692.97	159.16
693.11	163.84
693.24	252.78
693.38	189.58
693.51	175.54
693.65	269.16
693.78	259.80
693.92	332.36
694.05	182.56
694.19	231.71
694.32	175.54
694.45	187.24
694.59	212.99
694.72	119.37
694.86	184.90
694.99	201.29
695.13	117.03
695.26	142.77
695.39	168.52
695.53	205.97
695.66	175.54
695.80	191.92
695.93	147.45
696.07	149.79
696.20	140.43
696.33	105.32
696.47	124.05
696.60	88.94
696.73	191.92
696.87	140.43
697.00	203.63
697.14	142.77
697.27	156.82
697.40	126.39
697.54	128.73
697.67	131.07
697.80	117.03
697.94	140.43
698.07	140.43
698.21	138.09
698.34	140.43
698.47	149.79
698.61	133.41
698.74	142.77
698.87	166.18
699.01	95.96
699.14	74.90
699.27	152.13
699.40	243.42
699.54	74.90
699.67	124.05
699.80	168.52
699.94	175.54
700.07	72.56
700.20	70.22
700.34	86.60
700.47	128.73
700.60	102.98
700.73	112.35
700.87	170.86
701.00	119.37
701.13	147.45
701.26	128.73
701.40	187.24
701.53	124.05
701.66	128.73
701.79	147.45
701.93	170.86
702.06	217.67
702.19	119.37
702.32	180.22
702.46	154.48
702.59	107.66
702.72	170.86
702.85	102.98
702.99	166.18
703.12	203.63
703.25	189.58
703.38	86.60
703.51	135.75
703.65	154.48
703.78	154.48
703.91	140.43
704.04	177.88
704.17	217.67
704.31	128.73
704.44	175.54
704.57	159.16
704.70	175.54
704.83	177.88
704.96	140.43
705.10	112.35
705.23	140.43
>>>>>End Processed Spectral Data<<<<<
