SpectraSuite Data File
++++++++++++++++++++++++++++++++++++
Date: Fri Oct 04 11:41:51 GMT-05:00 2013
User: price-jones
Dark Spectrum Present: No
Reference Spectrum Present: No
Number of Sampled Component Spectra: 1
Spectrometers: USB2+H05261
Integration Time (usec): 100000 (USB2+H05261)
Spectra Averaged: 1 (USB2+H05261)
Boxcar Smoothing: 0 (USB2+H05261)
Correct for Electrical Dark: No (USB2+H05261)
Strobe/Lamp Enabled: No (USB2+H05261)
Correct for Detector Non-linearity: No (USB2+H05261)
Correct for Stray Light: No (USB2+H05261)
Number of Pixels in Processed Spectrum: 2048
>>>>>Begin Processed Spectral Data<<<<<
365.73	74.90
365.92	74.90
366.12	74.90
366.32	9.36
366.52	2.34
366.72	0.00
366.91	0.00
367.11	0.00
367.31	0.00
367.51	0.00
367.70	0.00
367.90	0.00
368.10	0.00
368.30	0.00
368.49	0.00
368.69	0.00
368.89	32.77
369.09	0.00
369.28	0.00
369.48	0.00
369.68	0.00
369.87	0.00
370.07	0.00
370.27	35.11
370.47	0.00
370.66	4.68
370.86	56.17
371.06	72.56
371.25	70.22
371.45	60.85
371.65	124.05
371.84	70.22
372.04	30.43
372.24	46.81
372.44	117.03
372.63	100.64
372.83	63.19
373.03	114.69
373.22	84.26
373.42	67.88
373.62	65.54
373.81	124.05
374.01	198.95
374.21	131.07
374.40	70.22
374.60	205.97
374.79	220.01
374.99	98.30
375.19	107.66
375.38	126.39
375.58	117.03
375.78	98.30
375.97	145.11
376.17	236.39
376.37	140.43
376.56	114.69
376.76	163.84
376.95	119.37
377.15	105.32
377.35	138.09
377.54	107.66
377.74	147.45
377.93	102.98
378.13	126.39
378.33	152.13
378.52	107.66
378.72	170.86
378.91	149.79
379.11	91.28
379.31	35.11
379.50	152.13
379.70	189.58
379.89	161.50
380.09	135.75
380.28	175.54
380.48	126.39
380.68	163.84
380.87	156.82
381.07	196.60
381.26	152.13
381.46	74.90
381.65	138.09
381.85	208.31
382.04	135.75
382.24	229.37
382.43	131.07
382.63	86.60
382.83	93.62
383.02	201.29
383.22	173.20
383.41	98.30
383.61	88.94
383.80	53.83
384.00	142.77
384.19	149.79
384.39	184.90
384.58	121.71
384.78	88.94
384.97	74.90
385.17	196.60
385.36	44.47
385.56	205.97
385.75	105.32
385.95	117.03
386.14	67.88
386.34	140.43
386.53	74.90
386.72	98.30
386.92	117.03
387.11	156.82
387.31	131.07
387.50	121.71
387.70	121.71
387.89	161.50
388.09	42.13
388.28	110.01
388.48	114.69
388.67	187.24
388.86	154.48
389.06	112.35
389.25	102.98
389.45	114.69
389.64	100.64
389.84	187.24
390.03	114.69
390.22	117.03
390.42	46.81
390.61	182.56
390.81	95.96
391.00	212.99
391.19	163.84
391.39	117.03
391.58	152.13
391.78	107.66
391.97	147.45
392.16	159.16
392.36	124.05
392.55	161.50
392.75	121.71
392.94	131.07
393.13	135.75
393.33	100.64
393.52	114.69
393.71	135.75
393.91	91.28
394.10	112.35
394.29	173.20
394.49	77.24
394.68	156.82
394.88	147.45
395.07	145.11
395.26	119.37
395.46	152.13
395.65	152.13
395.84	112.35
396.04	210.65
396.23	102.98
396.42	175.54
396.62	131.07
396.81	147.45
397.00	105.32
397.19	156.82
397.39	91.28
397.58	177.88
397.77	175.54
397.97	154.48
398.16	77.24
398.35	166.18
398.55	131.07
398.74	140.43
398.93	184.90
399.12	124.05
399.32	229.37
399.51	149.79
399.70	72.56
399.90	159.16
400.09	100.64
400.28	166.18
400.47	142.77
400.67	149.79
400.86	159.16
401.05	264.48
401.24	257.46
401.44	224.69
401.63	175.54
401.82	278.52
402.01	168.52
402.21	159.16
402.40	201.29
402.59	238.73
402.78	163.84
402.97	283.20
403.17	311.29
403.36	334.70
403.55	306.61
403.74	805.14
403.93	2289.04
404.13	5675.80
404.32	8975.95
404.51	8926.80
404.70	5703.89
404.89	2064.35
405.09	629.60
405.28	311.29
405.47	271.50
405.66	290.23
405.85	248.10
406.05	250.44
406.24	217.67
406.43	217.67
406.62	170.86
406.81	283.20
407.00	461.09
407.20	650.67
407.39	1128.14
407.58	1418.36
407.77	1041.54
407.96	603.86
408.15	318.31
408.34	264.48
408.54	198.95
408.73	229.37
408.92	196.60
409.11	201.29
409.30	318.31
409.49	121.71
409.68	210.65
409.87	187.24
410.07	187.24
410.26	187.24
410.45	315.97
410.64	210.65
410.83	175.54
411.02	184.90
411.21	201.29
411.40	257.46
411.59	255.12
411.78	156.82
411.98	229.37
412.17	241.08
412.36	149.79
412.55	231.71
412.74	264.48
412.93	297.25
413.12	327.68
413.31	241.08
413.50	308.95
413.69	224.69
413.88	318.31
414.07	236.39
414.26	224.69
414.45	243.42
414.64	262.14
414.83	196.60
415.02	276.18
415.22	311.29
415.41	304.27
415.60	220.01
415.79	334.70
415.98	334.70
416.17	227.03
416.36	320.65
416.55	241.08
416.74	299.59
416.93	276.18
417.12	299.59
417.31	304.27
417.50	304.27
417.69	292.57
417.88	208.31
418.07	290.23
418.26	220.01
418.45	315.97
418.64	365.12
418.83	238.73
419.02	322.99
419.21	250.44
419.39	311.29
419.58	201.29
419.77	210.65
419.96	311.29
420.15	353.42
420.34	294.91
420.53	334.70
420.72	332.36
420.91	280.86
421.10	283.20
421.29	358.10
421.48	292.57
421.67	390.87
421.86	327.68
422.05	344.06
422.24	402.57
422.43	334.70
422.61	386.19
422.80	327.68
422.99	353.42
423.18	330.02
423.37	404.91
423.56	407.25
423.75	369.80
423.94	360.44
424.13	339.38
424.32	374.49
424.50	313.63
424.69	414.27
424.88	339.38
425.07	360.44
425.26	374.49
425.45	409.59
425.64	421.30
425.83	390.87
426.01	362.78
426.20	372.15
426.39	386.19
426.58	306.61
426.77	322.99
426.96	365.12
427.15	360.44
427.33	433.00
427.52	332.36
427.71	402.57
427.90	447.04
428.09	479.81
428.28	367.46
428.46	416.62
428.65	442.36
428.84	388.53
429.03	365.12
429.22	433.00
429.40	402.57
429.59	376.83
429.78	442.36
429.97	376.83
430.16	449.38
430.34	449.38
430.53	409.59
430.72	430.66
430.91	463.43
431.10	496.19
431.28	440.02
431.47	482.15
431.66	521.94
431.85	449.38
432.03	507.90
432.22	416.62
432.41	521.94
432.60	568.75
432.79	461.09
432.97	498.53
433.16	589.82
433.35	615.56
433.54	753.65
433.72	779.40
433.91	739.61
434.10	744.29
434.28	1057.92
434.47	1238.14
434.66	1362.19
434.85	1598.59
435.03	3782.31
435.22	13980.02
435.41	35491.88
435.59	46333.24
435.78	32950.06
435.97	15171.35
436.16	5734.31
436.34	1844.34
436.53	1067.28
436.72	866.00
436.90	716.20
437.09	704.50
437.28	667.05
437.46	636.63
437.65	620.24
437.84	547.69
438.02	585.13
438.21	610.88
438.40	514.92
438.58	568.75
438.77	587.47
438.96	582.79
439.14	535.98
439.33	578.11
439.52	578.11
439.70	528.96
439.89	571.09
440.08	601.52
440.26	500.87
440.45	573.43
440.63	543.00
440.82	521.94
441.01	557.05
441.19	524.28
441.38	496.19
441.57	496.19
441.75	521.94
441.94	566.41
442.12	571.09
442.31	547.69
442.50	575.77
442.68	554.71
442.87	596.84
443.05	505.56
443.24	484.49
443.43	559.39
443.61	648.33
443.80	638.97
443.98	507.90
444.17	599.18
444.35	472.79
444.54	568.75
444.73	552.37
444.91	538.32
445.10	552.37
445.28	517.26
445.47	491.51
445.65	610.88
445.84	482.15
446.02	531.30
446.21	575.77
446.39	526.62
446.58	573.43
446.77	657.69
446.95	540.66
447.14	538.32
447.32	550.03
447.51	547.69
447.69	524.28
447.88	535.98
448.06	575.77
448.25	561.73
448.43	575.77
448.62	550.03
448.80	564.07
448.99	561.73
449.17	638.97
449.36	489.17
449.54	547.69
449.73	479.81
449.91	669.39
450.10	573.43
450.28	645.99
450.46	521.94
450.65	599.18
450.83	608.54
451.02	580.45
451.20	566.41
451.39	517.26
451.57	552.37
451.76	580.45
451.94	561.73
452.13	559.39
452.31	505.56
452.49	610.88
452.68	526.62
452.86	575.77
453.05	559.39
453.23	468.11
453.42	538.32
453.60	554.71
453.78	573.43
453.97	486.83
454.15	543.00
454.34	550.03
454.52	552.37
454.70	545.34
454.89	538.32
455.07	465.77
455.26	540.66
455.44	500.87
455.62	454.06
455.81	545.34
455.99	592.16
456.17	458.74
456.36	524.28
456.54	543.00
456.73	524.28
456.91	425.98
457.09	585.13
457.28	472.79
457.46	596.84
457.64	638.97
457.83	512.58
458.01	526.62
458.19	585.13
458.38	517.26
458.56	608.54
458.74	472.79
458.93	517.26
459.11	491.51
459.29	629.60
459.48	582.79
459.66	587.47
459.84	554.71
460.03	638.97
460.21	505.56
460.39	526.62
460.57	507.90
460.76	461.09
460.94	475.13
461.12	566.41
461.31	545.34
461.49	444.70
461.67	528.96
461.85	622.58
462.04	475.13
462.22	894.08
462.40	561.73
462.59	510.24
462.77	524.28
462.95	482.15
463.13	533.64
463.32	472.79
463.50	540.66
463.68	629.60
463.86	489.17
464.05	568.75
464.23	547.69
464.41	615.56
464.59	575.77
464.78	543.00
464.96	622.58
465.14	557.05
465.32	465.77
465.50	587.47
465.69	538.32
465.87	440.02
466.05	500.87
466.23	510.24
466.41	512.58
466.60	538.32
466.78	589.82
466.96	622.58
467.14	554.71
467.32	512.58
467.51	624.92
467.69	507.90
467.87	622.58
468.05	491.51
468.23	484.49
468.41	528.96
468.60	400.23
468.78	512.58
468.96	524.28
469.14	475.13
469.32	458.74
469.50	421.30
469.69	381.51
469.87	500.87
470.05	461.09
470.23	430.66
470.41	451.72
470.59	482.15
470.77	395.55
470.95	589.82
471.14	517.26
471.32	482.15
471.50	510.24
471.68	444.70
471.86	510.24
472.04	535.98
472.22	568.75
472.40	484.49
472.58	543.00
472.77	374.49
472.95	571.09
473.13	608.54
473.31	514.92
473.49	547.69
473.67	568.75
473.85	594.50
474.03	456.40
474.21	568.75
474.39	552.37
474.57	512.58
474.75	519.60
474.93	561.73
475.12	393.21
475.30	528.96
475.48	440.02
475.66	440.02
475.84	500.87
476.02	566.41
476.20	575.77
476.38	545.34
476.56	559.39
476.74	507.90
476.92	533.64
477.10	465.77
477.28	531.30
477.46	519.60
477.64	554.71
477.82	568.75
478.00	545.34
478.18	631.94
478.36	550.03
478.54	592.16
478.72	671.73
478.90	650.67
479.08	685.78
479.26	606.20
479.44	634.29
479.62	638.97
479.80	660.03
479.98	702.16
480.16	681.10
480.34	784.08
480.52	760.67
480.70	842.59
480.88	866.00
481.06	896.43
481.24	919.83
481.41	901.11
481.59	994.73
481.77	1104.73
481.95	1212.40
482.13	1235.80
482.31	1308.36
482.49	1352.83
482.67	1437.09
482.85	1563.48
483.03	1671.14
483.21	1792.85
483.39	1902.86
483.57	2062.01
483.74	2073.71
483.92	2275.00
484.10	2417.77
484.28	2525.44
484.46	2766.51
484.64	2846.09
484.82	2892.90
485.00	3115.25
485.18	3314.20
485.35	3454.63
485.53	3492.08
485.71	3831.46
485.89	4070.19
486.07	3997.64
486.25	3983.59
486.43	4140.41
486.61	4088.92
486.78	4269.14
486.96	4007.00
487.14	4147.43
487.32	4060.83
487.50	3918.06
487.68	4121.68
487.85	3936.78
488.03	3742.52
488.21	3765.92
488.39	3730.81
488.57	3737.84
488.75	3616.13
488.92	3770.60
489.10	3466.33
489.28	3417.18
489.46	3375.05
489.64	3176.11
489.81	3197.17
489.99	3281.43
490.17	3229.94
490.35	3103.55
490.53	3040.36
490.70	3030.99
490.88	3056.74
491.06	3239.30
491.24	3389.10
491.41	3485.06
491.59	3302.50
491.77	3108.23
491.95	3002.91
492.13	2904.60
492.30	2867.16
492.48	2862.48
492.66	2715.02
492.84	2708.00
493.01	2637.78
493.19	2628.42
493.37	2633.10
493.54	2464.58
493.72	2495.01
493.90	2516.08
494.08	2363.94
494.25	2324.15
494.43	2401.39
494.61	2356.92
494.79	2331.17
494.96	2251.60
495.14	2207.13
495.32	2256.28
495.49	2190.74
495.67	2207.13
495.85	2136.91
496.02	2111.16
496.20	2094.78
496.38	2050.31
496.55	1926.26
496.73	1970.73
496.91	1834.98
497.09	1870.09
497.26	1865.41
497.44	1727.32
497.62	1823.28
497.79	1750.72
497.97	1785.83
498.14	1664.12
498.32	1586.88
498.50	1675.82
498.67	1565.82
498.85	1516.67
499.03	1385.60
499.20	1437.09
499.38	1345.81
499.56	1256.87
499.73	1373.89
499.91	1366.87
500.08	1387.94
500.26	1259.21
500.44	1256.87
500.61	1196.01
500.79	1111.75
500.97	1093.03
501.14	1130.48
501.32	1015.79
501.49	1032.18
501.67	976.00
501.84	931.53
502.02	1004.09
502.20	877.70
502.37	950.26
502.55	823.87
502.72	866.00
502.90	887.06
503.07	814.51
503.25	805.14
503.43	866.00
503.60	805.14
503.78	746.63
503.95	732.59
504.13	706.84
504.30	791.10
504.48	667.05
504.65	730.25
504.83	669.39
505.01	645.99
505.18	655.35
505.36	641.31
505.53	667.05
505.71	627.26
505.88	716.20
506.06	697.48
506.23	727.91
506.41	587.47
506.58	603.86
506.76	615.56
506.93	641.31
507.11	645.99
507.28	613.22
507.46	566.41
507.63	568.75
507.81	507.90
507.98	510.24
508.16	538.32
508.33	470.45
508.50	526.62
508.68	547.69
508.85	564.07
509.03	620.24
509.20	653.01
509.38	681.10
509.55	599.18
509.73	557.05
509.90	543.00
510.08	510.24
510.25	475.13
510.42	521.94
510.60	503.22
510.77	477.47
510.95	514.92
511.12	463.43
511.30	477.47
511.47	519.60
511.64	545.34
511.82	564.07
511.99	493.85
512.17	521.94
512.34	521.94
512.51	540.66
512.69	458.74
512.86	545.34
513.04	514.92
513.21	531.30
513.38	463.43
513.56	489.17
513.73	510.24
513.90	440.02
514.08	451.72
514.25	477.47
514.43	465.77
514.60	390.87
514.77	407.25
514.95	484.49
515.12	425.98
515.29	341.72
515.47	404.91
515.64	425.98
515.81	428.32
515.99	496.19
516.16	437.68
516.33	477.47
516.51	484.49
516.68	444.70
516.85	407.25
517.03	440.02
517.20	470.45
517.37	395.55
517.54	416.62
517.72	374.49
517.89	390.87
518.06	395.55
518.24	514.92
518.41	423.64
518.58	397.89
518.75	397.89
518.93	388.53
519.10	456.40
519.27	477.47
519.45	433.00
519.62	451.72
519.79	454.06
519.96	447.04
520.14	404.91
520.31	444.70
520.48	322.99
520.65	414.27
520.83	437.68
521.00	348.74
521.17	383.85
521.34	390.87
521.52	355.76
521.69	360.44
521.86	369.80
522.03	458.74
522.20	447.04
522.38	404.91
522.55	344.06
522.72	447.04
522.89	489.17
523.07	423.64
523.24	428.32
523.41	386.19
523.58	409.59
523.75	437.68
523.92	454.06
524.10	477.47
524.27	472.79
524.44	416.62
524.61	423.64
524.78	367.46
524.96	437.68
525.13	458.74
525.30	425.98
525.47	470.45
525.64	451.72
525.81	477.47
525.98	395.55
526.16	475.13
526.33	346.40
526.50	421.30
526.67	491.51
526.84	475.13
527.01	496.19
527.18	559.39
527.36	482.15
527.53	510.24
527.70	615.56
527.87	470.45
528.04	638.97
528.21	528.96
528.38	571.09
528.55	587.47
528.72	451.72
528.89	477.47
529.07	496.19
529.24	561.73
529.41	589.82
529.58	510.24
529.75	538.32
529.92	631.94
530.09	587.47
530.26	617.90
530.43	643.65
530.60	573.43
530.77	629.60
530.94	636.63
531.11	622.58
531.28	634.29
531.46	737.27
531.63	770.04
531.80	732.59
531.97	805.14
532.14	983.02
532.31	1149.20
532.48	1392.62
532.65	1568.16
532.82	1743.70
532.99	2001.16
533.16	2340.54
533.33	2520.76
533.50	2244.57
533.67	1996.48
533.84	1722.63
534.01	1469.86
534.18	1392.62
534.35	1355.17
534.52	1383.26
534.69	1455.81
534.86	1455.81
535.03	1544.75
535.20	1591.56
535.37	1610.29
535.54	1790.51
535.71	1776.47
535.88	1949.67
536.05	2052.65
536.22	2235.21
536.38	2518.42
536.55	2583.95
536.72	3021.63
536.89	3318.88
537.06	3552.93
537.23	4065.51
537.40	4550.00
537.57	4931.51
537.74	5111.73
537.91	5380.89
538.08	5371.53
538.25	5469.83
538.42	5561.11
538.59	5797.51
538.75	5802.19
538.92	6274.98
539.09	6649.46
539.26	7424.18
539.43	8465.72
539.60	9628.96
539.77	10839.02
539.94	12196.53
540.11	13303.60
540.28	14789.85
540.44	16278.43
540.61	18001.06
540.78	20498.41
540.95	24615.41
541.12	29916.73
541.29	33778.61
541.46	36114.47
541.62	35208.68
541.79	34120.33
541.96	31941.29
542.13	29502.45
542.30	27821.95
542.47	25647.59
542.63	24613.07
542.80	23604.30
542.97	22815.54
543.14	22600.21
543.31	23171.30
543.48	22920.87
543.64	23747.08
543.81	23681.54
543.98	23714.31
544.15	24266.67
544.32	24355.61
544.48	24079.43
544.65	23805.59
544.82	23260.24
544.99	23887.51
545.16	24018.58
545.32	25277.79
545.49	37530.49
545.66	58485.31
545.83	65535.00
546.00	65535.00
546.16	54583.63
546.33	41572.60
546.50	31725.96
546.67	24659.88
546.83	21708.47
547.00	20793.32
547.17	20182.44
547.34	19262.61
547.50	18363.84
547.67	17497.84
547.84	16879.94
548.00	16264.38
548.17	15503.71
548.34	14808.57
548.51	14300.67
548.67	13825.54
548.84	13092.96
549.01	11990.56
549.18	11737.79
549.34	11499.05
549.51	10846.04
549.68	10525.39
549.84	10164.95
550.01	9631.30
550.18	9308.31
550.34	8819.14
550.51	8252.73
550.68	7974.21
550.84	7531.84
551.01	7073.10
551.18	6757.13
551.34	6520.73
551.51	6305.40
551.68	5926.24
551.84	5708.57
552.01	5612.60
552.18	5210.03
552.34	5069.60
552.51	4903.42
552.68	4461.06
552.84	4416.59
553.01	4315.95
553.18	4056.15
553.34	3999.98
553.51	3960.19
553.67	3735.50
553.84	3761.24
554.01	3246.32
554.17	3141.00
554.34	3068.44
554.51	2733.75
554.67	2595.65
554.84	2626.08
555.00	2457.56
555.17	2235.21
555.33	2172.02
555.50	2080.74
555.67	1989.46
555.83	1893.49
556.00	1806.89
556.16	1982.43
556.33	1671.14
556.50	1593.90
556.66	1589.22
556.83	1500.28
556.99	1537.73
557.16	1554.12
557.32	1437.09
557.49	1336.45
557.65	1287.29
557.82	1308.36
557.98	1217.08
558.15	1235.80
558.32	1210.06
558.48	1165.59
558.65	1160.91
558.81	1142.18
558.98	1130.48
559.14	1100.05
559.31	1088.35
559.47	973.66
559.64	964.30
559.80	1057.92
559.97	931.53
560.13	966.64
560.30	973.66
560.46	1118.78
560.63	936.21
560.79	987.71
560.96	945.58
561.12	912.81
561.29	933.87
561.45	983.02
561.61	950.26
561.78	1069.62
561.94	1008.77
562.11	971.32
562.27	896.43
562.44	922.17
562.60	863.66
562.77	875.36
562.93	875.36
563.10	898.77
563.26	847.27
563.42	819.19
563.59	844.93
563.75	807.48
563.92	856.64
564.08	760.67
564.24	835.57
564.41	901.11
564.57	807.48
564.74	746.63
564.90	784.08
565.07	819.19
565.23	669.39
565.39	751.31
565.56	725.57
565.72	741.95
565.88	763.01
566.05	730.25
566.21	791.10
566.38	697.48
566.54	662.37
566.70	737.27
566.87	819.19
567.03	688.12
567.19	741.95
567.36	695.14
567.52	697.48
567.68	713.86
567.85	732.59
568.01	748.97
568.17	718.54
568.34	774.72
568.50	751.31
568.66	718.54
568.83	774.72
568.99	755.99
569.15	779.40
569.32	711.52
569.48	767.70
569.64	582.79
569.81	645.99
569.97	573.43
570.13	617.90
570.30	559.39
570.46	535.98
570.62	526.62
570.78	557.05
570.95	528.96
571.11	589.82
571.27	559.39
571.43	519.60
571.60	627.26
571.76	543.00
571.92	550.03
572.09	486.83
572.25	582.79
572.41	447.04
572.57	510.24
572.74	578.11
572.90	547.69
573.06	594.50
573.22	545.34
573.38	667.05
573.55	521.94
573.71	620.24
573.87	603.86
574.03	622.58
574.20	641.31
574.36	615.56
574.52	660.03
574.68	699.82
574.84	755.99
575.01	791.10
575.17	791.10
575.33	835.57
575.49	866.00
575.65	931.53
575.82	1027.50
575.98	1107.07
576.14	1221.76
576.30	2207.13
576.46	6764.15
576.62	14176.62
576.79	19466.24
576.95	13617.24
577.11	8124.00
577.27	5570.48
577.43	3719.11
577.59	2476.29
577.75	1893.49
577.92	1703.91
578.08	1568.16
578.24	1631.35
578.40	2581.61
578.56	6597.97
578.72	13327.01
578.88	17352.73
579.04	12720.81
579.21	8056.12
579.37	5788.14
579.53	4407.23
579.69	3983.59
579.85	4938.53
580.01	6097.10
580.17	6272.64
580.33	5390.25
580.49	4437.66
580.65	3901.67
580.82	3571.66
580.98	3456.97
581.14	3407.82
581.30	3700.39
581.46	3896.99
581.62	4191.90
581.78	4498.51
581.94	4854.27
582.10	5214.71
582.26	5418.34
582.42	5600.90
582.58	5790.49
582.74	5717.93
582.90	5867.72
583.06	6033.90
583.22	6026.88
583.38	6127.52
583.54	6099.44
583.70	5914.53
583.86	5795.17
584.02	5727.29
584.18	5631.33
584.34	5558.77
584.50	5343.44
584.66	5217.05
584.82	5329.40
584.98	5252.16
585.14	5088.32
585.30	5029.81
585.46	4973.64
585.62	5015.77
585.78	5018.11
585.94	5083.64
586.10	5062.58
586.26	5362.17
586.42	5968.37
586.58	7030.97
586.74	8592.11
586.90	10452.83
587.06	11852.47
587.22	12065.46
587.38	10789.87
587.54	9195.96
587.70	7812.71
587.86	6733.72
588.02	5294.29
588.18	4968.96
588.34	4402.55
588.49	3892.31
588.65	3789.33
588.81	3424.20
588.97	3414.84
589.13	3344.63
589.29	3281.43
589.45	3220.58
589.61	3173.77
589.77	3243.98
589.93	3391.44
590.08	3431.23
590.24	3541.23
590.40	3595.06
590.56	3709.75
590.72	3817.41
590.88	3847.84
591.04	3978.91
591.20	4222.33
591.35	4269.14
591.51	4564.04
591.67	4697.46
591.83	4877.68
591.99	5432.38
592.15	5879.43
592.31	6612.01
592.46	6942.03
592.62	7590.36
592.78	8039.74
592.94	8257.41
593.10	8571.04
593.26	8147.40
593.41	7435.88
593.57	6504.35
593.73	5813.89
593.89	5329.40
594.05	4664.69
594.20	4201.26
594.36	3772.94
594.52	3627.83
594.68	3405.48
594.84	3251.00
594.99	3215.90
595.15	2974.82
595.31	3040.36
595.47	3108.23
595.62	2995.89
595.78	2995.89
595.94	3045.04
596.10	2930.35
596.25	3126.96
596.41	3126.96
596.57	2892.90
596.73	2974.82
596.88	3028.65
597.04	2867.16
597.20	2930.35
597.36	2958.44
597.51	3105.89
597.67	3206.53
597.83	3384.41
597.99	3602.08
598.14	3798.69
598.30	3948.48
598.46	4098.28
598.61	4365.10
598.77	4510.21
598.93	4711.50
599.09	4894.06
599.24	5046.20
599.40	5001.72
599.56	4898.74
599.71	4676.39
599.87	4547.66
600.03	4217.65
600.18	3868.91
600.34	3440.59
600.50	3379.73
600.65	3105.89
600.81	3005.25
600.97	2740.77
601.12	2637.78
601.28	2541.82
601.44	2509.05
601.59	2300.75
601.75	2298.41
601.91	2157.97
602.06	2127.55
602.22	2045.63
602.37	2036.27
602.53	1928.60
602.69	1959.03
602.84	1849.02
603.00	2066.69
603.16	1895.83
603.31	1930.94
603.47	2010.52
603.62	2038.61
603.78	2183.72
603.94	2200.10
604.09	2197.76
604.25	2155.63
604.40	2242.23
604.56	2143.93
604.71	2275.00
604.87	2300.75
605.03	2307.77
605.18	2525.44
605.34	2497.35
605.49	2443.52
605.65	2471.61
605.80	2579.27
605.96	2733.75
606.12	2801.62
606.27	2946.73
606.43	3141.00
606.58	3112.91
606.74	3417.18
606.89	3602.08
607.05	3571.66
607.20	3765.92
607.36	4095.94
607.51	4156.79
607.67	4842.57
607.82	4947.89
607.98	5338.76
608.13	5640.69
608.29	6118.16
608.44	6789.89
608.60	7265.02
608.75	7960.16
608.91	8767.65
609.06	9296.61
609.22	10588.58
609.37	11445.22
609.53	13130.41
609.68	14731.33
609.84	16861.22
609.99	19971.79
610.15	23784.52
610.30	28386.02
610.46	35971.69
610.61	46059.40
610.76	54747.47
610.92	60427.95
611.07	64193.87
611.23	64692.41
611.38	63510.44
611.54	61223.73
611.69	56619.90
611.84	51019.00
612.00	44243.15
612.15	37460.27
612.31	31899.16
612.46	28432.83
612.62	26593.17
612.77	24961.81
612.92	23564.51
613.08	22022.10
613.23	21081.21
613.39	20133.29
613.54	19550.49
613.69	19023.87
613.85	18750.03
614.00	19028.56
614.15	19136.22
614.31	18452.78
614.46	17741.26
614.62	17130.38
614.77	16559.29
614.92	15611.37
615.08	14265.57
615.23	13481.49
615.38	12306.54
615.54	10956.05
615.69	10303.04
615.84	9547.05
616.00	8851.91
616.15	8177.83
616.30	7819.73
616.46	7138.63
616.61	6658.82
616.76	6331.15
616.92	5916.87
617.07	5579.84
617.22	5479.19
617.37	4983.00
617.53	4910.44
617.68	4596.81
617.83	4432.97
617.99	4297.22
618.14	4166.15
618.29	4184.88
618.45	4063.17
618.60	3978.91
618.75	4023.38
618.90	3852.52
619.06	3620.81
619.21	3941.46
619.36	3906.35
619.51	3728.47
619.67	3709.75
619.82	3765.92
619.97	3976.57
620.12	3948.48
620.28	3929.76
620.43	3997.64
620.58	4189.56
620.73	4035.08
620.89	4128.70
621.04	3992.95
621.19	4154.45
621.34	3906.35
621.49	3911.04
621.65	3955.51
621.80	3943.80
621.95	3929.76
622.10	3843.16
622.25	3971.89
622.41	3798.69
622.56	4021.04
622.71	3983.59
622.86	4224.67
623.01	4353.40
623.16	4259.78
623.32	4447.02
623.47	4369.78
623.62	4432.97
623.77	4447.02
623.92	4575.75
624.07	4395.53
624.23	4503.19
624.38	4475.10
624.53	4514.89
624.68	4397.87
624.83	4683.41
624.98	4542.98
625.13	4571.07
625.29	4606.17
625.44	4664.69
625.59	4533.62
625.74	4580.43
625.89	4667.03
626.04	4550.00
626.19	4596.81
626.34	4479.79
626.49	4624.90
626.65	4531.28
626.80	4418.93
626.95	4362.76
627.10	4322.97
627.25	4409.57
627.40	4198.92
627.55	4133.39
627.70	4133.39
627.85	4042.11
628.00	3983.59
628.15	3981.25
628.30	4028.06
628.45	3915.72
628.60	4007.00
628.76	3971.89
628.91	4070.19
629.06	4035.08
629.21	4205.94
629.36	4227.01
629.51	4358.08
629.66	4739.58
629.81	4821.50
629.96	5301.31
630.11	5977.73
630.26	6752.45
630.41	7386.73
630.56	7882.92
630.71	8940.85
630.86	8826.16
631.01	8833.18
631.16	8114.64
631.31	7494.40
631.46	6258.59
631.61	5509.62
631.76	4447.02
631.91	3702.73
632.06	3222.92
632.21	2698.64
632.36	2422.45
632.51	2104.14
632.66	1961.37
632.81	1832.64
632.96	1732.00
633.10	1722.63
633.25	1528.37
633.40	1514.33
633.55	1434.75
633.70	1348.15
633.85	1504.96
634.00	1245.16
634.15	1212.40
634.30	1296.66
634.45	1184.31
634.60	1153.88
634.75	1196.01
634.90	1114.10
635.05	1123.46
635.19	1118.78
635.34	1095.37
635.49	1018.13
635.64	1048.56
635.79	999.41
635.94	1076.65
636.09	1020.47
636.24	1022.81
636.39	973.66
636.53	987.71
636.68	917.49
636.83	943.24
636.98	1008.77
637.13	992.39
637.28	842.59
637.43	983.02
637.57	910.47
637.72	917.49
637.87	791.10
638.02	922.17
638.17	833.23
638.32	842.59
638.46	821.53
638.61	898.77
638.76	734.93
638.91	800.46
639.06	802.80
639.20	833.23
639.35	837.91
639.50	723.23
639.65	753.65
639.80	758.33
639.94	770.04
640.09	807.48
640.24	788.76
640.39	777.06
640.54	788.76
640.68	706.84
640.83	805.14
640.98	732.59
641.13	786.42
641.27	730.25
641.42	720.88
641.57	821.53
641.72	763.01
641.86	753.65
642.01	765.36
642.16	793.44
642.31	725.57
642.45	819.19
642.60	741.95
642.75	767.70
642.90	777.06
643.04	723.23
643.19	741.95
643.34	746.63
643.48	807.48
643.63	765.36
643.78	849.61
643.93	746.63
644.07	800.46
644.22	678.76
644.37	781.74
644.51	840.25
644.66	816.85
644.81	753.65
644.95	744.29
645.10	690.46
645.25	725.57
645.39	784.08
645.54	734.93
645.69	788.76
645.83	723.23
645.98	723.23
646.13	678.76
646.27	669.39
646.42	650.67
646.57	727.91
646.71	697.48
646.86	681.10
647.00	622.58
647.15	685.78
647.30	669.39
647.44	617.90
647.59	695.14
647.74	697.48
647.88	720.88
648.03	751.31
648.17	706.84
648.32	746.63
648.47	739.61
648.61	826.21
648.76	755.99
648.90	833.23
649.05	880.04
649.20	854.30
649.34	863.66
649.49	1032.18
649.63	1095.37
649.78	1376.24
649.92	1678.16
650.07	2059.67
650.21	2394.37
650.36	2401.39
650.51	2356.92
650.65	2242.23
650.80	1937.96
650.94	1834.98
651.09	1643.06
651.23	1406.66
651.38	1289.64
651.52	1240.48
651.67	1139.84
651.81	1039.20
651.96	1043.88
652.10	966.64
652.25	912.81
652.39	1008.77
652.54	1041.54
652.68	952.60
652.83	1184.31
652.97	1203.04
653.12	1214.74
653.26	1294.32
653.41	1090.69
653.55	1039.20
653.70	926.85
653.84	915.15
653.99	849.61
654.13	795.78
654.27	826.21
654.42	805.14
654.56	833.23
654.71	800.46
654.85	727.91
655.00	634.29
655.14	755.99
655.29	688.12
655.43	774.72
655.57	746.63
655.72	561.73
655.86	589.82
656.01	655.35
656.15	657.69
656.30	608.54
656.44	711.52
656.58	704.50
656.73	732.59
656.87	720.88
657.01	713.86
657.16	763.01
657.30	809.83
657.45	837.91
657.59	812.17
657.73	770.04
657.88	894.08
658.02	851.96
658.16	844.93
658.31	669.39
658.45	643.65
658.60	650.67
658.74	561.73
658.88	653.01
659.03	477.47
659.17	458.74
659.31	568.75
659.46	526.62
659.60	496.19
659.74	559.39
659.89	566.41
660.03	552.37
660.17	482.15
660.32	489.17
660.46	528.96
660.60	449.38
660.74	528.96
660.89	540.66
661.03	519.60
661.17	585.13
661.32	674.07
661.46	641.31
661.60	826.21
661.74	978.34
661.89	1170.27
662.03	1317.72
662.17	1519.01
662.31	1385.60
662.46	1474.54
662.60	1390.28
662.74	1310.70
662.88	1198.35
663.03	1015.79
663.17	926.85
663.31	802.80
663.45	861.32
663.60	781.74
663.74	634.29
663.88	636.63
664.02	667.05
664.17	620.24
664.31	482.15
664.45	559.39
664.59	554.71
664.73	514.92
664.88	538.32
665.02	437.68
665.16	500.87
665.30	524.28
665.44	486.83
665.59	540.66
665.73	587.47
665.87	437.68
666.01	475.13
666.15	433.00
666.29	454.06
666.44	498.53
666.58	599.18
666.72	521.94
666.86	479.81
667.00	540.66
667.14	547.69
667.28	519.60
667.43	447.04
667.57	517.26
667.71	461.09
667.85	533.64
667.99	437.68
668.13	425.98
668.27	519.60
668.41	468.11
668.56	442.36
668.70	585.13
668.84	578.11
668.98	379.17
669.12	400.23
669.26	411.93
669.40	470.45
669.54	402.57
669.68	430.66
669.82	463.43
669.96	465.77
670.10	397.89
670.25	355.76
670.39	468.11
670.53	463.43
670.67	461.09
670.81	493.85
670.95	435.34
671.09	409.59
671.23	454.06
671.37	430.66
671.51	416.62
671.65	496.19
671.79	428.32
671.93	362.78
672.07	496.19
672.21	444.70
672.35	418.96
672.49	395.55
672.63	456.40
672.77	484.49
672.91	428.32
673.05	416.62
673.19	402.57
673.33	344.06
673.47	465.77
673.61	330.02
673.75	372.15
673.89	353.42
674.03	435.34
674.17	414.27
674.31	353.42
674.45	395.55
674.59	404.91
674.73	437.68
674.87	458.74
675.01	395.55
675.15	315.97
675.29	337.04
675.43	400.23
675.56	390.87
675.70	365.12
675.84	292.57
675.98	308.95
676.12	337.04
676.26	287.89
676.40	351.08
676.54	280.86
676.68	327.68
676.82	337.04
676.96	416.62
677.10	332.36
677.23	318.31
677.37	294.91
677.51	248.10
677.65	456.40
677.79	325.33
677.93	322.99
678.07	318.31
678.21	425.98
678.34	330.02
678.48	397.89
678.62	318.31
678.76	320.65
678.90	402.57
679.04	320.65
679.18	355.76
679.31	337.04
679.45	362.78
679.59	393.21
679.73	330.02
679.87	383.85
680.00	358.10
680.14	374.49
680.28	360.44
680.42	383.85
680.56	383.85
680.70	440.02
680.83	477.47
680.97	360.44
681.11	444.70
681.25	292.57
681.39	379.17
681.52	397.89
681.66	386.19
681.80	388.53
681.94	386.19
682.07	369.80
682.21	423.64
682.35	425.98
682.49	367.46
682.62	390.87
682.76	301.93
682.90	313.63
683.04	322.99
683.17	318.31
683.31	369.80
683.45	390.87
683.59	344.06
683.72	376.83
683.86	327.68
684.00	365.12
684.13	304.27
684.27	320.65
684.41	304.27
684.55	292.57
684.68	264.48
684.82	325.33
684.96	362.78
685.09	388.53
685.23	341.72
685.37	372.15
685.50	372.15
685.64	390.87
685.78	353.42
685.91	451.72
686.05	421.30
686.19	435.34
686.32	400.23
686.46	463.43
686.60	496.19
686.73	557.05
686.87	571.09
687.01	631.94
687.14	599.18
687.28	802.80
687.42	809.83
687.55	807.48
687.69	875.36
687.82	791.10
687.96	856.64
688.10	765.36
688.23	671.73
688.37	760.67
688.50	634.29
688.64	629.60
688.78	491.51
688.91	533.64
689.05	418.96
689.18	433.00
689.32	414.27
689.46	418.96
689.59	421.30
689.73	428.32
689.86	292.57
690.00	360.44
690.13	318.31
690.27	358.10
690.41	355.76
690.54	407.25
690.68	409.59
690.81	285.55
690.95	283.20
691.08	325.33
691.22	311.29
691.35	245.76
691.49	161.50
691.62	231.71
691.76	313.63
691.89	227.03
692.03	203.63
692.16	290.23
692.30	227.03
692.43	224.69
692.57	194.26
692.70	264.48
692.84	271.50
692.97	292.57
693.11	358.10
693.24	404.91
693.38	538.32
693.51	655.35
693.65	681.10
693.78	650.67
693.92	636.63
694.05	550.03
694.19	423.64
694.32	414.27
694.45	411.93
694.59	278.52
694.72	273.84
694.86	337.04
694.99	304.27
695.13	283.20
695.26	264.48
695.39	283.20
695.53	292.57
695.66	290.23
695.80	269.16
695.93	215.33
696.07	241.08
696.20	205.97
696.33	227.03
696.47	212.99
696.60	318.31
696.73	315.97
696.87	262.14
697.00	227.03
697.14	152.13
697.27	201.29
697.40	259.80
697.54	187.24
697.67	241.08
697.80	156.82
697.94	156.82
698.07	156.82
698.21	110.01
698.34	259.80
698.47	184.90
698.61	154.48
698.74	149.79
698.87	133.41
699.01	147.45
699.14	227.03
699.27	173.20
699.40	255.12
699.54	227.03
699.67	227.03
699.80	145.11
699.94	222.35
700.07	182.56
700.20	133.41
700.34	215.33
700.47	156.82
700.60	154.48
700.73	210.65
700.87	189.58
701.00	189.58
701.13	198.95
701.26	217.67
701.40	180.22
701.53	135.75
701.66	184.90
701.79	159.16
701.93	212.99
702.06	229.37
702.19	252.78
702.32	212.99
702.46	248.10
702.59	220.01
702.72	196.60
702.85	217.67
702.99	250.44
703.12	196.60
703.25	231.71
703.38	243.42
703.51	250.44
703.65	271.50
703.78	292.57
703.91	315.97
704.04	337.04
704.17	341.72
704.31	248.10
704.44	297.25
704.57	236.39
704.70	339.38
704.83	311.29
704.96	311.29
705.10	355.76
705.23	353.42
>>>>>End Processed Spectral Data<<<<<
