SpectraSuite Data File
++++++++++++++++++++++++++++++++++++
Date: Fri Oct 04 11:42:26 GMT-05:00 2013
User: price-jones
Dark Spectrum Present: No
Reference Spectrum Present: No
Number of Sampled Component Spectra: 1
Spectrometers: USB2+H05261
Integration Time (usec): 100000 (USB2+H05261)
Spectra Averaged: 1 (USB2+H05261)
Boxcar Smoothing: 0 (USB2+H05261)
Correct for Electrical Dark: No (USB2+H05261)
Strobe/Lamp Enabled: No (USB2+H05261)
Correct for Detector Non-linearity: No (USB2+H05261)
Correct for Stray Light: No (USB2+H05261)
Number of Pixels in Processed Spectrum: 2048
>>>>>Begin Processed Spectral Data<<<<<
365.73	49.15
365.92	49.15
366.12	49.15
366.32	0.00
366.52	0.00
366.72	0.00
366.91	0.00
367.11	0.00
367.31	0.00
367.51	0.00
367.70	0.00
367.90	0.00
368.10	0.00
368.30	0.00
368.49	0.00
368.69	0.00
368.89	0.00
369.09	0.00
369.28	0.00
369.48	0.00
369.68	0.00
369.87	39.79
370.07	0.00
370.27	4.68
370.47	0.00
370.66	0.00
370.86	2.34
371.06	32.77
371.25	49.15
371.45	53.83
371.65	79.58
371.84	32.77
372.04	95.96
372.24	121.71
372.44	102.98
372.63	156.82
372.83	107.66
373.03	88.94
373.22	32.77
373.42	65.54
373.62	58.51
373.81	131.07
374.01	79.58
374.21	42.13
374.40	25.75
374.60	105.32
374.79	56.17
374.99	140.43
375.19	133.41
375.38	184.90
375.58	79.58
375.78	180.22
375.97	135.75
376.17	196.60
376.37	124.05
376.56	182.56
376.76	91.28
376.95	112.35
377.15	140.43
377.35	133.41
377.54	112.35
377.74	110.01
377.93	100.64
378.13	91.28
378.33	154.48
378.52	112.35
378.72	173.20
378.91	86.60
379.11	117.03
379.31	126.39
379.50	72.56
379.70	63.19
379.89	93.62
380.09	91.28
380.28	23.41
380.48	84.26
380.68	60.85
380.87	105.32
381.07	149.79
381.26	154.48
381.46	65.54
381.65	56.17
381.85	119.37
382.04	67.88
382.24	56.17
382.43	117.03
382.63	119.37
382.83	74.90
383.02	65.54
383.22	161.50
383.41	95.96
383.61	156.82
383.80	51.49
384.00	56.17
384.19	56.17
384.39	117.03
384.58	74.90
384.78	93.62
384.97	95.96
385.17	21.06
385.36	131.07
385.56	166.18
385.75	98.30
385.95	49.15
386.14	131.07
386.34	49.15
386.53	205.97
386.72	142.77
386.92	138.09
387.11	107.66
387.31	189.58
387.50	117.03
387.70	72.56
387.89	138.09
388.09	170.86
388.28	77.24
388.48	110.01
388.67	121.71
388.86	98.30
389.06	67.88
389.25	124.05
389.45	105.32
389.64	60.85
389.84	168.52
390.03	121.71
390.22	147.45
390.42	74.90
390.61	131.07
390.81	79.58
391.00	145.11
391.19	154.48
391.39	138.09
391.58	140.43
391.78	142.77
391.97	182.56
392.16	63.19
392.36	100.64
392.55	140.43
392.75	93.62
392.94	128.73
393.13	142.77
393.33	63.19
393.52	102.98
393.71	177.88
393.91	77.24
394.10	63.19
394.29	42.13
394.49	102.98
394.68	79.58
394.88	102.98
395.07	100.64
395.26	98.30
395.46	110.01
395.65	140.43
395.84	147.45
396.04	147.45
396.23	105.32
396.42	67.88
396.62	198.95
396.81	107.66
397.00	102.98
397.19	88.94
397.39	84.26
397.58	140.43
397.77	131.07
397.97	166.18
398.16	91.28
398.35	95.96
398.55	124.05
398.74	126.39
398.93	147.45
399.12	105.32
399.32	154.48
399.51	93.62
399.70	145.11
399.90	86.60
400.09	180.22
400.28	154.48
400.47	135.75
400.67	39.79
400.86	110.01
401.05	175.54
401.24	86.60
401.44	133.41
401.63	100.64
401.82	159.16
402.01	168.52
402.21	112.35
402.40	119.37
402.59	170.86
402.78	65.54
402.97	126.39
403.17	142.77
403.36	187.24
403.55	217.67
403.74	231.71
403.93	578.11
404.13	1270.91
404.32	1357.51
404.51	1151.54
404.70	725.57
404.89	388.53
405.09	198.95
405.28	131.07
405.47	182.56
405.66	180.22
405.85	154.48
406.05	124.05
406.24	98.30
406.43	114.69
406.62	124.05
406.81	203.63
407.00	189.58
407.20	250.44
407.39	308.95
407.58	344.06
407.77	238.73
407.96	273.84
408.15	166.18
408.34	63.19
408.54	117.03
408.73	86.60
408.92	100.64
409.11	224.69
409.30	184.90
409.49	135.75
409.68	152.13
409.87	140.43
410.07	86.60
410.26	159.16
410.45	119.37
410.64	177.88
410.83	234.05
411.02	35.11
411.21	170.86
411.40	227.03
411.59	112.35
411.78	117.03
411.98	105.32
412.17	102.98
412.36	201.29
412.55	133.41
412.74	77.24
412.93	119.37
413.12	227.03
413.31	201.29
413.50	140.43
413.69	154.48
413.88	149.79
414.07	187.24
414.26	133.41
414.45	145.11
414.64	198.95
414.83	187.24
415.02	173.20
415.22	117.03
415.41	201.29
415.60	140.43
415.79	133.41
415.98	198.95
416.17	107.66
416.36	70.22
416.55	168.52
416.74	140.43
416.93	128.73
417.12	154.48
417.31	138.09
417.50	100.64
417.69	154.48
417.88	180.22
418.07	138.09
418.26	135.75
418.45	154.48
418.64	159.16
418.83	124.05
419.02	163.84
419.21	161.50
419.39	128.73
419.58	145.11
419.77	142.77
419.96	177.88
420.15	196.60
420.34	187.24
420.53	142.77
420.72	156.82
420.91	173.20
421.10	133.41
421.29	131.07
421.48	238.73
421.67	173.20
421.86	175.54
422.05	56.17
422.24	145.11
422.43	175.54
422.61	175.54
422.80	147.45
422.99	180.22
423.18	161.50
423.37	224.69
423.56	182.56
423.75	163.84
423.94	170.86
424.13	168.52
424.32	159.16
424.50	159.16
424.69	196.60
424.88	231.71
425.07	173.20
425.26	203.63
425.45	180.22
425.64	149.79
425.83	91.28
426.01	177.88
426.20	110.01
426.39	191.92
426.58	201.29
426.77	170.86
426.96	224.69
427.15	250.44
427.33	175.54
427.52	205.97
427.71	203.63
427.90	154.48
428.09	159.16
428.28	124.05
428.46	161.50
428.65	231.71
428.84	191.92
429.03	187.24
429.22	229.37
429.40	196.60
429.59	182.56
429.78	191.92
429.97	208.31
430.16	170.86
430.34	135.75
430.53	175.54
430.72	215.33
430.91	184.90
431.10	182.56
431.28	203.63
431.47	229.37
431.66	180.22
431.85	212.99
432.03	184.90
432.22	229.37
432.41	147.45
432.60	234.05
432.79	170.86
432.97	196.60
433.16	194.26
433.35	243.42
433.54	241.08
433.72	201.29
433.91	252.78
434.10	241.08
434.28	252.78
434.47	285.55
434.66	257.46
434.85	353.42
435.03	863.66
435.22	2663.53
435.41	5240.46
435.59	5135.14
435.78	3599.74
435.97	1736.68
436.16	739.61
436.34	367.46
436.53	262.14
436.72	222.35
436.90	262.14
437.09	259.80
437.28	259.80
437.46	117.03
437.65	189.58
437.84	159.16
438.02	163.84
438.21	292.57
438.40	163.84
438.58	191.92
438.77	243.42
438.96	262.14
439.14	227.03
439.33	271.50
439.52	217.67
439.70	196.60
439.89	191.92
440.08	252.78
440.26	262.14
440.45	194.26
440.63	245.76
440.82	194.26
441.01	189.58
441.19	175.54
441.38	229.37
441.57	243.42
441.75	259.80
441.94	220.01
442.12	170.86
442.31	70.22
442.50	255.12
442.68	252.78
442.87	248.10
443.05	271.50
443.24	184.90
443.43	135.75
443.61	250.44
443.80	238.73
443.98	161.50
444.17	222.35
444.35	276.18
444.54	117.03
444.73	220.01
444.91	290.23
445.10	135.75
445.28	222.35
445.47	217.67
445.65	198.95
445.84	177.88
446.02	184.90
446.21	154.48
446.39	236.39
446.58	156.82
446.77	147.45
446.95	201.29
447.14	257.46
447.32	231.71
447.51	252.78
447.69	212.99
447.88	140.43
448.06	149.79
448.25	255.12
448.43	220.01
448.62	222.35
448.80	269.16
448.99	212.99
449.17	163.84
449.36	180.22
449.54	234.05
449.73	227.03
449.91	224.69
450.10	266.82
450.28	227.03
450.46	243.42
450.65	201.29
450.83	205.97
451.02	205.97
451.20	229.37
451.39	208.31
451.57	212.99
451.76	163.84
451.94	184.90
452.13	184.90
452.31	259.80
452.49	187.24
452.68	241.08
452.86	177.88
453.05	276.18
453.23	182.56
453.42	292.57
453.60	222.35
453.78	234.05
453.97	208.31
454.15	198.95
454.34	170.86
454.52	238.73
454.70	255.12
454.89	135.75
455.07	124.05
455.26	194.26
455.44	194.26
455.62	142.77
455.81	273.84
455.99	238.73
456.17	198.95
456.36	259.80
456.54	180.22
456.73	126.39
456.91	236.39
457.09	245.76
457.28	273.84
457.46	245.76
457.64	210.65
457.83	154.48
458.01	198.95
458.19	264.48
458.38	149.79
458.56	196.60
458.74	238.73
458.93	250.44
459.11	166.18
459.29	205.97
459.48	248.10
459.66	238.73
459.84	245.76
460.03	337.04
460.21	250.44
460.39	212.99
460.57	301.93
460.76	205.97
460.94	161.50
461.12	212.99
461.31	264.48
461.49	203.63
461.67	227.03
461.85	210.65
462.04	222.35
462.22	383.85
462.40	271.50
462.59	280.86
462.77	140.43
462.95	173.20
463.13	173.20
463.32	241.08
463.50	231.71
463.68	241.08
463.86	194.26
464.05	227.03
464.23	210.65
464.41	184.90
464.59	173.20
464.78	290.23
464.96	259.80
465.14	231.71
465.32	170.86
465.50	166.18
465.69	217.67
465.87	224.69
466.05	264.48
466.23	163.84
466.41	163.84
466.60	236.39
466.78	163.84
466.96	306.61
467.14	280.86
467.32	189.58
467.51	241.08
467.69	220.01
467.87	294.91
468.05	250.44
468.23	276.18
468.41	231.71
468.60	238.73
468.78	255.12
468.96	285.55
469.14	245.76
469.32	245.76
469.50	154.48
469.69	205.97
469.87	248.10
470.05	215.33
470.23	184.90
470.41	224.69
470.59	208.31
470.77	184.90
470.95	252.78
471.14	217.67
471.32	297.25
471.50	273.84
471.68	212.99
471.86	278.52
472.04	248.10
472.22	220.01
472.40	168.52
472.58	231.71
472.77	189.58
472.95	210.65
473.13	255.12
473.31	285.55
473.49	243.42
473.67	262.14
473.85	203.63
474.03	243.42
474.21	196.60
474.39	271.50
474.57	292.57
474.75	234.05
474.93	262.14
475.12	222.35
475.30	236.39
475.48	264.48
475.66	238.73
475.84	168.52
476.02	156.82
476.20	184.90
476.38	241.08
476.56	325.33
476.74	161.50
476.92	168.52
477.10	276.18
477.28	262.14
477.46	222.35
477.64	180.22
477.82	266.82
478.00	215.33
478.18	252.78
478.36	229.37
478.54	191.92
478.72	278.52
478.90	264.48
479.08	285.55
479.26	271.50
479.44	252.78
479.62	266.82
479.80	236.39
479.98	191.92
480.16	287.89
480.34	287.89
480.52	227.03
480.70	290.23
480.88	234.05
481.06	201.29
481.24	287.89
481.41	290.23
481.59	283.20
481.77	318.31
481.95	250.44
482.13	325.33
482.31	362.78
482.49	327.68
482.67	271.50
482.85	334.70
483.03	458.74
483.21	407.25
483.39	437.68
483.57	341.72
483.74	540.66
483.92	510.24
484.10	517.26
484.28	477.47
484.46	624.92
484.64	477.47
484.82	638.97
485.00	594.50
485.18	695.14
485.35	671.73
485.53	671.73
485.71	798.12
485.89	692.80
486.07	695.14
486.25	866.00
486.43	737.27
486.61	767.70
486.78	812.17
486.96	851.96
487.14	809.83
487.32	931.53
487.50	814.51
487.68	793.44
487.85	802.80
488.03	711.52
488.21	882.38
488.39	830.89
488.57	849.61
488.75	828.55
488.92	1078.99
489.10	781.74
489.28	851.96
489.46	868.34
489.64	760.67
489.81	716.20
489.99	758.33
490.17	660.03
490.35	863.66
490.53	760.67
490.70	793.44
490.88	770.04
491.06	823.87
491.24	858.98
491.41	786.42
491.59	809.83
491.77	755.99
491.95	610.88
492.13	716.20
492.30	739.61
492.48	716.20
492.66	683.44
492.84	629.60
493.01	755.99
493.19	678.76
493.37	763.01
493.54	657.69
493.72	704.50
493.90	641.31
494.08	552.37
494.25	702.16
494.43	620.24
494.61	645.99
494.79	547.69
494.96	622.58
495.14	575.77
495.32	540.66
495.49	568.75
495.67	573.43
495.85	660.03
496.02	566.41
496.20	540.66
496.38	540.66
496.55	554.71
496.73	589.82
496.91	545.34
497.09	505.56
497.26	545.34
497.44	543.00
497.62	535.98
497.79	545.34
497.97	545.34
498.14	512.58
498.32	503.22
498.50	411.93
498.67	479.81
498.85	503.22
499.03	444.70
499.20	477.47
499.38	395.55
499.56	344.06
499.73	470.45
499.91	404.91
500.08	435.34
500.26	327.68
500.44	379.17
500.61	346.40
500.79	402.57
500.97	344.06
501.14	322.99
501.32	315.97
501.49	381.51
501.67	266.82
501.84	332.36
502.02	327.68
502.20	248.10
502.37	271.50
502.55	341.72
502.72	287.89
502.90	273.84
503.07	341.72
503.25	276.18
503.43	306.61
503.60	208.31
503.78	294.91
503.95	264.48
504.13	245.76
504.30	278.52
504.48	220.01
504.65	301.93
504.83	262.14
505.01	259.80
505.18	245.76
505.36	285.55
505.53	311.29
505.71	238.73
505.88	320.65
506.06	252.78
506.23	259.80
506.41	304.27
506.58	283.20
506.76	292.57
506.93	252.78
507.11	306.61
507.28	276.18
507.46	250.44
507.63	259.80
507.81	248.10
507.98	292.57
508.16	229.37
508.33	318.31
508.50	297.25
508.68	304.27
508.85	243.42
509.03	252.78
509.20	294.91
509.38	168.52
509.55	287.89
509.73	311.29
509.90	365.12
510.08	252.78
510.25	252.78
510.42	245.76
510.60	245.76
510.77	217.67
510.95	337.04
511.12	229.37
511.30	318.31
511.47	290.23
511.64	313.63
511.82	327.68
511.99	269.16
512.17	238.73
512.34	222.35
512.51	255.12
512.69	217.67
512.86	257.46
513.04	285.55
513.21	215.33
513.38	234.05
513.56	241.08
513.73	292.57
513.90	306.61
514.08	215.33
514.25	280.86
514.43	243.42
514.60	266.82
514.77	294.91
514.95	294.91
515.12	294.91
515.29	250.44
515.47	262.14
515.64	252.78
515.81	283.20
515.99	351.08
516.16	234.05
516.33	280.86
516.51	250.44
516.68	198.95
516.85	110.01
517.03	191.92
517.20	245.76
517.37	285.55
517.54	227.03
517.72	269.16
517.89	227.03
518.06	271.50
518.24	325.33
518.41	290.23
518.58	224.69
518.75	278.52
518.93	271.50
519.10	327.68
519.27	278.52
519.45	189.58
519.62	201.29
519.79	248.10
519.96	271.50
520.14	292.57
520.31	245.76
520.48	283.20
520.65	280.86
520.83	280.86
521.00	325.33
521.17	264.48
521.34	262.14
521.52	264.48
521.69	271.50
521.86	271.50
522.03	238.73
522.20	259.80
522.38	212.99
522.55	220.01
522.72	229.37
522.89	266.82
523.07	313.63
523.24	304.27
523.41	250.44
523.58	285.55
523.75	224.69
523.92	222.35
524.10	269.16
524.27	229.37
524.44	224.69
524.61	351.08
524.78	292.57
524.96	271.50
525.13	250.44
525.30	257.46
525.47	271.50
525.64	212.99
525.81	280.86
525.98	234.05
526.16	241.08
526.33	243.42
526.50	262.14
526.67	238.73
526.84	238.73
527.01	222.35
527.18	332.36
527.36	257.46
527.53	255.12
527.70	266.82
527.87	259.80
528.04	299.59
528.21	248.10
528.38	269.16
528.55	315.97
528.72	297.25
528.89	290.23
529.07	217.67
529.24	184.90
529.41	299.59
529.58	264.48
529.75	259.80
529.92	234.05
530.09	299.59
530.26	308.95
530.43	318.31
530.60	315.97
530.77	353.42
530.94	308.95
531.11	299.59
531.28	285.55
531.46	238.73
531.63	318.31
531.80	374.49
531.97	292.57
532.14	292.57
532.31	322.99
532.48	351.08
532.65	379.17
532.82	365.12
532.99	421.30
533.16	447.04
533.33	442.36
533.50	449.38
533.67	358.10
533.84	402.57
534.01	379.17
534.18	306.61
534.35	402.57
534.52	372.15
534.69	418.96
534.86	341.72
535.03	311.29
535.20	322.99
535.37	341.72
535.54	348.74
535.71	388.53
535.88	472.79
536.05	461.09
536.22	465.77
536.38	444.70
536.55	442.36
536.72	514.92
536.89	653.01
537.06	559.39
537.23	596.84
537.40	753.65
537.57	739.61
537.74	814.51
537.91	821.53
538.08	894.08
538.25	880.04
538.42	957.28
538.59	959.62
538.75	997.07
538.92	1001.75
539.09	1114.10
539.26	1100.05
539.43	1266.23
539.60	1343.47
539.77	1519.01
539.94	1614.97
540.11	1746.04
540.28	1792.85
540.44	1809.23
540.61	1877.11
540.78	2054.99
540.95	2511.39
541.12	2925.67
541.29	3283.77
541.46	3728.47
541.62	4168.49
541.79	4664.69
541.96	4973.64
542.13	5261.52
542.30	5366.85
542.47	5205.35
542.63	5268.55
542.80	5153.86
542.97	5284.93
543.14	5540.05
543.31	5315.36
543.48	5235.78
543.64	5425.36
543.81	5172.58
543.98	5181.95
544.15	4882.36
544.32	4884.70
544.48	4629.58
544.65	4535.96
544.82	4290.20
544.99	4219.99
545.16	3941.46
545.32	3992.95
545.49	6237.53
545.66	10963.07
545.83	13329.35
546.00	10328.78
546.16	6897.56
546.33	4903.42
546.50	3468.67
546.67	2649.49
546.83	2195.42
547.00	2052.65
547.17	1944.99
547.34	1823.28
547.50	1785.83
547.67	1713.27
547.84	1790.51
548.00	1701.57
548.17	1788.17
548.34	1713.27
548.51	1816.26
548.67	1900.52
548.84	1940.30
549.01	1980.09
549.18	1870.09
549.34	1806.89
549.51	1797.53
549.68	1586.88
549.84	1624.33
550.01	1458.15
550.18	1497.94
550.34	1411.34
550.51	1409.00
550.68	1390.28
550.84	1259.21
551.01	1273.25
551.18	1373.89
551.34	1210.06
551.51	1149.20
551.68	1224.10
551.84	1238.14
552.01	1156.22
552.18	1060.26
552.34	1071.97
552.51	1114.10
552.68	1034.52
552.84	1006.43
553.01	1029.84
553.18	945.58
553.34	933.87
553.51	765.36
553.67	763.01
553.84	753.65
554.01	709.18
554.17	543.00
554.34	587.47
554.51	531.30
554.67	517.26
554.84	568.75
555.00	440.02
555.17	447.04
555.33	489.17
555.50	404.91
555.67	414.27
555.83	428.32
556.00	409.59
556.16	622.58
556.33	437.68
556.50	418.96
556.66	423.64
556.83	388.53
556.99	393.21
557.16	409.59
557.32	390.87
557.49	374.49
557.65	353.42
557.82	327.68
557.98	337.04
558.15	266.82
558.32	334.70
558.48	315.97
558.65	367.46
558.81	404.91
558.98	301.93
559.14	339.38
559.31	243.42
559.47	355.76
559.64	313.63
559.80	341.72
559.97	220.01
560.13	346.40
560.30	287.89
560.46	299.59
560.63	344.06
560.79	376.83
560.96	269.16
561.12	287.89
561.29	262.14
561.45	344.06
561.61	273.84
561.78	358.10
561.94	383.85
562.11	299.59
562.27	299.59
562.44	238.73
562.60	252.78
562.77	322.99
562.93	414.27
563.10	264.48
563.26	353.42
563.42	311.29
563.59	259.80
563.75	236.39
563.92	311.29
564.08	262.14
564.24	353.42
564.41	287.89
564.57	348.74
564.74	238.73
564.90	294.91
565.07	337.04
565.23	283.20
565.39	325.33
565.56	273.84
565.72	269.16
565.88	241.08
566.05	243.42
566.21	234.05
566.38	332.36
566.54	315.97
566.70	222.35
566.87	285.55
567.03	257.46
567.19	257.46
567.36	292.57
567.52	301.93
567.68	332.36
567.85	287.89
568.01	348.74
568.17	308.95
568.34	280.86
568.50	348.74
568.66	255.12
568.83	325.33
568.99	227.03
569.15	255.12
569.32	301.93
569.48	306.61
569.64	224.69
569.81	238.73
569.97	369.80
570.13	283.20
570.30	266.82
570.46	271.50
570.62	278.52
570.78	299.59
570.95	264.48
571.11	376.83
571.27	276.18
571.43	332.36
571.60	255.12
571.76	299.59
571.92	278.52
572.09	264.48
572.25	271.50
572.41	327.68
572.57	299.59
572.74	395.55
572.90	278.52
573.06	332.36
573.22	231.71
573.38	348.74
573.55	311.29
573.71	358.10
573.87	308.95
574.03	337.04
574.20	318.31
574.36	315.97
574.52	311.29
574.68	386.19
574.84	386.19
575.01	304.27
575.17	348.74
575.33	304.27
575.49	304.27
575.65	404.91
575.82	465.77
575.98	379.17
576.14	395.55
576.30	606.20
576.46	1551.78
576.62	2338.20
576.79	2305.43
576.95	1643.06
577.11	1132.82
577.27	854.30
577.43	585.13
577.59	554.71
577.75	400.23
577.92	463.43
578.08	397.89
578.24	449.38
578.40	678.76
578.56	1336.45
578.72	2036.27
578.88	2216.49
579.04	1717.95
579.21	1266.23
579.37	1050.90
579.53	950.26
579.69	976.00
579.85	1057.92
580.01	1306.02
580.17	1132.82
580.33	1032.18
580.49	945.58
580.65	926.85
580.82	821.53
580.98	849.61
581.14	777.06
581.30	854.30
581.46	805.14
581.62	922.17
581.78	908.13
581.94	1013.45
582.10	870.68
582.26	1032.18
582.42	1062.60
582.58	1078.99
582.74	1114.10
582.90	1266.23
583.06	1203.04
583.22	1259.21
583.38	1233.46
583.54	1280.27
583.70	1242.82
583.86	1277.93
584.02	1252.19
584.18	1205.38
584.34	1174.95
584.50	1165.59
584.66	1083.67
584.82	1104.73
584.98	1081.33
585.14	1004.09
585.30	1083.67
585.46	868.34
585.62	931.53
585.78	954.94
585.94	985.37
586.10	1022.81
586.26	1125.80
586.42	1193.67
586.58	1284.95
586.74	1591.56
586.90	1792.85
587.06	1973.07
587.22	1926.26
587.38	1804.55
587.54	1673.48
587.70	1535.39
587.86	1383.26
588.02	1179.63
588.18	1172.61
588.34	1015.79
588.49	959.62
588.65	875.36
588.81	866.00
588.97	896.43
589.13	917.49
589.29	873.02
589.45	933.87
589.61	816.85
589.77	896.43
589.93	826.21
590.08	849.61
590.24	746.63
590.40	854.30
590.56	739.61
590.72	758.33
590.88	812.17
591.04	777.06
591.20	716.20
591.35	809.83
591.51	753.65
591.67	732.59
591.83	868.34
591.99	945.58
592.15	898.77
592.31	1050.90
592.46	1086.01
592.62	1109.41
592.78	1214.74
592.94	1254.53
593.10	1263.89
593.26	1097.71
593.41	1006.43
593.57	971.32
593.73	814.51
593.89	744.29
594.05	791.10
594.20	662.37
594.36	594.50
594.52	554.71
594.68	531.30
594.84	554.71
594.99	526.62
595.15	489.17
595.31	552.37
595.47	557.05
595.62	444.70
595.78	465.77
595.94	517.26
596.10	585.13
596.25	566.41
596.41	510.24
596.57	514.92
596.73	449.38
596.88	505.56
597.04	512.58
597.20	514.92
597.36	543.00
597.51	416.62
597.67	425.98
597.83	514.92
597.99	557.05
598.14	622.58
598.30	601.52
598.46	568.75
598.61	615.56
598.77	760.67
598.93	706.84
599.09	784.08
599.24	837.91
599.40	851.96
599.56	758.33
599.71	688.12
599.87	615.56
600.03	716.20
600.18	699.82
600.34	636.63
600.50	535.98
600.65	491.51
600.81	510.24
600.97	500.87
601.12	397.89
601.28	512.58
601.44	514.92
601.59	388.53
601.75	402.57
601.91	411.93
602.06	400.23
602.22	540.66
602.37	411.93
602.53	374.49
602.69	418.96
602.84	351.08
603.00	386.19
603.16	430.66
603.31	517.26
603.47	374.49
603.62	393.21
603.78	374.49
603.94	423.64
604.09	496.19
604.25	486.83
604.40	430.66
604.56	484.49
604.71	489.17
604.87	472.79
605.03	425.98
605.18	514.92
605.34	472.79
605.49	472.79
605.65	465.77
605.80	414.27
605.96	496.19
606.12	561.73
606.27	547.69
606.43	559.39
606.58	545.34
606.74	650.67
606.89	587.47
607.05	671.73
607.20	695.14
607.36	641.31
607.51	641.31
607.67	660.03
607.82	826.21
607.98	760.67
608.13	842.59
608.29	910.47
608.44	830.89
608.60	1046.22
608.75	1071.97
608.91	1214.74
609.06	1348.15
609.22	1406.66
609.37	1523.69
609.53	1643.06
609.68	1987.11
609.84	2111.16
609.99	2382.67
610.15	2953.76
610.30	3520.17
610.46	4599.15
610.61	5811.55
610.76	7817.39
610.92	9116.39
611.07	10146.22
611.23	10324.10
611.38	9385.55
611.54	8348.69
611.69	7183.10
611.84	5942.62
612.00	5053.22
612.15	4241.05
612.31	3716.77
612.46	3314.20
612.62	3213.56
612.77	2942.05
612.92	2768.85
613.08	2782.90
613.23	2569.91
613.39	2438.84
613.54	2485.65
613.69	2352.24
613.85	2382.67
614.00	2225.85
614.15	2279.68
614.31	2256.28
614.46	2190.74
614.62	2146.27
614.77	2038.61
614.92	1907.54
615.08	1867.75
615.23	1680.50
615.38	1542.41
615.54	1469.86
615.69	1385.60
615.84	1329.42
616.00	1203.04
616.15	1167.93
616.30	1039.20
616.46	1118.78
616.61	1015.79
616.76	1027.50
616.92	994.73
617.07	952.60
617.22	896.43
617.37	952.60
617.53	805.14
617.68	842.59
617.83	898.77
617.99	875.36
618.14	802.80
618.29	861.32
618.45	760.67
618.60	809.83
618.75	795.78
618.90	828.55
619.06	842.59
619.21	910.47
619.36	908.13
619.51	866.00
619.67	849.61
619.82	917.49
619.97	947.92
620.12	912.81
620.28	940.90
620.43	936.21
620.58	978.34
620.73	880.04
620.89	933.87
621.04	866.00
621.19	997.07
621.34	887.06
621.49	814.51
621.65	940.90
621.80	849.61
621.95	763.01
622.10	858.98
622.25	847.27
622.41	798.12
622.56	770.04
622.71	779.40
622.86	772.38
623.01	716.20
623.16	704.50
623.32	727.91
623.47	697.48
623.62	777.06
623.77	741.95
623.92	727.91
624.07	765.36
624.23	734.93
624.38	704.50
624.53	699.82
624.68	676.41
624.83	758.33
624.98	702.16
625.13	706.84
625.29	638.97
625.44	641.31
625.59	650.67
625.74	690.46
625.89	636.63
626.04	505.56
626.19	667.05
626.34	650.67
626.49	594.50
626.65	615.56
626.80	624.92
626.95	615.56
627.10	566.41
627.25	678.76
627.40	587.47
627.55	564.07
627.70	622.58
627.85	608.54
628.00	608.54
628.15	571.09
628.30	596.84
628.45	629.60
628.60	624.92
628.76	683.44
628.91	543.00
629.06	669.39
629.21	716.20
629.36	713.86
629.51	624.92
629.66	746.63
629.81	676.41
629.96	814.51
630.11	861.32
630.26	978.34
630.41	980.68
630.56	1153.88
630.71	1167.93
630.86	1179.63
631.01	1174.95
631.16	1118.78
631.31	968.98
631.46	840.25
631.61	784.08
631.76	685.78
631.91	636.63
632.06	533.64
632.21	482.15
632.36	505.56
632.51	332.36
632.66	325.33
632.81	414.27
632.96	341.72
633.10	322.99
633.25	351.08
633.40	334.70
633.55	320.65
633.70	241.08
633.85	315.97
634.00	287.89
634.15	290.23
634.30	327.68
634.45	283.20
634.60	283.20
634.75	220.01
634.90	266.82
635.05	332.36
635.19	245.76
635.34	208.31
635.49	264.48
635.64	264.48
635.79	262.14
635.94	299.59
636.09	285.55
636.24	252.78
636.39	290.23
636.53	287.89
636.68	255.12
636.83	245.76
636.98	250.44
637.13	325.33
637.28	198.95
637.43	294.91
637.57	283.20
637.72	241.08
637.87	280.86
638.02	243.42
638.17	227.03
638.32	266.82
638.46	313.63
638.61	266.82
638.76	231.71
638.91	161.50
639.06	243.42
639.20	238.73
639.35	250.44
639.50	250.44
639.65	325.33
639.80	250.44
639.94	255.12
640.09	287.89
640.24	229.37
640.39	297.25
640.54	248.10
640.68	287.89
640.83	285.55
640.98	266.82
641.13	248.10
641.27	208.31
641.42	250.44
641.57	276.18
641.72	264.48
641.86	173.20
642.01	243.42
642.16	297.25
642.31	243.42
642.45	252.78
642.60	152.13
642.75	287.89
642.90	259.80
643.04	184.90
643.19	177.88
643.34	297.25
643.48	220.01
643.63	217.67
643.78	327.68
643.93	290.23
644.07	241.08
644.22	201.29
644.37	236.39
644.51	287.89
644.66	224.69
644.81	248.10
644.95	280.86
645.10	297.25
645.25	257.46
645.39	287.89
645.54	315.97
645.69	306.61
645.83	238.73
645.98	273.84
646.13	252.78
646.27	227.03
646.42	243.42
646.57	238.73
646.71	257.46
646.86	231.71
647.00	194.26
647.15	255.12
647.30	238.73
647.44	227.03
647.59	196.60
647.74	222.35
647.88	255.12
648.03	208.31
648.17	184.90
648.32	173.20
648.47	187.24
648.61	280.86
648.76	234.05
648.90	208.31
649.05	269.16
649.20	276.18
649.34	248.10
649.49	266.82
649.63	381.51
649.78	355.76
649.92	355.76
650.07	372.15
650.21	411.93
650.36	442.36
650.51	461.09
650.65	442.36
650.80	421.30
650.94	383.85
651.09	365.12
651.23	339.38
651.38	278.52
651.52	210.65
651.67	294.91
651.81	292.57
651.96	301.93
652.10	320.65
652.25	271.50
652.39	318.31
652.54	252.78
652.68	248.10
652.83	280.86
652.97	182.56
653.12	250.44
653.26	271.50
653.41	292.57
653.55	262.14
653.70	212.99
653.84	252.78
653.99	280.86
654.13	156.82
654.27	250.44
654.42	224.69
654.56	243.42
654.71	231.71
654.85	140.43
655.00	161.50
655.14	257.46
655.29	180.22
655.43	259.80
655.57	271.50
655.72	117.03
655.86	203.63
656.01	194.26
656.15	135.75
656.30	210.65
656.44	156.82
656.58	149.79
656.73	168.52
656.87	189.58
657.01	210.65
657.16	259.80
657.30	306.61
657.45	229.37
657.59	227.03
657.73	208.31
657.88	287.89
658.02	337.04
658.16	196.60
658.31	222.35
658.45	161.50
658.60	191.92
658.74	234.05
658.88	135.75
659.03	184.90
659.17	229.37
659.31	168.52
659.46	149.79
659.60	168.52
659.74	201.29
659.89	191.92
660.03	215.33
660.17	187.24
660.32	187.24
660.46	110.01
660.60	203.63
660.74	252.78
660.89	234.05
661.03	175.54
661.17	196.60
661.32	252.78
661.46	257.46
661.60	227.03
661.74	259.80
661.89	344.06
662.03	290.23
662.17	322.99
662.31	322.99
662.46	306.61
662.60	355.76
662.74	306.61
662.88	313.63
663.03	234.05
663.17	248.10
663.31	339.38
663.45	269.16
663.60	248.10
663.74	234.05
663.88	140.43
664.02	252.78
664.17	184.90
664.31	117.03
664.45	208.31
664.59	252.78
664.73	147.45
664.88	224.69
665.02	189.58
665.16	131.07
665.30	175.54
665.44	145.11
665.59	217.67
665.73	276.18
665.87	147.45
666.01	175.54
666.15	189.58
666.29	203.63
666.44	238.73
666.58	276.18
666.72	220.01
666.86	220.01
667.00	212.99
667.14	203.63
667.28	252.78
667.43	212.99
667.57	203.63
667.71	210.65
667.85	248.10
667.99	210.65
668.13	264.48
668.27	222.35
668.41	196.60
668.56	161.50
668.70	217.67
668.84	215.33
668.98	241.08
669.12	170.86
669.26	227.03
669.40	292.57
669.54	180.22
669.68	292.57
669.82	182.56
669.96	203.63
670.10	173.20
670.25	243.42
670.39	156.82
670.53	191.92
670.67	215.33
670.81	168.52
670.95	241.08
671.09	121.71
671.23	198.95
671.37	229.37
671.51	217.67
671.65	182.56
671.79	175.54
671.93	196.60
672.07	208.31
672.21	147.45
672.35	170.86
672.49	128.73
672.63	135.75
672.77	243.42
672.91	180.22
673.05	248.10
673.19	194.26
673.33	91.28
673.47	184.90
673.61	131.07
673.75	182.56
673.89	227.03
674.03	189.58
674.17	140.43
674.31	182.56
674.45	203.63
674.59	273.84
674.73	201.29
674.87	177.88
675.01	208.31
675.15	203.63
675.29	194.26
675.43	236.39
675.56	182.56
675.70	189.58
675.84	205.97
675.98	154.48
676.12	170.86
676.26	170.86
676.40	177.88
676.54	229.37
676.68	152.13
676.82	198.95
676.96	154.48
677.10	156.82
677.23	145.11
677.37	147.45
677.51	222.35
677.65	201.29
677.79	145.11
677.93	201.29
678.07	212.99
678.21	147.45
678.34	149.79
678.48	187.24
678.62	208.31
678.76	187.24
678.90	194.26
679.04	243.42
679.18	201.29
679.31	187.24
679.45	220.01
679.59	156.82
679.73	234.05
679.87	177.88
680.00	175.54
680.14	147.45
680.28	180.22
680.42	205.97
680.56	187.24
680.70	149.79
680.83	264.48
680.97	177.88
681.11	182.56
681.25	166.18
681.39	212.99
681.52	175.54
681.66	117.03
681.80	173.20
681.94	140.43
682.07	187.24
682.21	196.60
682.35	79.58
682.49	149.79
682.62	238.73
682.76	175.54
682.90	170.86
683.04	252.78
683.17	198.95
683.31	161.50
683.45	175.54
683.59	177.88
683.72	135.75
683.86	140.43
684.00	117.03
684.13	149.79
684.27	205.97
684.41	152.13
684.55	126.39
684.68	201.29
684.82	229.37
684.96	140.43
685.09	131.07
685.23	145.11
685.37	145.11
685.50	170.86
685.64	140.43
685.78	112.35
685.91	102.98
686.05	212.99
686.19	161.50
686.32	170.86
686.46	173.20
686.60	126.39
686.73	299.59
686.87	229.37
687.01	187.24
687.14	121.71
687.28	173.20
687.42	241.08
687.55	194.26
687.69	234.05
687.82	126.39
687.96	224.69
688.10	180.22
688.23	212.99
688.37	229.37
688.50	159.16
688.64	269.16
688.78	156.82
688.91	166.18
689.05	170.86
689.18	173.20
689.32	117.03
689.46	126.39
689.59	126.39
689.73	159.16
689.86	215.33
690.00	140.43
690.13	173.20
690.27	145.11
690.41	182.56
690.54	201.29
690.68	191.92
690.81	203.63
690.95	119.37
691.08	177.88
691.22	112.35
691.35	117.03
691.49	149.79
691.62	58.51
691.76	110.01
691.89	147.45
692.03	194.26
692.16	135.75
692.30	175.54
692.43	154.48
692.57	133.41
692.70	119.37
692.84	138.09
692.97	131.07
693.11	205.97
693.24	241.08
693.38	145.11
693.51	180.22
693.65	243.42
693.78	124.05
693.92	262.14
694.05	191.92
694.19	142.77
694.32	154.48
694.45	156.82
694.59	198.95
694.72	175.54
694.86	175.54
694.99	110.01
695.13	105.32
695.26	154.48
695.39	135.75
695.53	191.92
695.66	163.84
695.80	201.29
695.93	133.41
696.07	182.56
696.20	152.13
696.33	124.05
696.47	166.18
696.60	147.45
696.73	161.50
696.87	63.19
697.00	145.11
697.14	163.84
697.27	128.73
697.40	180.22
697.54	42.13
697.67	107.66
697.80	203.63
697.94	95.96
698.07	98.30
698.21	234.05
698.34	98.30
698.47	135.75
698.61	126.39
698.74	133.41
698.87	105.32
699.01	154.48
699.14	175.54
699.27	177.88
699.40	180.22
699.54	114.69
699.67	107.66
699.80	44.47
699.94	114.69
700.07	131.07
700.20	145.11
700.34	107.66
700.47	121.71
700.60	100.64
700.73	159.16
700.87	184.90
701.00	126.39
701.13	98.30
701.26	112.35
701.40	149.79
701.53	98.30
701.66	114.69
701.79	126.39
701.93	65.54
702.06	194.26
702.19	110.01
702.32	201.29
702.46	119.37
702.59	91.28
702.72	105.32
702.85	110.01
702.99	98.30
703.12	159.16
703.25	102.98
703.38	152.13
703.51	159.16
703.65	145.11
703.78	152.13
703.91	138.09
704.04	180.22
704.17	187.24
704.31	60.85
704.44	142.77
704.57	117.03
704.70	241.08
704.83	53.83
704.96	173.20
705.10	121.71
705.23	161.50
>>>>>End Processed Spectral Data<<<<<
