SpectraSuite Data File
++++++++++++++++++++++++++++++++++++
Date: Fri Oct 04 11:41:44 GMT-05:00 2013
User: price-jones
Dark Spectrum Present: No
Reference Spectrum Present: No
Number of Sampled Component Spectra: 1
Spectrometers: USB2+H05261
Integration Time (usec): 100000 (USB2+H05261)
Spectra Averaged: 1 (USB2+H05261)
Boxcar Smoothing: 0 (USB2+H05261)
Correct for Electrical Dark: No (USB2+H05261)
Strobe/Lamp Enabled: No (USB2+H05261)
Correct for Detector Non-linearity: No (USB2+H05261)
Correct for Stray Light: No (USB2+H05261)
Number of Pixels in Processed Spectrum: 2048
>>>>>Begin Processed Spectral Data<<<<<
365.73	37.45
365.92	37.45
366.12	37.45
366.32	0.00
366.52	0.00
366.72	0.00
366.91	0.00
367.11	0.00
367.31	0.00
367.51	0.00
367.70	0.00
367.90	0.00
368.10	0.00
368.30	0.00
368.49	0.00
368.69	0.00
368.89	21.06
369.09	0.00
369.28	0.00
369.48	16.38
369.68	0.00
369.87	0.00
370.07	0.00
370.27	0.00
370.47	25.75
370.66	0.00
370.86	14.04
371.06	84.26
371.25	168.52
371.45	74.90
371.65	156.82
371.84	81.92
372.04	88.94
372.24	114.69
372.44	131.07
372.63	110.01
372.83	154.48
373.03	145.11
373.22	112.35
373.42	74.90
373.62	74.90
373.81	201.29
374.01	128.73
374.21	133.41
374.40	53.83
374.60	124.05
374.79	173.20
374.99	72.56
375.19	142.77
375.38	140.43
375.58	140.43
375.78	177.88
375.97	102.98
376.17	142.77
376.37	133.41
376.56	161.50
376.76	133.41
376.95	154.48
377.15	91.28
377.35	196.60
377.54	86.60
377.74	175.54
377.93	65.54
378.13	154.48
378.33	88.94
378.52	102.98
378.72	135.75
378.91	102.98
379.11	79.58
379.31	105.32
379.50	81.92
379.70	163.84
379.89	175.54
380.09	175.54
380.28	88.94
380.48	77.24
380.68	110.01
380.87	119.37
381.07	161.50
381.26	124.05
381.46	110.01
381.65	60.85
381.85	91.28
382.04	102.98
382.24	119.37
382.43	102.98
382.63	131.07
382.83	124.05
383.02	177.88
383.22	159.16
383.41	133.41
383.61	88.94
383.80	56.17
384.00	154.48
384.19	145.11
384.39	145.11
384.58	121.71
384.78	133.41
384.97	135.75
385.17	208.31
385.36	168.52
385.56	107.66
385.75	168.52
385.95	70.22
386.14	170.86
386.34	84.26
386.53	98.30
386.72	147.45
386.92	147.45
387.11	128.73
387.31	0.00
387.50	58.51
387.70	121.71
387.89	182.56
388.09	126.39
388.28	70.22
388.48	110.01
388.67	149.79
388.86	70.22
389.06	86.60
389.25	189.58
389.45	126.39
389.64	79.58
389.84	135.75
390.03	138.09
390.22	119.37
390.42	140.43
390.61	119.37
390.81	145.11
391.00	121.71
391.19	154.48
391.39	138.09
391.58	168.52
391.78	145.11
391.97	121.71
392.16	203.63
392.36	79.58
392.55	114.69
392.75	98.30
392.94	74.90
393.13	163.84
393.33	72.56
393.52	63.19
393.71	264.48
393.91	131.07
394.10	107.66
394.29	44.47
394.49	110.01
394.68	131.07
394.88	184.90
395.07	149.79
395.26	121.71
395.46	177.88
395.65	147.45
395.84	156.82
396.04	191.92
396.23	105.32
396.42	79.58
396.62	110.01
396.81	93.62
397.00	194.26
397.19	105.32
397.39	135.75
397.58	142.77
397.77	0.00
397.97	147.45
398.16	119.37
398.35	121.71
398.55	133.41
398.74	205.97
398.93	168.52
399.12	142.77
399.32	149.79
399.51	126.39
399.70	173.20
399.90	217.67
400.09	124.05
400.28	198.95
400.47	173.20
400.67	152.13
400.86	159.16
401.05	154.48
401.24	154.48
401.44	145.11
401.63	161.50
401.82	126.39
402.01	135.75
402.21	201.29
402.40	170.86
402.59	224.69
402.78	163.84
402.97	166.18
403.17	180.22
403.36	198.95
403.55	313.63
403.74	681.10
403.93	1961.37
404.13	4538.30
404.32	6176.67
404.51	5516.64
404.70	3258.03
404.89	1270.91
405.09	498.53
405.28	287.89
405.47	198.95
405.66	215.33
405.85	252.78
406.05	161.50
406.24	161.50
406.43	203.63
406.62	201.29
406.81	243.42
407.00	325.33
407.20	554.71
407.39	870.68
407.58	858.98
407.77	645.99
407.96	355.76
408.15	198.95
408.34	182.56
408.54	236.39
408.73	287.89
408.92	177.88
409.11	210.65
409.30	227.03
409.49	173.20
409.68	234.05
409.87	250.44
410.07	161.50
410.26	217.67
410.45	229.37
410.64	175.54
410.83	149.79
411.02	182.56
411.21	222.35
411.40	222.35
411.59	259.80
411.78	161.50
411.98	131.07
412.17	145.11
412.36	156.82
412.55	215.33
412.74	222.35
412.93	227.03
413.12	145.11
413.31	252.78
413.50	196.60
413.69	173.20
413.88	236.39
414.07	187.24
414.26	196.60
414.45	196.60
414.64	191.92
414.83	250.44
415.02	248.10
415.22	180.22
415.41	241.08
415.60	234.05
415.79	259.80
415.98	227.03
416.17	280.86
416.36	215.33
416.55	212.99
416.74	210.65
416.93	210.65
417.12	306.61
417.31	205.97
417.50	194.26
417.69	313.63
417.88	236.39
418.07	231.71
418.26	159.16
418.45	180.22
418.64	294.91
418.83	180.22
419.02	222.35
419.21	285.55
419.39	241.08
419.58	257.46
419.77	248.10
419.96	283.20
420.15	271.50
420.34	285.55
420.53	262.14
420.72	318.31
420.91	234.05
421.10	252.78
421.29	292.57
421.48	250.44
421.67	269.16
421.86	290.23
422.05	243.42
422.24	241.08
422.43	266.82
422.61	196.60
422.80	236.39
422.99	327.68
423.18	287.89
423.37	304.27
423.56	273.84
423.75	264.48
423.94	271.50
424.13	266.82
424.32	269.16
424.50	318.31
424.69	290.23
424.88	262.14
425.07	255.12
425.26	311.29
425.45	297.25
425.64	348.74
425.83	273.84
426.01	332.36
426.20	304.27
426.39	299.59
426.58	311.29
426.77	292.57
426.96	407.25
427.15	269.16
427.33	362.78
427.52	299.59
427.71	271.50
427.90	360.44
428.09	280.86
428.28	322.99
428.46	301.93
428.65	339.38
428.84	306.61
429.03	341.72
429.22	327.68
429.40	250.44
429.59	227.03
429.78	304.27
429.97	358.10
430.16	292.57
430.34	311.29
430.53	215.33
430.72	276.18
430.91	386.19
431.10	344.06
431.28	386.19
431.47	407.25
431.66	386.19
431.85	442.36
432.03	372.15
432.22	449.38
432.41	299.59
432.60	388.53
432.79	397.89
432.97	456.40
433.16	402.57
433.35	517.26
433.54	578.11
433.72	559.39
433.91	634.29
434.10	732.59
434.28	777.06
434.47	854.30
434.66	952.60
434.85	1259.21
435.03	3152.70
435.22	11840.77
435.41	27555.13
435.59	28556.88
435.78	18291.29
435.97	9184.26
436.16	3485.06
436.34	1336.45
436.53	772.38
436.72	720.88
436.90	554.71
437.09	517.26
437.28	444.70
437.46	409.59
437.65	465.77
437.84	383.85
438.02	444.70
438.21	351.08
438.40	390.87
438.58	437.68
438.77	477.47
438.96	353.42
439.14	451.72
439.33	500.87
439.52	393.21
439.70	367.46
439.89	416.62
440.08	381.51
440.26	416.62
440.45	428.32
440.63	435.34
440.82	498.53
441.01	449.38
441.19	486.83
441.38	437.68
441.57	367.46
441.75	482.15
441.94	472.79
442.12	423.64
442.31	388.53
442.50	400.23
442.68	376.83
442.87	414.27
443.05	325.33
443.24	421.30
443.43	507.90
443.61	425.98
443.80	496.19
443.98	388.53
444.17	425.98
444.35	451.72
444.54	404.91
444.73	400.23
444.91	414.27
445.10	449.38
445.28	423.64
445.47	416.62
445.65	400.23
445.84	482.15
446.02	386.19
446.21	428.32
446.39	472.79
446.58	468.11
446.77	409.59
446.95	507.90
447.14	470.45
447.32	486.83
447.51	435.34
447.69	411.93
447.88	402.57
448.06	505.56
448.25	447.04
448.43	397.89
448.62	451.72
448.80	456.40
448.99	395.55
449.17	386.19
449.36	442.36
449.54	430.66
449.73	433.00
449.91	458.74
450.10	372.15
450.28	531.30
450.46	461.09
450.65	430.66
450.83	390.87
451.02	507.90
451.20	411.93
451.39	409.59
451.57	400.23
451.76	451.72
451.94	404.91
452.13	433.00
452.31	440.02
452.49	444.70
452.68	393.21
452.86	411.93
453.05	418.96
453.23	421.30
453.42	402.57
453.60	395.55
453.78	355.76
453.97	308.95
454.15	414.27
454.34	435.34
454.52	411.93
454.70	421.30
454.89	423.64
455.07	428.32
455.26	447.04
455.44	442.36
455.62	421.30
455.81	400.23
455.99	482.15
456.17	400.23
456.36	454.06
456.54	454.06
456.73	318.31
456.91	325.33
457.09	449.38
457.28	456.40
457.46	440.02
457.64	414.27
457.83	416.62
458.01	416.62
458.19	411.93
458.38	421.30
458.56	435.34
458.74	428.32
458.93	414.27
459.11	486.83
459.29	428.32
459.48	491.51
459.66	383.85
459.84	451.72
460.03	559.39
460.21	409.59
460.39	423.64
460.57	409.59
460.76	348.74
460.94	381.51
461.12	428.32
461.31	524.28
461.49	374.49
461.67	283.20
461.85	407.25
462.04	423.64
462.22	561.73
462.40	423.64
462.59	430.66
462.77	362.78
462.95	388.53
463.13	444.70
463.32	411.93
463.50	365.12
463.68	374.49
463.86	372.15
464.05	393.21
464.23	472.79
464.41	486.83
464.59	482.15
464.78	470.45
464.96	318.31
465.14	379.17
465.32	388.53
465.50	383.85
465.69	458.74
465.87	374.49
466.05	400.23
466.23	320.65
466.41	442.36
466.60	535.98
466.78	468.11
466.96	463.43
467.14	402.57
467.32	416.62
467.51	430.66
467.69	414.27
467.87	421.30
468.05	374.49
468.23	433.00
468.41	411.93
468.60	433.00
468.78	400.23
468.96	365.12
469.14	484.49
469.32	332.36
469.50	327.68
469.69	374.49
469.87	325.33
470.05	369.80
470.23	355.76
470.41	280.86
470.59	400.23
470.77	346.40
470.95	388.53
471.14	360.44
471.32	322.99
471.50	444.70
471.68	404.91
471.86	437.68
472.04	304.27
472.22	447.04
472.40	346.40
472.58	372.15
472.77	395.55
472.95	393.21
473.13	447.04
473.31	444.70
473.49	423.64
473.67	433.00
473.85	416.62
474.03	362.78
474.21	365.12
474.39	456.40
474.57	407.25
474.75	355.76
474.93	470.45
475.12	444.70
475.30	407.25
475.48	383.85
475.66	442.36
475.84	407.25
476.02	351.08
476.20	367.46
476.38	358.10
476.56	404.91
476.74	334.70
476.92	400.23
477.10	379.17
477.28	386.19
477.46	421.30
477.64	437.68
477.82	451.72
478.00	355.76
478.18	477.47
478.36	458.74
478.54	404.91
478.72	463.43
478.90	500.87
479.08	500.87
479.26	512.58
479.44	545.34
479.62	514.92
479.80	547.69
479.98	521.94
480.16	535.98
480.34	601.52
480.52	557.05
480.70	585.13
480.88	636.63
481.06	669.39
481.24	744.29
481.41	617.90
481.59	777.06
481.77	774.72
481.95	835.57
482.13	901.11
482.31	976.00
482.49	887.06
482.67	1001.75
482.85	1125.80
483.03	1121.12
483.21	1289.64
483.39	1427.73
483.57	1434.75
483.74	1549.43
483.92	1540.07
484.10	1542.41
484.28	1748.38
484.46	1874.77
484.64	1961.37
484.82	1893.49
485.00	2026.90
485.18	2251.60
485.35	2382.67
485.53	2424.80
485.71	2703.32
485.89	2710.34
486.07	2719.70
486.25	2668.21
486.43	2736.09
486.61	2808.64
486.78	2801.62
486.96	2637.78
487.14	2698.64
487.32	2773.53
487.50	2724.38
487.68	2738.43
487.85	2679.91
488.03	2682.25
488.21	2644.81
488.39	2705.66
488.57	2452.88
488.75	2399.05
488.92	2682.25
489.10	2413.09
489.28	2368.62
489.46	2122.87
489.64	2296.07
489.81	2172.02
489.99	2132.23
490.17	2214.15
490.35	2183.72
490.53	2073.71
490.70	2087.76
490.88	2115.84
491.06	2207.13
491.24	2424.80
491.41	2267.98
491.59	2258.62
491.77	2064.35
491.95	2113.50
492.13	1968.39
492.30	1928.60
492.48	1895.83
492.66	1891.15
492.84	1790.51
493.01	1804.55
493.19	1809.23
493.37	1834.98
493.54	1797.53
493.72	1839.66
493.90	1689.87
494.08	1689.87
494.25	1570.50
494.43	1640.72
494.61	1678.16
494.79	1629.01
494.96	1572.84
495.14	1561.14
495.32	1493.26
495.49	1355.17
495.67	1540.07
495.85	1474.54
496.02	1504.96
496.20	1462.83
496.38	1406.66
496.55	1294.32
496.73	1310.70
496.91	1294.32
497.09	1299.00
497.26	1357.51
497.44	1329.42
497.62	1240.48
497.79	1226.44
497.97	1200.69
498.14	1146.86
498.32	1128.14
498.50	1174.95
498.67	1107.07
498.85	1100.05
499.03	971.32
499.20	1036.86
499.38	983.02
499.56	943.24
499.73	990.05
499.91	959.62
500.08	889.40
500.26	884.72
500.44	791.10
500.61	880.04
500.79	812.17
500.97	835.57
501.14	926.85
501.32	898.77
501.49	770.04
501.67	819.19
501.84	746.63
502.02	737.27
502.20	795.78
502.37	730.25
502.55	713.86
502.72	638.97
502.90	582.79
503.07	643.65
503.25	664.71
503.43	603.86
503.60	599.18
503.78	547.69
503.95	484.49
504.13	603.86
504.30	538.32
504.48	592.16
504.65	491.51
504.83	493.85
505.01	484.49
505.18	496.19
505.36	463.43
505.53	540.66
505.71	486.83
505.88	409.59
506.06	430.66
506.23	461.09
506.41	486.83
506.58	465.77
506.76	456.40
506.93	496.19
507.11	395.55
507.28	449.38
507.46	470.45
507.63	421.30
507.81	421.30
507.98	395.55
508.16	407.25
508.33	468.11
508.50	470.45
508.68	454.06
508.85	458.74
509.03	559.39
509.20	470.45
509.38	498.53
509.55	475.13
509.73	451.72
509.90	489.17
510.08	395.55
510.25	376.83
510.42	400.23
510.60	402.57
510.77	449.38
510.95	397.89
511.12	404.91
511.30	383.85
511.47	456.40
511.64	442.36
511.82	409.59
511.99	330.02
512.17	393.21
512.34	404.91
512.51	397.89
512.69	430.66
512.86	435.34
513.04	409.59
513.21	430.66
513.38	407.25
513.56	402.57
513.73	346.40
513.90	400.23
514.08	383.85
514.25	400.23
514.43	322.99
514.60	418.96
514.77	379.17
514.95	320.65
515.12	337.04
515.29	355.76
515.47	402.57
515.64	404.91
515.81	383.85
515.99	386.19
516.16	423.64
516.33	346.40
516.51	311.29
516.68	341.72
516.85	313.63
517.03	369.80
517.20	383.85
517.37	362.78
517.54	376.83
517.72	330.02
517.89	308.95
518.06	355.76
518.24	416.62
518.41	337.04
518.58	390.87
518.75	297.25
518.93	430.66
519.10	444.70
519.27	423.64
519.45	339.38
519.62	355.76
519.79	325.33
519.96	351.08
520.14	360.44
520.31	339.38
520.48	341.72
520.65	264.48
520.83	402.57
521.00	369.80
521.17	411.93
521.34	292.57
521.52	386.19
521.69	386.19
521.86	313.63
522.03	299.59
522.20	388.53
522.38	402.57
522.55	337.04
522.72	430.66
522.89	290.23
523.07	339.38
523.24	367.46
523.41	290.23
523.58	376.83
523.75	299.59
523.92	358.10
524.10	344.06
524.27	339.38
524.44	337.04
524.61	308.95
524.78	332.36
524.96	381.51
525.13	376.83
525.30	428.32
525.47	433.00
525.64	395.55
525.81	365.12
525.98	341.72
526.16	372.15
526.33	346.40
526.50	311.29
526.67	355.76
526.84	346.40
527.01	334.70
527.18	503.22
527.36	442.36
527.53	451.72
527.70	458.74
527.87	416.62
528.04	477.47
528.21	339.38
528.38	486.83
528.55	374.49
528.72	440.02
528.89	468.11
529.07	440.02
529.24	444.70
529.41	482.15
529.58	503.22
529.75	479.81
529.92	440.02
530.09	486.83
530.26	465.77
530.43	500.87
530.60	486.83
530.77	517.26
530.94	498.53
531.11	491.51
531.28	543.00
531.46	505.56
531.63	638.97
531.80	636.63
531.97	688.12
532.14	758.33
532.31	819.19
532.48	971.32
532.65	1078.99
532.82	1242.82
532.99	1516.67
533.16	1652.42
533.33	1650.08
533.50	1624.33
533.67	1341.13
533.84	1156.22
534.01	1111.75
534.18	1090.69
534.35	990.05
534.52	1011.11
534.69	1076.65
534.86	1067.28
535.03	1102.39
535.20	1069.62
535.37	1212.40
535.54	1196.01
535.71	1306.02
535.88	1404.32
536.05	1495.60
536.22	1572.84
536.38	1678.16
536.55	1933.28
536.72	2167.34
536.89	2291.38
537.06	2513.74
537.23	2864.82
537.40	3096.53
537.57	3318.88
537.74	3501.44
537.91	3599.74
538.08	3684.00
538.25	3669.96
538.42	3899.33
538.59	3810.39
538.75	4051.47
538.92	4138.07
539.09	4547.66
539.26	5217.05
539.43	5799.85
539.60	6443.49
539.77	7253.32
539.94	8234.00
540.11	8875.31
540.28	9858.34
540.44	11014.56
540.61	11990.56
540.78	13706.18
540.95	16533.54
541.12	19864.13
541.29	22267.86
541.46	23503.66
541.62	23353.87
541.79	22113.38
541.96	20695.02
542.13	19002.81
542.30	17640.62
542.47	16725.47
542.63	15707.34
542.80	15365.62
542.97	15194.76
543.14	15073.05
543.31	15044.96
543.48	15482.64
543.64	15543.50
543.81	15604.35
543.98	15592.65
544.15	15854.79
544.32	15487.32
544.48	15913.30
544.65	15365.62
544.82	15339.87
544.99	15206.46
545.16	15587.97
545.32	16774.62
545.49	27421.72
545.66	50230.24
545.83	56940.55
546.00	51023.68
546.16	36299.37
546.33	27094.04
546.50	20032.65
546.67	15922.66
546.83	14249.18
547.00	13518.93
547.17	12716.13
547.34	12147.38
547.50	11545.86
547.67	11276.70
547.84	11026.26
548.00	10478.58
548.17	10111.11
548.34	9881.74
548.51	9423.00
548.67	8875.31
548.84	8376.78
549.01	8023.36
549.18	7803.35
549.34	7475.67
549.51	7335.24
549.68	7054.37
549.84	6581.59
550.01	6396.68
550.18	6104.12
550.34	5720.27
550.51	5324.72
550.68	5315.36
550.84	5022.79
551.01	4718.52
551.18	4468.08
551.34	4304.25
551.51	4100.62
551.68	3913.38
551.84	3889.97
552.01	3684.00
552.18	3433.57
552.34	3346.97
552.51	3208.87
552.68	3068.44
552.84	3054.40
553.01	3005.25
553.18	2867.16
553.34	2644.81
553.51	2597.99
553.67	2640.12
553.84	2541.82
554.01	2289.04
554.17	2282.02
554.34	2038.61
554.51	1902.86
554.67	1860.73
554.84	1689.87
555.00	1629.01
555.17	1497.94
555.33	1380.92
555.50	1420.71
555.67	1345.81
555.83	1268.57
556.00	1263.89
556.16	1355.17
556.33	1184.31
556.50	1200.69
556.66	1165.59
556.83	1048.56
556.99	1036.86
557.16	1055.58
557.32	1020.47
557.49	1034.52
557.65	945.58
557.82	816.85
557.98	940.90
558.15	922.17
558.32	835.57
558.48	933.87
558.65	835.57
558.81	856.64
558.98	788.76
559.14	791.10
559.31	760.67
559.47	770.04
559.64	709.18
559.80	678.76
559.97	751.31
560.13	706.84
560.30	648.33
560.46	720.88
560.63	737.27
560.79	704.50
560.96	667.05
561.12	688.12
561.29	648.33
561.45	770.04
561.61	727.91
561.78	702.16
561.94	765.36
562.11	699.82
562.27	709.18
562.44	613.22
562.60	641.31
562.77	683.44
562.93	713.86
563.10	746.63
563.26	706.84
563.42	653.01
563.59	552.37
563.75	596.84
563.92	699.82
564.08	624.92
564.24	695.14
564.41	582.79
564.57	540.66
564.74	634.29
564.90	627.26
565.07	580.45
565.23	601.52
565.39	568.75
565.56	580.45
565.72	498.53
565.88	491.51
566.05	456.40
566.21	496.19
566.38	545.34
566.54	507.90
566.70	578.11
566.87	533.64
567.03	594.50
567.19	545.34
567.36	528.96
567.52	613.22
567.68	587.47
567.85	531.30
568.01	538.32
568.17	573.43
568.34	482.15
568.50	568.75
568.66	608.54
568.83	641.31
568.99	575.77
569.15	599.18
569.32	482.15
569.48	596.84
569.64	521.94
569.81	482.15
569.97	493.85
570.13	484.49
570.30	500.87
570.46	451.72
570.62	374.49
570.78	402.57
570.95	332.36
571.11	512.58
571.27	440.02
571.43	482.15
571.60	416.62
571.76	332.36
571.92	454.06
572.09	411.93
572.25	430.66
572.41	411.93
572.57	428.32
572.74	489.17
572.90	472.79
573.06	470.45
573.22	472.79
573.38	526.62
573.55	514.92
573.71	547.69
573.87	514.92
574.03	498.53
574.20	498.53
574.36	599.18
574.52	557.05
574.68	533.64
574.84	552.37
575.01	526.62
575.17	528.96
575.33	606.20
575.49	744.29
575.65	774.72
575.82	739.61
575.98	901.11
576.14	791.10
576.30	1900.52
576.46	6031.56
576.62	10569.86
576.79	11421.81
576.95	7953.14
577.11	5090.67
577.27	3655.92
577.43	2511.39
577.59	1607.95
577.75	1289.64
577.92	1210.06
578.08	1196.01
578.24	1160.91
578.40	2008.18
578.56	5425.36
578.72	9334.06
578.88	9762.37
579.04	7421.84
579.21	5104.71
579.37	3843.16
579.53	2923.33
579.69	2935.03
579.85	3531.87
580.01	4100.62
580.17	3964.87
580.33	3435.91
580.49	2869.50
580.65	2546.50
580.82	2298.41
580.98	2361.60
581.14	2476.29
581.30	2616.72
581.46	2684.59
581.62	2895.24
581.78	3136.32
581.94	3232.28
582.10	3478.04
582.26	3705.07
582.42	3864.22
582.58	3901.67
582.74	4007.00
582.90	3936.78
583.06	4166.15
583.22	4058.49
583.38	3932.10
583.54	3918.06
583.70	4049.13
583.86	3803.37
584.02	3740.18
584.18	3789.33
584.34	3634.85
584.50	3714.43
584.66	3630.17
584.82	3503.78
584.98	3517.83
585.14	3599.74
585.30	3426.54
585.46	3405.48
585.62	3311.86
585.78	3337.60
585.94	3431.23
586.10	3379.73
586.26	3534.21
586.42	4119.34
586.58	4657.67
586.74	5764.74
586.90	7052.03
587.06	7868.88
587.22	7426.52
587.38	6682.23
587.54	5930.92
587.70	4973.64
587.86	4266.80
588.02	3578.68
588.18	3307.18
588.34	2871.84
588.49	2703.32
588.65	2504.37
588.81	2314.79
588.97	2265.64
589.13	2293.72
589.29	2246.91
589.45	2094.78
589.61	2321.81
589.77	2223.51
589.93	2289.04
590.08	2235.21
590.24	2382.67
590.40	2553.52
590.56	2541.82
590.72	2520.76
590.88	2560.55
591.04	2871.84
591.20	2867.16
591.35	2937.37
591.51	3087.17
591.67	3171.43
591.83	3290.79
591.99	3632.51
592.15	4053.81
592.31	4173.18
592.46	4709.16
592.62	5111.73
592.78	5313.02
592.94	5636.01
593.10	5551.75
593.26	5256.84
593.41	4882.36
593.57	4290.20
593.73	3857.20
593.89	3365.69
594.05	3028.65
594.20	2644.81
594.36	2485.65
594.52	2335.85
594.68	2209.47
594.84	2260.96
594.99	2190.74
595.15	2054.99
595.31	2097.12
595.47	2087.76
595.62	2003.50
595.78	1996.48
595.94	2050.31
596.10	2045.63
596.25	1975.41
596.41	2026.90
596.57	2019.88
596.73	2012.86
596.88	1895.83
597.04	2015.20
597.20	1977.75
597.36	2080.74
597.51	2076.06
597.67	2244.57
597.83	2165.00
597.99	2401.39
598.14	2504.37
598.30	2637.78
598.46	2803.96
598.61	2855.45
598.77	3042.70
598.93	3103.55
599.09	3145.68
599.24	3325.90
599.40	3332.92
599.56	3281.43
599.71	3138.66
599.87	3014.61
600.03	2661.19
600.18	2532.46
600.34	2406.07
600.50	2267.98
600.65	2113.50
600.81	2003.50
600.97	1893.49
601.12	1792.85
601.28	1671.14
601.44	1650.08
601.59	1682.85
601.75	1586.88
601.91	1479.22
602.06	1418.36
602.22	1406.66
602.37	1413.68
602.53	1397.30
602.69	1409.00
602.84	1378.58
603.00	1299.00
603.16	1371.55
603.31	1376.24
603.47	1411.34
603.62	1366.87
603.78	1488.58
603.94	1479.22
604.09	1441.77
604.25	1528.37
604.40	1455.81
604.56	1509.65
604.71	1570.50
604.87	1490.92
605.03	1645.40
605.18	1643.06
605.34	1678.16
605.49	1657.10
605.65	1741.36
605.80	1860.73
605.96	1893.49
606.12	1975.41
606.27	1956.69
606.43	2146.27
606.58	2242.23
606.74	2270.32
606.89	2340.54
607.05	2537.14
607.20	2583.95
607.36	2829.71
607.51	2888.22
607.67	3028.65
607.82	3349.31
607.98	3637.19
608.13	3861.88
608.29	4044.45
608.44	4617.88
608.60	4910.44
608.75	5378.55
608.91	5893.47
609.06	6209.44
609.22	6970.12
609.37	7632.49
609.53	8557.00
609.68	9446.40
609.84	11194.78
609.99	12828.48
610.15	15323.49
610.30	19232.18
610.46	24383.70
610.61	31189.98
610.76	40315.73
610.92	48083.97
611.07	52055.85
611.23	53015.47
611.38	50798.99
611.54	45841.73
611.69	39887.41
611.84	33516.47
612.00	28063.02
612.15	23262.58
612.31	20439.90
612.46	18120.43
612.62	17074.21
612.77	16027.99
612.92	15145.61
613.08	14265.57
613.23	13537.66
613.39	12978.27
613.54	12521.87
613.69	12219.94
613.85	12177.81
614.00	12154.40
614.15	11873.54
614.31	11850.13
614.46	11606.72
614.62	11117.54
614.77	10654.12
614.92	10073.67
615.08	9184.26
615.23	8587.43
615.38	7691.00
615.54	7166.72
615.69	6560.52
615.84	5966.03
616.00	5535.37
616.15	5020.45
616.30	4896.40
616.46	4517.23
616.61	4348.72
616.76	4318.29
616.92	4109.98
617.07	3735.50
617.22	3506.12
617.37	3314.20
617.53	3204.19
617.68	3098.87
617.83	2920.99
617.99	2876.52
618.14	2789.92
618.29	2785.24
618.45	2750.13
618.60	2689.28
618.75	2555.86
618.90	2581.61
619.06	2478.63
619.21	2534.80
619.36	2633.10
619.51	2569.91
619.67	2513.74
619.82	2581.61
619.97	2700.98
620.12	2647.15
620.28	2722.04
620.43	2822.69
620.58	2782.90
620.73	2801.62
620.89	2740.77
621.04	2799.28
621.19	2726.72
621.34	2654.17
621.49	2675.23
621.65	2654.17
621.80	2649.49
621.95	2626.08
622.10	2766.51
622.25	2658.85
622.41	2733.75
622.56	2883.54
622.71	2979.50
622.86	2848.43
623.01	2953.76
623.16	2920.99
623.32	2855.45
623.47	2974.82
623.62	3007.59
623.77	2953.76
623.92	3030.99
624.07	2878.86
624.23	3054.40
624.38	3045.04
624.53	2979.50
624.68	2984.18
624.83	2984.18
624.98	3068.44
625.13	2979.50
625.29	2979.50
625.44	3030.99
625.59	3164.40
625.74	2946.73
625.89	3105.89
626.04	3131.64
626.19	3061.42
626.34	3094.19
626.49	3152.70
626.65	3068.44
626.80	3009.93
626.95	2867.16
627.10	2892.90
627.25	2892.90
627.40	2864.82
627.55	2818.00
627.70	2661.19
627.85	2700.98
628.00	2766.51
628.15	2719.70
628.30	2642.46
628.45	2633.10
628.60	2754.81
628.76	2689.28
628.91	2663.53
629.06	2696.30
629.21	2677.57
629.36	2775.88
629.51	2846.09
629.66	3098.87
629.81	3225.26
629.96	3669.96
630.11	4088.92
630.26	4404.89
630.41	5132.79
630.56	5371.53
630.71	5633.67
630.86	6052.63
631.01	5734.31
631.16	5305.99
631.31	4734.90
631.46	4093.60
631.61	3365.69
631.76	3082.49
631.91	2473.95
632.06	2155.63
632.21	1806.89
632.36	1717.95
632.51	1490.92
632.66	1362.19
632.81	1172.61
632.96	1245.16
633.10	1121.12
633.25	1095.37
633.40	985.37
633.55	1020.47
633.70	926.85
633.85	908.13
634.00	926.85
634.15	837.91
634.30	898.77
634.45	954.94
634.60	877.70
634.75	889.40
634.90	828.55
635.05	809.83
635.19	809.83
635.34	800.46
635.49	751.31
635.64	711.52
635.79	826.21
635.94	746.63
636.09	746.63
636.24	660.03
636.39	716.20
636.53	713.86
636.68	634.29
636.83	699.82
636.98	699.82
637.13	636.63
637.28	718.54
637.43	664.71
637.57	669.39
637.72	664.71
637.87	645.99
638.02	575.77
638.17	552.37
638.32	690.46
638.46	524.28
638.61	650.67
638.76	580.45
638.91	617.90
639.06	559.39
639.20	557.05
639.35	589.82
639.50	561.73
639.65	664.71
639.80	543.00
639.94	564.07
640.09	592.16
640.24	617.90
640.39	561.73
640.54	568.75
640.68	507.90
640.83	498.53
640.98	526.62
641.13	552.37
641.27	550.03
641.42	545.34
641.57	524.28
641.72	550.03
641.86	606.20
642.01	486.83
642.16	634.29
642.31	545.34
642.45	587.47
642.60	486.83
642.75	533.64
642.90	568.75
643.04	559.39
643.19	547.69
643.34	543.00
643.48	531.30
643.63	589.82
643.78	636.63
643.93	543.00
644.07	564.07
644.22	606.20
644.37	533.64
644.51	571.09
644.66	521.94
644.81	540.66
644.95	554.71
645.10	571.09
645.25	517.26
645.39	585.13
645.54	477.47
645.69	596.84
645.83	531.30
645.98	564.07
646.13	517.26
646.27	561.73
646.42	505.56
646.57	489.17
646.71	463.43
646.86	425.98
647.00	543.00
647.15	535.98
647.30	491.51
647.44	489.17
647.59	519.60
647.74	507.90
647.88	512.58
648.03	498.53
648.17	589.82
648.32	568.75
648.47	587.47
648.61	557.05
648.76	582.79
648.90	533.64
649.05	603.86
649.20	578.11
649.34	688.12
649.49	699.82
649.63	767.70
649.78	1027.50
649.92	1263.89
650.07	1479.22
650.21	1568.16
650.36	1638.38
650.51	1607.95
650.65	1530.71
650.80	1385.60
650.94	1317.72
651.09	1139.84
651.23	1022.81
651.38	912.81
651.52	758.33
651.67	718.54
651.81	706.84
651.96	725.57
652.10	734.93
652.25	695.14
652.39	629.60
652.54	669.39
652.68	807.48
652.83	896.43
652.97	814.51
653.12	856.64
653.26	873.02
653.41	823.87
653.55	744.29
653.70	667.05
653.84	620.24
653.99	578.11
654.13	524.28
654.27	580.45
654.42	568.75
654.56	454.06
654.71	571.09
654.85	510.24
655.00	540.66
655.14	458.74
655.29	447.04
655.43	517.26
655.57	521.94
655.72	433.00
655.86	500.87
656.01	447.04
656.15	482.15
656.30	557.05
656.44	505.56
656.58	360.44
656.73	447.04
656.87	505.56
657.01	538.32
657.16	594.50
657.30	608.54
657.45	660.03
657.59	603.86
657.73	608.54
657.88	517.26
658.02	664.71
658.16	568.75
658.31	458.74
658.45	423.64
658.60	447.04
658.74	550.03
658.88	407.25
659.03	390.87
659.17	454.06
659.31	383.85
659.46	454.06
659.60	358.10
659.74	440.02
659.89	421.30
660.03	414.27
660.17	484.49
660.32	374.49
660.46	348.74
660.60	351.08
660.74	395.55
660.89	404.91
661.03	418.96
661.17	477.47
661.32	477.47
661.46	564.07
661.60	580.45
661.74	748.97
661.89	741.95
662.03	964.30
662.17	950.26
662.31	1071.97
662.46	1013.45
662.60	851.96
662.74	781.74
662.88	669.39
663.03	631.94
663.17	613.22
663.31	617.90
663.45	601.52
663.60	580.45
663.74	566.41
663.88	472.79
664.02	468.11
664.17	454.06
664.31	367.46
664.45	388.53
664.59	381.51
664.73	304.27
664.88	404.91
665.02	400.23
665.16	447.04
665.30	404.91
665.44	428.32
665.59	437.68
665.73	456.40
665.87	344.06
666.01	360.44
666.15	425.98
666.29	400.23
666.44	362.78
666.58	388.53
666.72	351.08
666.86	416.62
667.00	465.77
667.14	369.80
667.28	334.70
667.43	374.49
667.57	376.83
667.71	353.42
667.85	407.25
667.99	376.83
668.13	351.08
668.27	273.84
668.41	334.70
668.56	374.49
668.70	440.02
668.84	390.87
668.98	404.91
669.12	379.17
669.26	304.27
669.40	423.64
669.54	339.38
669.68	468.11
669.82	369.80
669.96	353.42
670.10	315.97
670.25	383.85
670.39	325.33
670.53	322.99
670.67	365.12
670.81	325.33
670.95	353.42
671.09	423.64
671.23	386.19
671.37	372.15
671.51	360.44
671.65	266.82
671.79	318.31
671.93	376.83
672.07	290.23
672.21	266.82
672.35	346.40
672.49	304.27
672.63	421.30
672.77	311.29
672.91	383.85
673.05	320.65
673.19	355.76
673.33	264.48
673.47	320.65
673.61	269.16
673.75	234.05
673.89	283.20
674.03	400.23
674.17	332.36
674.31	276.18
674.45	313.63
674.59	264.48
674.73	332.36
674.87	299.59
675.01	266.82
675.15	341.72
675.29	280.86
675.43	287.89
675.56	306.61
675.70	292.57
675.84	301.93
675.98	287.89
676.12	353.42
676.26	301.93
676.40	276.18
676.54	294.91
676.68	257.46
676.82	297.25
676.96	360.44
677.10	315.97
677.23	222.35
677.37	271.50
677.51	236.39
677.65	285.55
677.79	273.84
677.93	280.86
678.07	250.44
678.21	339.38
678.34	269.16
678.48	238.73
678.62	229.37
678.76	313.63
678.90	245.76
679.04	306.61
679.18	271.50
679.31	325.33
679.45	198.95
679.59	299.59
679.73	262.14
679.87	248.10
680.00	334.70
680.14	304.27
680.28	278.52
680.42	346.40
680.56	404.91
680.70	259.80
680.83	301.93
680.97	315.97
681.11	205.97
681.25	372.15
681.39	372.15
681.52	369.80
681.66	294.91
681.80	337.04
681.94	224.69
682.07	271.50
682.21	292.57
682.35	201.29
682.49	170.86
682.62	231.71
682.76	306.61
682.90	248.10
683.04	273.84
683.17	320.65
683.31	304.27
683.45	318.31
683.59	285.55
683.72	264.48
683.86	383.85
684.00	252.78
684.13	280.86
684.27	262.14
684.41	245.76
684.55	280.86
684.68	241.08
684.82	344.06
684.96	241.08
685.09	252.78
685.23	266.82
685.37	299.59
685.50	346.40
685.64	264.48
685.78	294.91
685.91	341.72
686.05	393.21
686.19	306.61
686.32	351.08
686.46	414.27
686.60	365.12
686.73	477.47
686.87	472.79
687.01	451.72
687.14	447.04
687.28	507.90
687.42	540.66
687.55	620.24
687.69	662.37
687.82	596.84
687.96	568.75
688.10	573.43
688.23	519.60
688.37	589.82
688.50	402.57
688.64	388.53
688.78	341.72
688.91	416.62
689.05	334.70
689.18	315.97
689.32	341.72
689.46	339.38
689.59	259.80
689.73	222.35
689.86	269.16
690.00	215.33
690.13	161.50
690.27	196.60
690.41	325.33
690.54	259.80
690.68	297.25
690.81	320.65
690.95	241.08
691.08	287.89
691.22	201.29
691.35	168.52
691.49	210.65
691.62	198.95
691.76	210.65
691.89	238.73
692.03	250.44
692.16	231.71
692.30	271.50
692.43	196.60
692.57	201.29
692.70	182.56
692.84	203.63
692.97	217.67
693.11	196.60
693.24	362.78
693.38	402.57
693.51	512.58
693.65	500.87
693.78	423.64
693.92	458.74
694.05	365.12
694.19	390.87
694.32	339.38
694.45	320.65
694.59	203.63
694.72	198.95
694.86	264.48
694.99	191.92
695.13	252.78
695.26	203.63
695.39	259.80
695.53	248.10
695.66	227.03
695.80	173.20
695.93	105.32
696.07	119.37
696.20	224.69
696.33	194.26
696.47	210.65
696.60	229.37
696.73	231.71
696.87	163.84
697.00	229.37
697.14	187.24
697.27	173.20
697.40	210.65
697.54	161.50
697.67	184.90
697.80	229.37
697.94	166.18
698.07	161.50
698.21	208.31
698.34	227.03
698.47	128.73
698.61	88.94
698.74	187.24
698.87	131.07
699.01	145.11
699.14	105.32
699.27	175.54
699.40	271.50
699.54	154.48
699.67	166.18
699.80	147.45
699.94	140.43
700.07	191.92
700.20	182.56
700.34	227.03
700.47	114.69
700.60	156.82
700.73	184.90
700.87	215.33
701.00	149.79
701.13	177.88
701.26	170.86
701.40	201.29
701.53	198.95
701.66	149.79
701.79	166.18
701.93	266.82
702.06	196.60
702.19	245.76
702.32	180.22
702.46	196.60
702.59	156.82
702.72	154.48
702.85	177.88
702.99	140.43
703.12	222.35
703.25	212.99
703.38	180.22
703.51	212.99
703.65	191.92
703.78	248.10
703.91	234.05
704.04	318.31
704.17	250.44
704.31	227.03
704.44	215.33
704.57	266.82
704.70	269.16
704.83	301.93
704.96	210.65
705.10	264.48
705.23	294.91
>>>>>End Processed Spectral Data<<<<<
