SpectraSuite Data File
++++++++++++++++++++++++++++++++++++
Date: Fri Oct 04 11:42:00 GMT-05:00 2013
User: price-jones
Dark Spectrum Present: No
Reference Spectrum Present: No
Number of Sampled Component Spectra: 1
Spectrometers: USB2+H05261
Integration Time (usec): 100000 (USB2+H05261)
Spectra Averaged: 1 (USB2+H05261)
Boxcar Smoothing: 0 (USB2+H05261)
Correct for Electrical Dark: No (USB2+H05261)
Strobe/Lamp Enabled: No (USB2+H05261)
Correct for Detector Non-linearity: No (USB2+H05261)
Correct for Stray Light: No (USB2+H05261)
Number of Pixels in Processed Spectrum: 2048
>>>>>Begin Processed Spectral Data<<<<<
365.73	0.00
365.92	0.00
366.12	0.00
366.32	0.00
366.52	0.00
366.72	0.00
366.91	0.00
367.11	0.00
367.31	0.00
367.51	0.00
367.70	0.00
367.90	0.00
368.10	0.00
368.30	0.00
368.49	4.68
368.69	0.00
368.89	0.00
369.09	14.04
369.28	0.00
369.48	0.00
369.68	0.00
369.87	0.00
370.07	0.00
370.27	21.06
370.47	86.60
370.66	42.13
370.86	70.22
371.06	58.51
371.25	60.85
371.45	2.34
371.65	81.92
371.84	67.88
372.04	14.04
372.24	65.54
372.44	105.32
372.63	180.22
372.83	121.71
373.03	77.24
373.22	58.51
373.42	60.85
373.62	74.90
373.81	121.71
374.01	81.92
374.21	70.22
374.40	63.19
374.60	72.56
374.79	147.45
374.99	189.58
375.19	84.26
375.38	14.04
375.58	86.60
375.78	161.50
375.97	168.52
376.17	110.01
376.37	124.05
376.56	100.64
376.76	105.32
376.95	98.30
377.15	147.45
377.35	110.01
377.54	77.24
377.74	128.73
377.93	56.17
378.13	124.05
378.33	105.32
378.52	100.64
378.72	119.37
378.91	140.43
379.11	124.05
379.31	121.71
379.50	128.73
379.70	128.73
379.89	166.18
380.09	152.13
380.28	135.75
380.48	135.75
380.68	91.28
380.87	107.66
381.07	84.26
381.26	138.09
381.46	121.71
381.65	81.92
381.85	184.90
382.04	98.30
382.24	194.26
382.43	98.30
382.63	121.71
382.83	147.45
383.02	67.88
383.22	107.66
383.41	152.13
383.61	131.07
383.80	56.17
384.00	126.39
384.19	100.64
384.39	105.32
384.58	135.75
384.78	152.13
384.97	95.96
385.17	98.30
385.36	107.66
385.56	131.07
385.75	84.26
385.95	152.13
386.14	142.77
386.34	70.22
386.53	72.56
386.72	42.13
386.92	107.66
387.11	74.90
387.31	133.41
387.50	135.75
387.70	98.30
387.89	98.30
388.09	152.13
388.28	105.32
388.48	117.03
388.67	135.75
388.86	133.41
389.06	91.28
389.25	131.07
389.45	147.45
389.64	105.32
389.84	138.09
390.03	180.22
390.22	63.19
390.42	88.94
390.61	131.07
390.81	84.26
391.00	58.51
391.19	112.35
391.39	131.07
391.58	95.96
391.78	72.56
391.97	177.88
392.16	114.69
392.36	170.86
392.55	112.35
392.75	163.84
392.94	161.50
393.13	112.35
393.33	77.24
393.52	142.77
393.71	147.45
393.91	210.65
394.10	124.05
394.29	152.13
394.49	107.66
394.68	105.32
394.88	107.66
395.07	241.08
395.26	131.07
395.46	98.30
395.65	147.45
395.84	140.43
396.04	147.45
396.23	121.71
396.42	114.69
396.62	126.39
396.81	145.11
397.00	126.39
397.19	105.32
397.39	117.03
397.58	133.41
397.77	112.35
397.97	138.09
398.16	51.49
398.35	138.09
398.55	110.01
398.74	117.03
398.93	119.37
399.12	119.37
399.32	182.56
399.51	140.43
399.70	128.73
399.90	180.22
400.09	133.41
400.28	65.54
400.47	84.26
400.67	142.77
400.86	163.84
401.05	149.79
401.24	152.13
401.44	149.79
401.63	135.75
401.82	117.03
402.01	114.69
402.21	126.39
402.40	149.79
402.59	95.96
402.78	84.26
402.97	56.17
403.17	91.28
403.36	166.18
403.55	126.39
403.74	245.76
403.93	662.37
404.13	968.98
404.32	1097.71
404.51	910.47
404.70	543.00
404.89	245.76
405.09	215.33
405.28	224.69
405.47	98.30
405.66	189.58
405.85	131.07
406.05	117.03
406.24	145.11
406.43	147.45
406.62	180.22
406.81	187.24
407.00	189.58
407.20	290.23
407.39	311.29
407.58	243.42
407.77	280.86
407.96	220.01
408.15	189.58
408.34	168.52
408.54	161.50
408.73	133.41
408.92	154.48
409.11	79.58
409.30	117.03
409.49	79.58
409.68	86.60
409.87	147.45
410.07	147.45
410.26	117.03
410.45	105.32
410.64	142.77
410.83	163.84
411.02	126.39
411.21	187.24
411.40	264.48
411.59	128.73
411.78	131.07
411.98	112.35
412.17	135.75
412.36	161.50
412.55	88.94
412.74	145.11
412.93	203.63
413.12	187.24
413.31	173.20
413.50	154.48
413.69	128.73
413.88	210.65
414.07	142.77
414.26	166.18
414.45	86.60
414.64	131.07
414.83	163.84
415.02	168.52
415.22	191.92
415.41	201.29
415.60	173.20
415.79	124.05
415.98	156.82
416.17	154.48
416.36	138.09
416.55	152.13
416.74	180.22
416.93	252.78
417.12	147.45
417.31	133.41
417.50	145.11
417.69	196.60
417.88	117.03
418.07	159.16
418.26	159.16
418.45	173.20
418.64	222.35
418.83	161.50
419.02	121.71
419.21	203.63
419.39	124.05
419.58	107.66
419.77	100.64
419.96	121.71
420.15	163.84
420.34	191.92
420.53	177.88
420.72	175.54
420.91	117.03
421.10	147.45
421.29	189.58
421.48	131.07
421.67	191.92
421.86	91.28
422.05	117.03
422.24	102.98
422.43	145.11
422.61	173.20
422.80	191.92
422.99	248.10
423.18	163.84
423.37	117.03
423.56	191.92
423.75	159.16
423.94	124.05
424.13	163.84
424.32	128.73
424.50	208.31
424.69	159.16
424.88	182.56
425.07	194.26
425.26	175.54
425.45	102.98
425.64	166.18
425.83	112.35
426.01	184.90
426.20	131.07
426.39	170.86
426.58	140.43
426.77	170.86
426.96	117.03
427.15	194.26
427.33	86.60
427.52	133.41
427.71	142.77
427.90	126.39
428.09	135.75
428.28	173.20
428.46	147.45
428.65	255.12
428.84	145.11
429.03	91.28
429.22	126.39
429.40	184.90
429.59	142.77
429.78	126.39
429.97	173.20
430.16	159.16
430.34	107.66
430.53	184.90
430.72	259.80
430.91	196.60
431.10	145.11
431.28	126.39
431.47	250.44
431.66	205.97
431.85	128.73
432.03	187.24
432.22	208.31
432.41	147.45
432.60	170.86
432.79	152.13
432.97	236.39
433.16	166.18
433.35	152.13
433.54	217.67
433.72	220.01
433.91	273.84
434.10	271.50
434.28	273.84
434.47	241.08
434.66	217.67
434.85	322.99
435.03	999.41
435.22	2787.58
435.41	4395.53
435.59	4028.06
435.78	2548.84
435.97	1387.94
436.16	608.54
436.34	297.25
436.53	212.99
436.72	220.01
436.90	184.90
437.09	191.92
437.28	152.13
437.46	196.60
437.65	241.08
437.84	187.24
438.02	215.33
438.21	205.97
438.40	142.77
438.58	159.16
438.77	194.26
438.96	173.20
439.14	145.11
439.33	220.01
439.52	177.88
439.70	222.35
439.89	273.84
440.08	196.60
440.26	177.88
440.45	217.67
440.63	231.71
440.82	198.95
441.01	187.24
441.19	187.24
441.38	205.97
441.57	203.63
441.75	201.29
441.94	248.10
442.12	320.65
442.31	203.63
442.50	95.96
442.68	168.52
442.87	203.63
443.05	224.69
443.24	159.16
443.43	142.77
443.61	215.33
443.80	173.20
443.98	189.58
444.17	177.88
444.35	236.39
444.54	159.16
444.73	173.20
444.91	222.35
445.10	222.35
445.28	245.76
445.47	290.23
445.65	191.92
445.84	194.26
446.02	170.86
446.21	205.97
446.39	248.10
446.58	266.82
446.77	191.92
446.95	212.99
447.14	224.69
447.32	187.24
447.51	238.73
447.69	217.67
447.88	259.80
448.06	163.84
448.25	154.48
448.43	210.65
448.62	201.29
448.80	184.90
448.99	203.63
449.17	203.63
449.36	147.45
449.54	238.73
449.73	175.54
449.91	227.03
450.10	159.16
450.28	156.82
450.46	210.65
450.65	201.29
450.83	222.35
451.02	198.95
451.20	203.63
451.39	140.43
451.57	264.48
451.76	161.50
451.94	203.63
452.13	227.03
452.31	222.35
452.49	163.84
452.68	205.97
452.86	177.88
453.05	208.31
453.23	198.95
453.42	250.44
453.60	159.16
453.78	184.90
453.97	264.48
454.15	220.01
454.34	252.78
454.52	205.97
454.70	266.82
454.89	262.14
455.07	215.33
455.26	222.35
455.44	191.92
455.62	142.77
455.81	145.11
455.99	180.22
456.17	154.48
456.36	245.76
456.54	161.50
456.73	229.37
456.91	175.54
457.09	320.65
457.28	210.65
457.46	198.95
457.64	189.58
457.83	140.43
458.01	227.03
458.19	210.65
458.38	173.20
458.56	187.24
458.74	133.41
458.93	264.48
459.11	196.60
459.29	201.29
459.48	215.33
459.66	227.03
459.84	184.90
460.03	372.15
460.21	198.95
460.39	222.35
460.57	283.20
460.76	182.56
460.94	217.67
461.12	184.90
461.31	252.78
461.49	191.92
461.67	159.16
461.85	220.01
462.04	203.63
462.22	671.73
462.40	271.50
462.59	191.92
462.77	201.29
462.95	283.20
463.13	177.88
463.32	147.45
463.50	227.03
463.68	168.52
463.86	201.29
464.05	245.76
464.23	294.91
464.41	194.26
464.59	269.16
464.78	234.05
464.96	234.05
465.14	266.82
465.32	187.24
465.50	222.35
465.69	220.01
465.87	145.11
466.05	220.01
466.23	234.05
466.41	220.01
466.60	236.39
466.78	243.42
466.96	266.82
467.14	276.18
467.32	220.01
467.51	180.22
467.69	154.48
467.87	201.29
468.05	217.67
468.23	308.95
468.41	271.50
468.60	88.94
468.78	119.37
468.96	208.31
469.14	241.08
469.32	147.45
469.50	159.16
469.69	217.67
469.87	191.92
470.05	245.76
470.23	276.18
470.41	210.65
470.59	215.33
470.77	252.78
470.95	203.63
471.14	243.42
471.32	156.82
471.50	135.75
471.68	187.24
471.86	182.56
472.04	154.48
472.22	182.56
472.40	128.73
472.58	243.42
472.77	156.82
472.95	170.86
473.13	212.99
473.31	327.68
473.49	220.01
473.67	124.05
473.85	217.67
474.03	201.29
474.21	131.07
474.39	346.40
474.57	243.42
474.75	128.73
474.93	191.92
475.12	205.97
475.30	168.52
475.48	215.33
475.66	220.01
475.84	201.29
476.02	149.79
476.20	189.58
476.38	278.52
476.56	245.76
476.74	147.45
476.92	170.86
477.10	255.12
477.28	222.35
477.46	149.79
477.64	159.16
477.82	210.65
478.00	187.24
478.18	212.99
478.36	212.99
478.54	201.29
478.72	222.35
478.90	215.33
479.08	245.76
479.26	224.69
479.44	168.52
479.62	306.61
479.80	229.37
479.98	163.84
480.16	189.58
480.34	299.59
480.52	259.80
480.70	315.97
480.88	257.46
481.06	215.33
481.24	187.24
481.41	334.70
481.59	311.29
481.77	341.72
481.95	252.78
482.13	346.40
482.31	308.95
482.49	294.91
482.67	278.52
482.85	332.36
483.03	367.46
483.21	360.44
483.39	435.34
483.57	416.62
483.74	374.49
483.92	411.93
484.10	470.45
484.28	535.98
484.46	519.60
484.64	451.72
484.82	444.70
485.00	514.92
485.18	552.37
485.35	561.73
485.53	557.05
485.71	613.22
485.89	545.34
486.07	564.07
486.25	674.07
486.43	610.88
486.61	638.97
486.78	613.22
486.96	627.26
487.14	620.24
487.32	517.26
487.50	596.84
487.68	685.78
487.85	543.00
488.03	601.52
488.21	664.71
488.39	484.49
488.57	437.68
488.75	566.41
488.92	807.48
489.10	547.69
489.28	545.34
489.46	468.11
489.64	468.11
489.81	550.03
489.99	440.02
490.17	514.92
490.35	543.00
490.53	496.19
490.70	540.66
490.88	564.07
491.06	550.03
491.24	517.26
491.41	631.94
491.59	517.26
491.77	423.64
491.95	386.19
492.13	376.83
492.30	447.04
492.48	521.94
492.66	418.96
492.84	496.19
493.01	514.92
493.19	447.04
493.37	535.98
493.54	421.30
493.72	390.87
493.90	465.77
494.08	381.51
494.25	486.83
494.43	395.55
494.61	388.53
494.79	379.17
494.96	292.57
495.14	430.66
495.32	367.46
495.49	416.62
495.67	423.64
495.85	372.15
496.02	372.15
496.20	416.62
496.38	341.72
496.55	414.27
496.73	425.98
496.91	374.49
497.09	407.25
497.26	421.30
497.44	358.10
497.62	367.46
497.79	416.62
497.97	400.23
498.14	339.38
498.32	414.27
498.50	423.64
498.67	285.55
498.85	360.44
499.03	362.78
499.20	381.51
499.38	308.95
499.56	397.89
499.73	444.70
499.91	365.12
500.08	337.04
500.26	318.31
500.44	283.20
500.61	360.44
500.79	315.97
500.97	353.42
501.14	287.89
501.32	353.42
501.49	294.91
501.67	262.14
501.84	238.73
502.02	308.95
502.20	315.97
502.37	287.89
502.55	287.89
502.72	276.18
502.90	276.18
503.07	297.25
503.25	292.57
503.43	241.08
503.60	252.78
503.78	264.48
503.95	355.76
504.13	224.69
504.30	337.04
504.48	299.59
504.65	313.63
504.83	330.02
505.01	259.80
505.18	299.59
505.36	241.08
505.53	231.71
505.71	280.86
505.88	339.38
506.06	301.93
506.23	259.80
506.41	252.78
506.58	212.99
506.76	217.67
506.93	231.71
507.11	248.10
507.28	264.48
507.46	212.99
507.63	341.72
507.81	294.91
507.98	269.16
508.16	220.01
508.33	255.12
508.50	299.59
508.68	248.10
508.85	318.31
509.03	276.18
509.20	271.50
509.38	278.52
509.55	227.03
509.73	271.50
509.90	266.82
510.08	259.80
510.25	208.31
510.42	180.22
510.60	184.90
510.77	252.78
510.95	287.89
511.12	212.99
511.30	241.08
511.47	255.12
511.64	238.73
511.82	269.16
511.99	248.10
512.17	294.91
512.34	308.95
512.51	271.50
512.69	222.35
512.86	238.73
513.04	222.35
513.21	273.84
513.38	271.50
513.56	290.23
513.73	222.35
513.90	222.35
514.08	220.01
514.25	189.58
514.43	278.52
514.60	236.39
514.77	234.05
514.95	318.31
515.12	252.78
515.29	266.82
515.47	250.44
515.64	273.84
515.81	215.33
515.99	241.08
516.16	222.35
516.33	287.89
516.51	220.01
516.68	191.92
516.85	257.46
517.03	257.46
517.20	292.57
517.37	222.35
517.54	313.63
517.72	259.80
517.89	287.89
518.06	245.76
518.24	308.95
518.41	299.59
518.58	255.12
518.75	297.25
518.93	271.50
519.10	248.10
519.27	276.18
519.45	243.42
519.62	234.05
519.79	234.05
519.96	229.37
520.14	262.14
520.31	264.48
520.48	196.60
520.65	292.57
520.83	224.69
521.00	301.93
521.17	227.03
521.34	273.84
521.52	266.82
521.69	299.59
521.86	217.67
522.03	273.84
522.20	339.38
522.38	245.76
522.55	266.82
522.72	234.05
522.89	266.82
523.07	311.29
523.24	330.02
523.41	222.35
523.58	245.76
523.75	325.33
523.92	290.23
524.10	210.65
524.27	177.88
524.44	210.65
524.61	252.78
524.78	327.68
524.96	276.18
525.13	259.80
525.30	273.84
525.47	304.27
525.64	255.12
525.81	280.86
525.98	283.20
526.16	250.44
526.33	257.46
526.50	308.95
526.67	294.91
526.84	259.80
527.01	269.16
527.18	248.10
527.36	264.48
527.53	273.84
527.70	297.25
527.87	294.91
528.04	311.29
528.21	252.78
528.38	327.68
528.55	315.97
528.72	334.70
528.89	355.76
529.07	308.95
529.24	201.29
529.41	315.97
529.58	348.74
529.75	308.95
529.92	278.52
530.09	287.89
530.26	276.18
530.43	348.74
530.60	351.08
530.77	355.76
530.94	332.36
531.11	271.50
531.28	283.20
531.46	243.42
531.63	273.84
531.80	325.33
531.97	400.23
532.14	362.78
532.31	437.68
532.48	400.23
532.65	430.66
532.82	353.42
532.99	451.72
533.16	496.19
533.33	423.64
533.50	409.59
533.67	351.08
533.84	383.85
534.01	388.53
534.18	428.32
534.35	402.57
534.52	367.46
534.69	458.74
534.86	421.30
535.03	411.93
535.20	512.58
535.37	486.83
535.54	416.62
535.71	339.38
535.88	454.06
536.05	425.98
536.22	418.96
536.38	510.24
536.55	526.62
536.72	531.30
536.89	491.51
537.06	601.52
537.23	674.07
537.40	674.07
537.57	655.35
537.74	664.71
537.91	772.38
538.08	826.21
538.25	814.51
538.42	678.76
538.59	755.99
538.75	772.38
538.92	922.17
539.09	938.55
539.26	1114.10
539.43	1139.84
539.60	1203.04
539.77	1327.08
539.94	1439.43
540.11	1390.28
540.28	1675.82
540.44	1783.49
540.61	1921.58
540.78	2263.30
540.95	2602.68
541.12	3145.68
541.29	3332.92
541.46	3548.25
541.62	3398.46
541.79	3243.98
541.96	3098.87
542.13	2979.50
542.30	2839.07
542.47	2759.49
542.63	2525.44
542.80	2506.71
542.97	2483.31
543.14	2520.76
543.31	2504.37
543.48	2509.05
543.64	2525.44
543.81	2609.70
543.98	2483.31
544.15	2478.63
544.32	2490.33
544.48	2546.50
544.65	2588.63
544.82	2572.25
544.99	2490.33
545.16	2441.18
545.32	2775.88
545.49	5345.78
545.66	7707.38
545.83	8552.32
546.00	7133.95
546.16	5184.29
546.33	3854.86
546.50	2874.18
546.67	2396.71
546.83	2169.68
547.00	1954.35
547.17	1919.24
547.34	1966.05
547.50	1895.83
547.67	1837.32
547.84	1687.53
548.00	1701.57
548.17	1582.20
548.34	1614.97
548.51	1549.43
548.67	1509.65
548.84	1451.13
549.01	1406.66
549.18	1296.66
549.34	1301.34
549.51	1294.32
549.68	1245.16
549.84	1188.99
550.01	1142.18
550.18	1193.67
550.34	1107.07
550.51	908.13
550.68	1020.47
550.84	894.08
551.01	894.08
551.18	788.76
551.34	943.24
551.51	863.66
551.68	807.48
551.84	725.57
552.01	699.82
552.18	770.04
552.34	786.42
552.51	723.23
552.68	692.80
552.84	695.14
553.01	638.97
553.18	723.23
553.34	664.71
553.51	596.84
553.67	554.71
553.84	594.50
554.01	627.26
554.17	538.32
554.34	484.49
554.51	538.32
554.67	540.66
554.84	498.53
555.00	512.58
555.17	442.36
555.33	482.15
555.50	425.98
555.67	484.49
555.83	454.06
556.00	365.12
556.16	571.09
556.33	346.40
556.50	386.19
556.66	381.51
556.83	327.68
556.99	458.74
557.16	358.10
557.32	374.49
557.49	313.63
557.65	292.57
557.82	320.65
557.98	322.99
558.15	294.91
558.32	273.84
558.48	311.29
558.65	301.93
558.81	369.80
558.98	252.78
559.14	306.61
559.31	322.99
559.47	374.49
559.64	322.99
559.80	322.99
559.97	250.44
560.13	290.23
560.30	278.52
560.46	369.80
560.63	325.33
560.79	362.78
560.96	346.40
561.12	320.65
561.29	271.50
561.45	294.91
561.61	220.01
561.78	362.78
561.94	362.78
562.11	320.65
562.27	381.51
562.44	390.87
562.60	313.63
562.77	257.46
562.93	344.06
563.10	330.02
563.26	325.33
563.42	308.95
563.59	315.97
563.75	241.08
563.92	322.99
564.08	234.05
564.24	341.72
564.41	341.72
564.57	325.33
564.74	395.55
564.90	290.23
565.07	304.27
565.23	255.12
565.39	304.27
565.56	308.95
565.72	379.17
565.88	259.80
566.05	234.05
566.21	346.40
566.38	299.59
566.54	259.80
566.70	346.40
566.87	318.31
567.03	262.14
567.19	271.50
567.36	245.76
567.52	262.14
567.68	252.78
567.85	297.25
568.01	337.04
568.17	297.25
568.34	285.55
568.50	290.23
568.66	294.91
568.83	353.42
568.99	262.14
569.15	278.52
569.32	330.02
569.48	250.44
569.64	283.20
569.81	252.78
569.97	243.42
570.13	278.52
570.30	285.55
570.46	318.31
570.62	290.23
570.78	203.63
570.95	208.31
571.11	301.93
571.27	292.57
571.43	234.05
571.60	306.61
571.76	287.89
571.92	330.02
572.09	215.33
572.25	210.65
572.41	255.12
572.57	238.73
572.74	201.29
572.90	262.14
573.06	222.35
573.22	252.78
573.38	245.76
573.55	243.42
573.71	231.71
573.87	318.31
574.03	191.92
574.20	215.33
574.36	348.74
574.52	283.20
574.68	220.01
574.84	337.04
575.01	255.12
575.17	330.02
575.33	238.73
575.49	259.80
575.65	334.70
575.82	266.82
575.98	337.04
576.14	327.68
576.30	655.35
576.46	1231.12
576.62	1589.22
576.79	1603.27
576.95	1186.65
577.11	908.13
577.27	629.60
577.43	559.39
577.59	447.04
577.75	416.62
577.92	355.76
578.08	369.80
578.24	344.06
578.40	582.79
578.56	1158.57
578.72	1650.08
578.88	1624.33
579.04	1156.22
579.21	905.79
579.37	664.71
579.53	552.37
579.69	610.88
579.85	833.23
580.01	746.63
580.17	667.05
580.33	634.29
580.49	624.92
580.65	552.37
580.82	592.16
580.98	528.96
581.14	475.13
581.30	573.43
581.46	571.09
581.62	603.86
581.78	629.60
581.94	739.61
582.10	669.39
582.26	674.07
582.42	812.17
582.58	819.19
582.74	706.84
582.90	753.65
583.06	751.31
583.22	802.80
583.38	788.76
583.54	732.59
583.70	849.61
583.86	772.38
584.02	784.08
584.18	823.87
584.34	732.59
584.50	753.65
584.66	678.76
584.82	730.25
584.98	737.27
585.14	620.24
585.30	650.67
585.46	716.20
585.62	643.65
585.78	627.26
585.94	641.31
586.10	716.20
586.26	741.95
586.42	826.21
586.58	854.30
586.74	1064.94
586.90	1256.87
587.06	1252.19
587.22	1273.25
587.38	1088.35
587.54	933.87
587.70	940.90
587.86	793.44
588.02	697.48
588.18	685.78
588.34	592.16
588.49	543.00
588.65	486.83
588.81	505.56
588.97	470.45
589.13	507.90
589.29	526.62
589.45	592.16
589.61	587.47
589.77	484.49
589.93	447.04
590.08	554.71
590.24	573.43
590.40	514.92
590.56	641.31
590.72	571.09
590.88	573.43
591.04	592.16
591.20	559.39
591.35	578.11
591.51	678.76
591.67	653.01
591.83	676.41
591.99	723.23
592.15	774.72
592.31	784.08
592.46	875.36
592.62	933.87
592.78	866.00
592.94	929.19
593.10	980.68
593.26	875.36
593.41	880.04
593.57	741.95
593.73	755.99
593.89	667.05
594.05	543.00
594.20	543.00
594.36	510.24
594.52	496.19
594.68	465.77
594.84	489.17
594.99	510.24
595.15	428.32
595.31	582.79
595.47	559.39
595.62	428.32
595.78	451.72
595.94	482.15
596.10	587.47
596.25	454.06
596.41	454.06
596.57	451.72
596.73	437.68
596.88	472.79
597.04	550.03
597.20	496.19
597.36	592.16
597.51	496.19
597.67	512.58
597.83	512.58
597.99	512.58
598.14	510.24
598.30	552.37
598.46	601.52
598.61	653.01
598.77	645.99
598.93	566.41
599.09	660.03
599.24	641.31
599.40	613.22
599.56	676.41
599.71	636.63
599.87	582.79
600.03	465.77
600.18	589.82
600.34	566.41
600.50	449.38
600.65	472.79
600.81	552.37
600.97	376.83
601.12	393.21
601.28	414.27
601.44	414.27
601.59	449.38
601.75	418.96
601.91	360.44
602.06	409.59
602.22	519.60
602.37	322.99
602.53	337.04
602.69	383.85
602.84	362.78
603.00	341.72
603.16	341.72
603.31	355.76
603.47	400.23
603.62	372.15
603.78	418.96
603.94	376.83
604.09	435.34
604.25	454.06
604.40	423.64
604.56	334.70
604.71	402.57
604.87	416.62
605.03	423.64
605.18	425.98
605.34	425.98
605.49	306.61
605.65	444.70
605.80	383.85
605.96	369.80
606.12	440.02
606.27	493.85
606.43	557.05
606.58	559.39
606.74	512.58
606.89	528.96
607.05	486.83
607.20	543.00
607.36	592.16
607.51	561.73
607.67	543.00
607.82	608.54
607.98	720.88
608.13	706.84
608.29	823.87
608.44	809.83
608.60	854.30
608.75	938.55
608.91	980.68
609.06	1053.24
609.22	1184.31
609.37	1231.12
609.53	1350.49
609.68	1600.93
609.84	1736.68
609.99	1940.30
610.15	2319.47
610.30	2857.79
610.46	3517.83
610.61	4592.13
610.76	5729.63
610.92	6707.98
611.07	7365.67
611.23	7433.54
611.38	6792.23
611.54	5998.79
611.69	5275.57
611.84	4454.04
612.00	3634.85
612.15	3159.72
612.31	2736.09
612.46	2537.14
612.62	2396.71
612.77	2314.79
612.92	2157.97
613.08	2134.57
613.23	2012.86
613.39	1898.17
613.54	1874.77
613.69	1830.30
613.85	1834.98
614.00	1764.76
614.15	1802.21
614.31	1884.13
614.46	1797.53
614.62	1565.82
614.77	1636.03
614.92	1460.49
615.08	1359.85
615.23	1289.64
615.38	1224.10
615.54	1179.63
615.69	994.73
615.84	1015.79
616.00	809.83
616.15	887.06
616.30	873.02
616.46	844.93
616.61	737.27
616.76	751.31
616.92	723.23
617.07	699.82
617.22	587.47
617.37	575.77
617.53	575.77
617.68	543.00
617.83	554.71
617.99	617.90
618.14	636.63
618.29	582.79
618.45	535.98
618.60	524.28
618.75	550.03
618.90	552.37
619.06	531.30
619.21	636.63
619.36	641.31
619.51	573.43
619.67	514.92
619.82	610.88
619.97	559.39
620.12	528.96
620.28	475.13
620.43	489.17
620.58	596.84
620.73	526.62
620.89	580.45
621.04	578.11
621.19	636.63
621.34	566.41
621.49	526.62
621.65	535.98
621.80	503.22
621.95	472.79
622.10	617.90
622.25	528.96
622.41	503.22
622.56	582.79
622.71	559.39
622.86	627.26
623.01	550.03
623.16	561.73
623.32	599.18
623.47	645.99
623.62	599.18
623.77	557.05
623.92	578.11
624.07	573.43
624.23	610.88
624.38	603.86
624.53	564.07
624.68	617.90
624.83	592.16
624.98	592.16
625.13	524.28
625.29	561.73
625.44	617.90
625.59	564.07
625.74	645.99
625.89	561.73
626.04	589.82
626.19	540.66
626.34	561.73
626.49	571.09
626.65	571.09
626.80	540.66
626.95	573.43
627.10	545.34
627.25	493.85
627.40	512.58
627.55	571.09
627.70	561.73
627.85	552.37
628.00	493.85
628.15	510.24
628.30	566.41
628.45	498.53
628.60	477.47
628.76	554.71
628.91	510.24
629.06	585.13
629.21	554.71
629.36	585.13
629.51	587.47
629.66	531.30
629.81	596.84
629.96	702.16
630.11	688.12
630.26	709.18
630.41	791.10
630.56	894.08
630.71	901.11
630.86	1004.09
631.01	835.57
631.16	903.45
631.31	830.89
631.46	711.52
631.61	638.97
631.76	557.05
631.91	554.71
632.06	482.15
632.21	440.02
632.36	360.44
632.51	348.74
632.66	322.99
632.81	311.29
632.96	304.27
633.10	355.76
633.25	379.17
633.40	212.99
633.55	287.89
633.70	304.27
633.85	304.27
634.00	269.16
634.15	234.05
634.30	248.10
634.45	276.18
634.60	229.37
634.75	217.67
634.90	231.71
635.05	276.18
635.19	266.82
635.34	259.80
635.49	318.31
635.64	229.37
635.79	222.35
635.94	257.46
636.09	259.80
636.24	292.57
636.39	264.48
636.53	301.93
636.68	241.08
636.83	266.82
636.98	308.95
637.13	271.50
637.28	238.73
637.43	304.27
637.57	212.99
637.72	255.12
637.87	283.20
638.02	292.57
638.17	276.18
638.32	259.80
638.46	198.95
638.61	292.57
638.76	243.42
638.91	229.37
639.06	304.27
639.20	290.23
639.35	194.26
639.50	161.50
639.65	327.68
639.80	208.31
639.94	248.10
640.09	271.50
640.24	334.70
640.39	301.93
640.54	266.82
640.68	191.92
640.83	292.57
640.98	238.73
641.13	212.99
641.27	278.52
641.42	269.16
641.57	273.84
641.72	266.82
641.86	243.42
642.01	220.01
642.16	278.52
642.31	166.18
642.45	236.39
642.60	210.65
642.75	290.23
642.90	280.86
643.04	269.16
643.19	173.20
643.34	205.97
643.48	273.84
643.63	187.24
643.78	262.14
643.93	285.55
644.07	245.76
644.22	217.67
644.37	257.46
644.51	269.16
644.66	266.82
644.81	166.18
644.95	262.14
645.10	220.01
645.25	241.08
645.39	203.63
645.54	231.71
645.69	175.54
645.83	271.50
645.98	306.61
646.13	210.65
646.27	236.39
646.42	222.35
646.57	266.82
646.71	212.99
646.86	243.42
647.00	184.90
647.15	264.48
647.30	177.88
647.44	180.22
647.59	264.48
647.74	259.80
647.88	205.97
648.03	215.33
648.17	229.37
648.32	229.37
648.47	201.29
648.61	177.88
648.76	210.65
648.90	212.99
649.05	227.03
649.20	128.73
649.34	248.10
649.49	238.73
649.63	276.18
649.78	212.99
649.92	292.57
650.07	325.33
650.21	381.51
650.36	411.93
650.51	351.08
650.65	381.51
650.80	290.23
650.94	311.29
651.09	299.59
651.23	332.36
651.38	287.89
651.52	276.18
651.67	334.70
651.81	334.70
651.96	290.23
652.10	238.73
652.25	234.05
652.39	250.44
652.54	250.44
652.68	278.52
652.83	327.68
652.97	257.46
653.12	299.59
653.26	271.50
653.41	266.82
653.55	341.72
653.70	259.80
653.84	210.65
653.99	212.99
654.13	152.13
654.27	210.65
654.42	248.10
654.56	229.37
654.71	266.82
654.85	245.76
655.00	184.90
655.14	187.24
655.29	166.18
655.43	210.65
655.57	203.63
655.72	210.65
655.86	140.43
656.01	238.73
656.15	220.01
656.30	257.46
656.44	135.75
656.58	208.31
656.73	156.82
656.87	210.65
657.01	238.73
657.16	250.44
657.30	255.12
657.45	210.65
657.59	306.61
657.73	154.48
657.88	220.01
658.02	273.84
658.16	262.14
658.31	196.60
658.45	163.84
658.60	163.84
658.74	93.62
658.88	81.92
659.03	208.31
659.17	161.50
659.31	191.92
659.46	241.08
659.60	142.77
659.74	170.86
659.89	220.01
660.03	161.50
660.17	241.08
660.32	222.35
660.46	208.31
660.60	250.44
660.74	269.16
660.89	177.88
661.03	175.54
661.17	182.56
661.32	159.16
661.46	224.69
661.60	231.71
661.74	220.01
661.89	264.48
662.03	283.20
662.17	285.55
662.31	224.69
662.46	257.46
662.60	269.16
662.74	285.55
662.88	229.37
663.03	215.33
663.17	208.31
663.31	259.80
663.45	292.57
663.60	259.80
663.74	198.95
663.88	189.58
664.02	203.63
664.17	210.65
664.31	161.50
664.45	177.88
664.59	229.37
664.73	294.91
664.88	234.05
665.02	229.37
665.16	205.97
665.30	177.88
665.44	187.24
665.59	180.22
665.73	191.92
665.87	257.46
666.01	166.18
666.15	215.33
666.29	175.54
666.44	198.95
666.58	215.33
666.72	196.60
666.86	184.90
667.00	189.58
667.14	215.33
667.28	229.37
667.43	229.37
667.57	110.01
667.71	201.29
667.85	241.08
667.99	215.33
668.13	191.92
668.27	238.73
668.41	248.10
668.56	149.79
668.70	198.95
668.84	266.82
668.98	156.82
669.12	177.88
669.26	191.92
669.40	269.16
669.54	227.03
669.68	248.10
669.82	187.24
669.96	163.84
670.10	163.84
670.25	194.26
670.39	238.73
670.53	156.82
670.67	217.67
670.81	217.67
670.95	182.56
671.09	131.07
671.23	269.16
671.37	220.01
671.51	147.45
671.65	194.26
671.79	152.13
671.93	198.95
672.07	205.97
672.21	217.67
672.35	248.10
672.49	173.20
672.63	241.08
672.77	173.20
672.91	191.92
673.05	135.75
673.19	201.29
673.33	128.73
673.47	212.99
673.61	154.48
673.75	215.33
673.89	14.04
674.03	105.32
674.17	161.50
674.31	166.18
674.45	241.08
674.59	168.52
674.73	252.78
674.87	210.65
675.01	236.39
675.15	210.65
675.29	173.20
675.43	245.76
675.56	278.52
675.70	231.71
675.84	196.60
675.98	95.96
676.12	93.62
676.26	145.11
676.40	163.84
676.54	189.58
676.68	170.86
676.82	290.23
676.96	198.95
677.10	177.88
677.23	229.37
677.37	114.69
677.51	114.69
677.65	222.35
677.79	152.13
677.93	168.52
678.07	245.76
678.21	168.52
678.34	166.18
678.48	217.67
678.62	152.13
678.76	147.45
678.90	156.82
679.04	212.99
679.18	161.50
679.31	156.82
679.45	149.79
679.59	184.90
679.73	177.88
679.87	187.24
680.00	245.76
680.14	156.82
680.28	224.69
680.42	77.24
680.56	126.39
680.70	189.58
680.83	220.01
680.97	177.88
681.11	180.22
681.25	105.32
681.39	140.43
681.52	266.82
681.66	161.50
681.80	159.16
681.94	203.63
682.07	74.90
682.21	177.88
682.35	198.95
682.49	77.24
682.62	205.97
682.76	84.26
682.90	124.05
683.04	208.31
683.17	177.88
683.31	117.03
683.45	266.82
683.59	227.03
683.72	161.50
683.86	220.01
684.00	121.71
684.13	187.24
684.27	163.84
684.41	236.39
684.55	170.86
684.68	117.03
684.82	147.45
684.96	168.52
685.09	166.18
685.23	166.18
685.37	93.62
685.50	196.60
685.64	236.39
685.78	166.18
685.91	229.37
686.05	180.22
686.19	184.90
686.32	145.11
686.46	168.52
686.60	189.58
686.73	269.16
686.87	238.73
687.01	194.26
687.14	140.43
687.28	266.82
687.42	180.22
687.55	201.29
687.69	205.97
687.82	152.13
687.96	159.16
688.10	250.44
688.23	163.84
688.37	210.65
688.50	205.97
688.64	180.22
688.78	198.95
688.91	156.82
689.05	107.66
689.18	67.88
689.32	124.05
689.46	124.05
689.59	121.71
689.73	177.88
689.86	84.26
690.00	133.41
690.13	149.79
690.27	140.43
690.41	168.52
690.54	149.79
690.68	121.71
690.81	135.75
690.95	168.52
691.08	140.43
691.22	126.39
691.35	131.07
691.49	184.90
691.62	147.45
691.76	159.16
691.89	229.37
692.03	114.69
692.16	170.86
692.30	133.41
692.43	91.28
692.57	124.05
692.70	177.88
692.84	203.63
692.97	161.50
693.11	126.39
693.24	180.22
693.38	196.60
693.51	224.69
693.65	177.88
693.78	138.09
693.92	152.13
694.05	84.26
694.19	138.09
694.32	133.41
694.45	126.39
694.59	166.18
694.72	138.09
694.86	208.31
694.99	166.18
695.13	126.39
695.26	110.01
695.39	168.52
695.53	231.71
695.66	215.33
695.80	212.99
695.93	128.73
696.07	182.56
696.20	138.09
696.33	142.77
696.47	107.66
696.60	161.50
696.73	100.64
696.87	81.92
697.00	142.77
697.14	133.41
697.27	163.84
697.40	161.50
697.54	152.13
697.67	138.09
697.80	196.60
697.94	128.73
698.07	81.92
698.21	126.39
698.34	65.54
698.47	91.28
698.61	124.05
698.74	117.03
698.87	161.50
699.01	180.22
699.14	159.16
699.27	135.75
699.40	205.97
699.54	91.28
699.67	154.48
699.80	126.39
699.94	105.32
700.07	121.71
700.20	121.71
700.34	88.94
700.47	147.45
700.60	152.13
700.73	201.29
700.87	79.58
701.00	119.37
701.13	70.22
701.26	135.75
701.40	102.98
701.53	110.01
701.66	98.30
701.79	84.26
701.93	131.07
702.06	107.66
702.19	67.88
702.32	212.99
702.46	112.35
702.59	138.09
702.72	88.94
702.85	131.07
702.99	140.43
703.12	161.50
703.25	124.05
703.38	95.96
703.51	149.79
703.65	215.33
703.78	220.01
703.91	159.16
704.04	168.52
704.17	191.92
704.31	93.62
704.44	135.75
704.57	149.79
704.70	114.69
704.83	145.11
704.96	170.86
705.10	135.75
705.23	184.90
>>>>>End Processed Spectral Data<<<<<
