SpectraSuite Data File
++++++++++++++++++++++++++++++++++++
Date: Fri Oct 04 11:44:27 GMT-05:00 2013
User: price-jones
Dark Spectrum Present: No
Reference Spectrum Present: No
Number of Sampled Component Spectra: 1
Spectrometers: USB2+H05261
Integration Time (usec): 100000 (USB2+H05261)
Spectra Averaged: 1 (USB2+H05261)
Boxcar Smoothing: 0 (USB2+H05261)
Correct for Electrical Dark: No (USB2+H05261)
Strobe/Lamp Enabled: No (USB2+H05261)
Correct for Detector Non-linearity: No (USB2+H05261)
Correct for Stray Light: No (USB2+H05261)
Number of Pixels in Processed Spectrum: 2048
>>>>>Begin Processed Spectral Data<<<<<
365.73	0.00
365.92	0.00
366.12	0.00
366.32	0.00
366.52	0.00
366.72	0.00
366.91	0.00
367.11	0.00
367.31	0.00
367.51	0.00
367.70	0.00
367.90	0.00
368.10	0.00
368.30	18.72
368.49	0.00
368.69	0.00
368.89	0.00
369.09	0.00
369.28	0.00
369.48	0.00
369.68	9.36
369.87	0.00
370.07	0.00
370.27	56.17
370.47	18.72
370.66	121.71
370.86	121.71
371.06	238.73
371.25	241.08
371.45	177.88
371.65	201.29
371.84	198.95
372.04	142.77
372.24	196.60
372.44	229.37
372.63	304.27
372.83	196.60
373.03	201.29
373.22	231.71
373.42	252.78
373.62	248.10
373.81	276.18
374.01	203.63
374.21	248.10
374.40	280.86
374.60	276.18
374.79	266.82
374.99	322.99
375.19	337.04
375.38	320.65
375.58	308.95
375.78	227.03
375.97	301.93
376.17	379.17
376.37	238.73
376.56	245.76
376.76	283.20
376.95	313.63
377.15	402.57
377.35	276.18
377.54	205.97
377.74	337.04
377.93	341.72
378.13	283.20
378.33	320.65
378.52	248.10
378.72	290.23
378.91	278.52
379.11	320.65
379.31	187.24
379.50	243.42
379.70	306.61
379.89	327.68
380.09	322.99
380.28	334.70
380.48	327.68
380.68	337.04
380.87	290.23
381.07	278.52
381.26	353.42
381.46	245.76
381.65	271.50
381.85	222.35
382.04	292.57
382.24	217.67
382.43	210.65
382.63	198.95
382.83	187.24
383.02	231.71
383.22	292.57
383.41	313.63
383.61	238.73
383.80	255.12
384.00	276.18
384.19	367.46
384.39	313.63
384.58	276.18
384.78	334.70
384.97	280.86
385.17	325.33
385.36	257.46
385.56	369.80
385.75	271.50
385.95	241.08
386.14	332.36
386.34	353.42
386.53	315.97
386.72	252.78
386.92	318.31
387.11	271.50
387.31	393.21
387.50	348.74
387.70	395.55
387.89	313.63
388.09	327.68
388.28	315.97
388.48	255.12
388.67	287.89
388.86	334.70
389.06	346.40
389.25	369.80
389.45	362.78
389.64	346.40
389.84	360.44
390.03	397.89
390.22	486.83
390.42	411.93
390.61	395.55
390.81	465.77
391.00	456.40
391.19	442.36
391.39	430.66
391.58	346.40
391.78	444.70
391.97	372.15
392.16	325.33
392.36	395.55
392.55	215.33
392.75	271.50
392.94	234.05
393.13	238.73
393.33	250.44
393.52	304.27
393.71	290.23
393.91	369.80
394.10	421.30
394.29	425.98
394.49	397.89
394.68	472.79
394.88	428.32
395.07	470.45
395.26	475.13
395.46	491.51
395.65	505.56
395.84	330.02
396.04	337.04
396.23	231.71
396.42	205.97
396.62	285.55
396.81	271.50
397.00	330.02
397.19	414.27
397.39	449.38
397.58	449.38
397.77	463.43
397.97	496.19
398.16	505.56
398.35	505.56
398.55	538.32
398.74	505.56
398.93	608.54
399.12	603.86
399.32	564.07
399.51	512.58
399.70	676.41
399.90	580.45
400.09	589.82
400.28	643.65
400.47	561.73
400.67	629.60
400.86	608.54
401.05	660.03
401.24	655.35
401.44	622.58
401.63	683.44
401.82	713.86
402.01	697.48
402.21	648.33
402.40	613.22
402.59	641.31
402.78	660.03
402.97	638.97
403.17	643.65
403.36	681.10
403.55	664.71
403.74	709.18
403.93	699.82
404.13	739.61
404.32	662.37
404.51	638.97
404.70	751.31
404.89	622.58
405.09	674.07
405.28	620.24
405.47	629.60
405.66	617.90
405.85	617.90
406.05	662.37
406.24	645.99
406.43	624.92
406.62	641.31
406.81	650.67
407.00	636.63
407.20	674.07
407.39	702.16
407.58	624.92
407.77	657.69
407.96	781.74
408.15	744.29
408.34	748.97
408.54	788.76
408.73	819.19
408.92	688.12
409.11	662.37
409.30	725.57
409.49	653.01
409.68	573.43
409.87	554.71
410.07	636.63
410.26	638.97
410.45	737.27
410.64	681.10
410.83	699.82
411.02	720.88
411.21	786.42
411.40	779.40
411.59	763.01
411.78	751.31
411.98	732.59
412.17	770.04
412.36	678.76
412.55	734.93
412.74	678.76
412.93	777.06
413.12	753.65
413.31	751.31
413.50	812.17
413.69	847.27
413.88	823.87
414.07	758.33
414.26	767.70
414.45	805.14
414.64	844.93
414.83	868.34
415.02	866.00
415.22	671.73
415.41	758.33
415.60	837.91
415.79	851.96
415.98	896.43
416.17	837.91
416.36	777.06
416.55	830.89
416.74	798.12
416.93	734.93
417.12	880.04
417.31	786.42
417.50	833.23
417.69	884.72
417.88	873.02
418.07	851.96
418.26	809.83
418.45	858.98
418.64	870.68
418.83	847.27
419.02	856.64
419.21	821.53
419.39	887.06
419.58	784.08
419.77	830.89
419.96	795.78
420.15	966.64
420.34	919.83
420.53	830.89
420.72	915.15
420.91	959.62
421.10	924.51
421.29	884.72
421.48	760.67
421.67	910.47
421.86	849.61
422.05	819.19
422.24	777.06
422.43	699.82
422.61	727.91
422.80	891.74
422.99	919.83
423.18	887.06
423.37	868.34
423.56	908.13
423.75	873.02
423.94	856.64
424.13	777.06
424.32	819.19
424.50	830.89
424.69	774.72
424.88	851.96
425.07	779.40
425.26	833.23
425.45	854.30
425.64	753.65
425.83	814.51
426.01	917.49
426.20	840.25
426.39	833.23
426.58	851.96
426.77	748.97
426.96	779.40
427.15	711.52
427.33	786.42
427.52	821.53
427.71	763.01
427.90	812.17
428.09	791.10
428.28	826.21
428.46	830.89
428.65	765.36
428.84	835.57
429.03	840.25
429.22	788.76
429.40	711.52
429.59	620.24
429.78	723.23
429.97	578.11
430.16	622.58
430.34	660.03
430.53	608.54
430.72	688.12
430.91	723.23
431.10	774.72
431.28	781.74
431.47	933.87
431.66	945.58
431.85	891.74
432.03	912.81
432.22	812.17
432.41	821.53
432.60	938.55
432.79	795.78
432.97	891.74
433.16	933.87
433.35	779.40
433.54	720.88
433.72	746.63
433.91	840.25
434.10	833.23
434.28	854.30
434.47	840.25
434.66	985.37
434.85	976.00
435.03	1006.43
435.22	1184.31
435.41	1270.91
435.59	1291.98
435.78	1181.97
435.97	1135.16
436.16	1102.39
436.34	999.41
436.53	919.83
436.72	961.96
436.90	976.00
437.09	968.98
437.28	940.90
437.46	954.94
437.65	945.58
437.84	903.45
438.02	807.48
438.21	856.64
438.40	786.42
438.58	910.47
438.77	919.83
438.96	912.81
439.14	994.73
439.33	971.32
439.52	957.28
439.70	1020.47
439.89	1041.54
440.08	983.02
440.26	997.07
440.45	1036.86
440.63	1008.77
440.82	1083.67
441.01	1050.90
441.19	903.45
441.38	1083.67
441.57	1135.16
441.75	1179.63
441.94	1149.20
442.12	1107.07
442.31	1039.20
442.50	1097.71
442.68	1128.14
442.87	1050.90
443.05	1048.56
443.24	1074.31
443.43	1181.97
443.61	1224.10
443.80	1165.59
443.98	990.05
444.17	1142.18
444.35	1107.07
444.54	1153.88
444.73	1174.95
444.91	1174.95
445.10	1074.31
445.28	1041.54
445.47	1107.07
445.65	1008.77
445.84	1088.35
446.02	1067.28
446.21	1050.90
446.39	1078.99
446.58	1121.12
446.77	1125.80
446.95	1132.82
447.14	1203.04
447.32	1184.31
447.51	1184.31
447.69	1074.31
447.88	1057.92
448.06	1165.59
448.25	1252.19
448.43	1217.08
448.62	1090.69
448.80	1165.59
448.99	1160.91
449.17	1158.57
449.36	1174.95
449.54	1163.25
449.73	1196.01
449.91	1221.76
450.10	1207.72
450.28	1289.64
450.46	1160.91
450.65	1219.42
450.83	1394.96
451.02	1198.35
451.20	1181.97
451.39	1261.55
451.57	1242.82
451.76	1184.31
451.94	1188.99
452.13	1153.88
452.31	1268.57
452.49	1111.75
452.68	1039.20
452.86	1022.81
453.05	1158.57
453.23	1111.75
453.42	1078.99
453.60	1200.69
453.78	1186.65
453.97	1116.44
454.15	1163.25
454.34	1165.59
454.52	1221.76
454.70	1224.10
454.89	1177.29
455.07	1130.48
455.26	1153.88
455.44	1308.36
455.62	1179.63
455.81	1179.63
455.99	1310.70
456.17	1149.20
456.36	1167.93
456.54	1210.06
456.73	1188.99
456.91	1310.70
457.09	1212.40
457.28	1390.28
457.46	1184.31
457.64	1266.23
457.83	1146.86
458.01	1132.82
458.19	1118.78
458.38	1198.35
458.56	1137.50
458.74	1348.15
458.93	1247.51
459.11	1174.95
459.29	1200.69
459.48	1181.97
459.66	1252.19
459.84	1235.80
460.03	1423.05
460.21	1327.08
460.39	1287.29
460.57	1350.49
460.76	1233.46
460.94	1320.06
461.12	1284.95
461.31	1289.64
461.49	1256.87
461.67	1238.14
461.85	1432.41
462.04	1336.45
462.22	1673.48
462.40	1336.45
462.59	1373.89
462.77	1373.89
462.95	1380.92
463.13	1268.57
463.32	1301.34
463.50	1231.12
463.68	1284.95
463.86	1270.91
464.05	1238.14
464.23	1235.80
464.41	1221.76
464.59	1210.06
464.78	1289.64
464.96	1263.89
465.14	1217.08
465.32	1334.11
465.50	1373.89
465.69	1350.49
465.87	1219.42
466.05	1233.46
466.23	1123.46
466.41	1179.63
466.60	1252.19
466.78	1205.38
466.96	1226.44
467.14	1242.82
467.32	1301.34
467.51	1287.29
467.69	1240.48
467.87	1266.23
468.05	1280.27
468.23	1336.45
468.41	1277.93
468.60	1287.29
468.78	1207.72
468.96	1231.12
469.14	1301.34
469.32	1284.95
469.50	1165.59
469.69	1240.48
469.87	1219.42
470.05	1217.08
470.23	1233.46
470.41	1212.40
470.59	1247.51
470.77	1275.59
470.95	1315.38
471.14	1306.02
471.32	1130.48
471.50	1451.13
471.68	1397.30
471.86	1373.89
472.04	1355.17
472.22	1409.00
472.40	1245.16
472.58	1296.66
472.77	1301.34
472.95	1273.25
473.13	1341.13
473.31	1364.53
473.49	1343.47
473.67	1294.32
473.85	1401.98
474.03	1291.98
474.21	1378.58
474.39	1446.45
474.57	1451.13
474.75	1371.55
474.93	1322.40
475.12	1322.40
475.30	1320.06
475.48	1394.96
475.66	1397.30
475.84	1397.30
476.02	1423.05
476.20	1455.81
476.38	1327.08
476.56	1476.88
476.74	1392.62
476.92	1458.15
477.10	1497.94
477.28	1516.67
477.46	1434.75
477.64	1535.39
477.82	1514.33
478.00	1519.01
478.18	1514.33
478.36	1526.03
478.54	1598.59
478.72	1586.88
478.90	1568.16
479.08	1633.69
479.26	1572.84
479.44	1605.61
479.62	1565.82
479.80	1605.61
479.98	1570.50
480.16	1640.72
480.34	1600.93
480.52	1598.59
480.70	1570.50
480.88	1626.67
481.06	1591.56
481.24	1654.76
481.41	1713.27
481.59	1781.15
481.77	1708.59
481.95	1673.48
482.13	1813.92
482.31	1675.82
482.49	1713.27
482.67	1736.68
482.85	1643.06
483.03	1685.19
483.21	1764.76
483.39	1720.29
483.57	1652.42
483.74	1689.87
483.92	1673.48
484.10	1638.38
484.28	1785.83
484.46	1851.36
484.64	1734.34
484.82	1727.32
485.00	1743.70
485.18	1727.32
485.35	1523.69
485.53	1479.22
485.71	1488.58
485.89	1458.15
486.07	1390.28
486.25	1710.93
486.43	1746.04
486.61	1678.16
486.78	1748.38
486.96	1713.27
487.14	1799.87
487.32	1724.97
487.50	1839.66
487.68	1912.22
487.85	1982.43
488.03	1940.30
488.21	1912.22
488.39	1914.56
488.57	1930.94
488.75	1858.39
488.92	1968.39
489.10	1998.82
489.28	2160.31
489.46	2022.22
489.64	2132.23
489.81	2101.80
489.99	2101.80
490.17	2071.37
490.35	2127.55
490.53	2150.95
490.70	2045.63
490.88	2167.34
491.06	2108.82
491.24	2106.48
491.41	2085.42
491.59	1949.67
491.77	1937.96
491.95	1944.99
492.13	2029.24
492.30	2090.10
492.48	2122.87
492.66	2097.12
492.84	2293.72
493.01	2223.51
493.19	2083.08
493.37	2141.59
493.54	2052.65
493.72	2176.70
493.90	2153.29
494.08	2202.44
494.25	2207.13
494.43	2221.17
494.61	2223.51
494.79	2267.98
494.96	2305.43
495.14	2270.32
495.32	2289.04
495.49	2139.25
495.67	2235.21
495.85	2277.34
496.02	2312.45
496.20	2361.60
496.38	2417.77
496.55	2363.94
496.73	2410.75
496.91	2260.96
497.09	2422.45
497.26	2272.66
497.44	2427.14
497.62	2349.90
497.79	2223.51
497.97	2150.95
498.14	2340.54
498.32	2312.45
498.50	2375.64
498.67	2422.45
498.85	2319.47
499.03	2352.24
499.20	2352.24
499.38	2392.03
499.56	2532.46
499.73	2373.30
499.91	2335.85
500.08	2282.02
500.26	2244.57
500.44	2291.38
500.61	2326.49
500.79	2237.55
500.97	2373.30
501.14	2228.19
501.32	2207.13
501.49	2352.24
501.67	2256.28
501.84	2366.28
502.02	2298.41
502.20	2370.96
502.37	2396.71
502.55	2291.38
502.72	2361.60
502.90	2399.05
503.07	2333.51
503.25	2263.30
503.43	2253.94
503.60	2176.70
503.78	2106.48
503.95	2050.31
504.13	2223.51
504.30	2399.05
504.48	2448.20
504.65	2441.18
504.83	2406.07
505.01	2459.90
505.18	2406.07
505.36	2417.77
505.53	2462.24
505.71	2438.84
505.88	2401.39
506.06	2422.45
506.23	2487.99
506.41	2277.34
506.58	2375.64
506.76	2457.56
506.93	2450.54
507.11	2518.42
507.28	2471.61
507.46	2476.29
507.63	2413.09
507.81	2289.04
507.98	2335.85
508.16	2349.90
508.33	2448.20
508.50	2485.65
508.68	2530.12
508.85	2569.91
509.03	2595.65
509.20	2562.89
509.38	2586.29
509.55	2401.39
509.73	2354.58
509.90	2593.31
510.08	2408.41
510.25	2492.67
510.42	2506.71
510.60	2567.57
510.77	2476.29
510.95	2658.85
511.12	2579.27
511.30	2696.30
511.47	2602.68
511.64	2715.02
511.82	2637.78
511.99	2544.16
512.17	2527.78
512.34	2415.43
512.51	2476.29
512.69	2506.71
512.86	2513.74
513.04	2605.02
513.21	2569.91
513.38	2640.12
513.56	2516.08
513.73	2497.35
513.90	2403.73
514.08	2513.74
514.25	2441.18
514.43	2525.44
514.60	2562.89
514.77	2616.72
514.95	2602.68
515.12	2555.86
515.29	2619.06
515.47	2663.53
515.64	2616.72
515.81	2469.27
515.99	2520.76
516.16	2495.01
516.33	2286.70
516.51	2143.93
516.68	2143.93
516.85	2115.84
517.03	2076.06
517.20	2415.43
517.37	2511.39
517.54	2602.68
517.72	2548.84
517.89	2361.60
518.06	2153.29
518.24	2195.42
518.41	2406.07
518.58	2513.74
518.75	2487.99
518.93	2445.86
519.10	2518.42
519.27	2539.48
519.45	2558.21
519.62	2602.68
519.79	2588.63
519.96	2656.51
520.14	2656.51
520.31	2586.29
520.48	2530.12
520.65	2588.63
520.83	2670.55
521.00	2761.83
521.17	2642.46
521.34	2637.78
521.52	2661.19
521.69	2663.53
521.86	2752.47
522.03	2775.88
522.20	2792.26
522.38	2476.29
522.55	2487.99
522.72	2579.27
522.89	2544.16
523.07	2630.76
523.24	2532.46
523.41	2724.38
523.58	2654.17
523.75	2813.32
523.92	2675.23
524.10	2808.64
524.27	2843.75
524.44	2750.13
524.61	2780.56
524.78	2670.55
524.96	2834.39
525.13	2700.98
525.30	2839.07
525.47	2862.48
525.64	2745.45
525.81	2736.09
525.98	2626.08
526.16	2406.07
526.33	2415.43
526.50	2363.94
526.67	2415.43
526.84	2368.62
527.01	2523.10
527.18	2733.75
527.36	2661.19
527.53	2754.81
527.70	2717.36
527.87	2696.30
528.04	2686.94
528.21	2644.81
528.38	2801.62
528.55	2825.03
528.72	2806.30
528.89	2808.64
529.07	2888.22
529.24	2832.05
529.41	2722.04
529.58	2642.46
529.75	2686.94
529.92	2808.64
530.09	2719.70
530.26	2806.30
530.43	2782.90
530.60	2796.94
530.77	2736.09
530.94	2883.54
531.11	2920.99
531.28	2862.48
531.46	2925.67
531.63	2719.70
531.80	2754.81
531.97	2754.81
532.14	2700.98
532.31	2600.34
532.48	2600.34
532.65	2534.80
532.82	2509.05
532.99	2675.23
533.16	2860.13
533.33	2780.56
533.50	2775.88
533.67	2792.26
533.84	2640.12
534.01	2691.62
534.18	2712.68
534.35	2808.64
534.52	2719.70
534.69	2853.11
534.86	2708.00
535.03	2883.54
535.20	2843.75
535.37	2895.24
535.54	2860.13
535.71	2801.62
535.88	2923.33
536.05	2843.75
536.22	2785.24
536.38	2738.43
536.55	2621.40
536.72	2668.21
536.89	2527.78
537.06	2677.57
537.23	2862.48
537.40	2860.13
537.57	2853.11
537.74	2906.95
537.91	2766.51
538.08	2808.64
538.25	2857.79
538.42	2796.94
538.59	2923.33
538.75	2803.96
538.92	2764.17
539.09	2708.00
539.26	2602.68
539.43	2775.88
539.60	2635.44
539.77	2672.89
539.94	2822.69
540.11	2801.62
540.28	2715.02
540.44	2708.00
540.61	2633.10
540.78	2736.09
540.95	2855.45
541.12	2946.73
541.29	2974.82
541.46	3131.64
541.62	3108.23
541.79	2925.67
541.96	2808.64
542.13	2911.63
542.30	2970.14
542.47	2958.44
542.63	2925.67
542.80	2984.18
542.97	2869.50
543.14	2822.69
543.31	2944.39
543.48	2956.10
543.64	3141.00
543.81	3131.64
543.98	3049.72
544.15	2965.46
544.32	2874.18
544.48	2867.16
544.65	2869.50
544.82	3019.29
544.99	2984.18
545.16	2888.22
545.32	2963.12
545.49	3272.07
545.66	3499.10
545.83	3618.47
546.00	3489.74
546.16	3265.05
546.33	3176.11
546.50	2963.12
546.67	2944.39
546.83	3038.02
547.00	2916.31
547.17	2827.37
547.34	2782.90
547.50	2754.81
547.67	2705.66
547.84	2785.24
548.00	2818.00
548.17	2789.92
548.34	2867.16
548.51	2937.37
548.67	2871.84
548.84	2904.60
549.01	2953.76
549.18	2867.16
549.34	2759.49
549.51	2745.45
549.68	2825.03
549.84	2794.60
550.01	2731.41
550.18	2829.71
550.34	2944.39
550.51	2665.87
550.68	2810.98
550.84	2757.15
551.01	2691.62
551.18	2691.62
551.34	2775.88
551.51	2614.38
551.68	2750.13
551.84	2913.97
552.01	2820.35
552.18	2745.45
552.34	2810.98
552.51	2754.81
552.68	2719.70
552.84	2626.08
553.01	2761.83
553.18	2729.06
553.34	2836.73
553.51	2792.26
553.67	2810.98
553.84	2766.51
554.01	2785.24
554.17	2738.43
554.34	2738.43
554.51	2682.25
554.67	2846.09
554.84	2710.34
555.00	2757.15
555.17	2670.55
555.33	2672.89
555.50	2736.09
555.67	2656.51
555.83	2724.38
556.00	2581.61
556.16	2839.07
556.33	2616.72
556.50	2581.61
556.66	2654.17
556.83	2628.42
556.99	2597.99
557.16	2518.42
557.32	2619.06
557.49	2644.81
557.65	2649.49
557.82	2729.06
557.98	2689.28
558.15	2579.27
558.32	2417.77
558.48	2431.82
558.65	2462.24
558.81	2469.27
558.98	2520.76
559.14	2518.42
559.31	2462.24
559.47	2621.40
559.64	2520.76
559.80	2548.84
559.97	2473.95
560.13	2499.69
560.30	2504.37
560.46	2583.95
560.63	2560.55
560.79	2733.75
560.96	2621.40
561.12	2555.86
561.29	2534.80
561.45	2466.92
561.61	2532.46
561.78	2621.40
561.94	2553.52
562.11	2583.95
562.27	2492.67
562.44	2562.89
562.60	2527.78
562.77	2539.48
562.93	2516.08
563.10	2448.20
563.26	2567.57
563.42	2548.84
563.59	2443.52
563.75	2553.52
563.92	2504.37
564.08	2555.86
564.24	2555.86
564.41	2516.08
564.57	2534.80
564.74	2483.31
564.90	2590.97
565.07	2441.18
565.23	2431.82
565.39	2363.94
565.56	2450.54
565.72	2296.07
565.88	2443.52
566.05	2497.35
566.21	2361.60
566.38	2307.77
566.54	2422.45
566.70	2431.82
566.87	2443.52
567.03	2492.67
567.19	2605.02
567.36	2555.86
567.52	2436.50
567.68	2420.11
567.85	2354.58
568.01	2370.96
568.17	2275.00
568.34	2228.19
568.50	2289.04
568.66	2284.36
568.83	2366.28
568.99	2349.90
569.15	2307.77
569.32	2324.15
569.48	2319.47
569.64	2300.75
569.81	2228.19
569.97	2209.47
570.13	2363.94
570.30	2237.55
570.46	2113.50
570.62	2211.81
570.78	2221.17
570.95	2211.81
571.11	2321.81
571.27	2265.64
571.43	2293.72
571.60	2253.94
571.76	2356.92
571.92	2380.32
572.09	2291.38
572.25	2385.01
572.41	2385.01
572.57	2228.19
572.74	2282.02
572.90	2174.36
573.06	2319.47
573.22	2284.36
573.38	2218.83
573.55	2251.60
573.71	2377.98
573.87	2267.98
574.03	2230.53
574.20	2284.36
574.36	2298.41
574.52	2324.15
574.68	2275.00
574.84	2195.42
575.01	2200.10
575.17	2218.83
575.33	2139.25
575.49	2399.05
575.65	2239.89
575.82	2129.89
575.98	2120.53
576.14	2216.49
576.30	2279.68
576.46	2349.90
576.62	2363.94
576.79	2417.77
576.95	2286.70
577.11	2326.49
577.27	2188.40
577.43	2270.32
577.59	2225.85
577.75	2312.45
577.92	2153.29
578.08	2076.06
578.24	2129.89
578.40	2263.30
578.56	2326.49
578.72	2277.34
578.88	2349.90
579.04	2317.13
579.21	2324.15
579.37	2284.36
579.53	2249.25
579.69	2260.96
579.85	2324.15
580.01	2303.09
580.17	2272.66
580.33	2356.92
580.49	2204.78
580.65	2249.25
580.82	2186.06
580.98	2230.53
581.14	2207.13
581.30	2296.07
581.46	2307.77
581.62	2380.32
581.78	2218.83
581.94	2249.25
582.10	2333.51
582.26	2312.45
582.42	2181.38
582.58	2328.83
582.74	2370.96
582.90	2272.66
583.06	2368.62
583.22	2305.43
583.38	2363.94
583.54	2230.53
583.70	2326.49
583.86	2373.30
584.02	2246.91
584.18	2373.30
584.34	2225.85
584.50	2277.34
584.66	2277.34
584.82	2216.49
584.98	2162.66
585.14	2174.36
585.30	2251.60
585.46	2167.34
585.62	2125.21
585.78	2193.08
585.94	2108.82
586.10	2148.61
586.26	2204.78
586.42	2277.34
586.58	2296.07
586.74	2190.74
586.90	2195.42
587.06	2216.49
587.22	2200.10
587.38	2054.99
587.54	2087.76
587.70	2078.40
587.86	2050.31
588.02	1926.26
588.18	1823.28
588.34	1888.81
588.49	1703.91
588.65	1605.61
588.81	1619.65
588.97	1549.43
589.13	1699.23
589.29	1519.01
589.45	1547.09
589.61	1600.93
589.77	1687.53
589.93	1717.95
590.08	1790.51
590.24	1949.67
590.40	1849.02
590.56	2003.50
590.72	1867.75
590.88	1881.79
591.04	1921.58
591.20	1799.87
591.35	1884.13
591.51	1799.87
591.67	1778.81
591.83	1813.92
591.99	1760.08
592.15	1771.79
592.31	1853.70
592.46	1912.22
592.62	1982.43
592.78	1926.26
592.94	1928.60
593.10	1989.46
593.26	1980.09
593.41	2033.93
593.57	1963.71
593.73	1902.86
593.89	1748.38
594.05	1694.55
594.20	1748.38
594.36	1741.36
594.52	1624.33
594.68	1675.82
594.84	1694.55
594.99	1839.66
595.15	1851.36
595.31	1823.28
595.47	1884.13
595.62	1870.09
595.78	1888.81
595.94	1935.62
596.10	1954.35
596.25	1884.13
596.41	1891.15
596.57	1865.41
596.73	1771.79
596.88	1900.52
597.04	1839.66
597.20	1893.49
597.36	1851.36
597.51	1834.98
597.67	1923.92
597.83	1942.64
597.99	1877.11
598.14	1956.69
598.30	1916.90
598.46	1942.64
598.61	1956.69
598.77	1907.54
598.93	1795.19
599.09	1935.62
599.24	2008.18
599.40	1930.94
599.56	2047.97
599.71	1963.71
599.87	2003.50
600.03	1935.62
600.18	1909.88
600.34	1933.28
600.50	1949.67
600.65	1846.68
600.81	2026.90
600.97	1895.83
601.12	1954.35
601.28	1790.51
601.44	1895.83
601.59	1912.22
601.75	1977.75
601.91	1895.83
602.06	1884.13
602.22	2031.58
602.37	1888.81
602.53	1982.43
602.69	2045.63
602.84	1956.69
603.00	2022.22
603.16	2008.18
603.31	2033.93
603.47	2045.63
603.62	1893.49
603.78	1998.82
603.94	1944.99
604.09	1914.56
604.25	1998.82
604.40	1991.80
604.56	1916.90
604.71	1937.96
604.87	1853.70
605.03	1963.71
605.18	1935.62
605.34	2024.56
605.49	1940.30
605.65	1923.92
605.80	1858.39
605.96	1944.99
606.12	1994.14
606.27	2080.74
606.43	1937.96
606.58	1959.03
606.74	1928.60
606.89	1888.81
607.05	1961.37
607.20	1893.49
607.36	1909.88
607.51	2045.63
607.67	1956.69
607.82	1940.30
607.98	1877.11
608.13	2001.16
608.29	1961.37
608.44	1989.46
608.60	1877.11
608.75	2026.90
608.91	1942.64
609.06	1933.28
609.22	1959.03
609.37	1961.37
609.53	1975.41
609.68	1996.48
609.84	1916.90
609.99	1921.58
610.15	1975.41
610.30	2078.40
610.46	2188.40
610.61	2345.22
610.76	2586.29
610.92	2663.53
611.07	2663.53
611.23	2670.55
611.38	2689.28
611.54	2483.31
611.69	2466.92
611.84	2284.36
612.00	2153.29
612.15	2176.70
612.31	2169.68
612.46	2078.40
612.62	2083.08
612.77	2059.67
612.92	2207.13
613.08	2059.67
613.23	2085.42
613.39	1809.23
613.54	1935.62
613.69	1909.88
613.85	1933.28
614.00	1930.94
614.15	1975.41
614.31	1996.48
614.46	1970.73
614.62	1891.15
614.77	1891.15
614.92	1806.89
615.08	1916.90
615.23	1991.80
615.38	1757.74
615.54	1736.68
615.69	1757.74
615.84	1762.42
616.00	1774.13
616.15	1701.57
616.30	1724.97
616.46	1610.29
616.61	1607.95
616.76	1849.02
616.92	1724.97
617.07	1668.80
617.22	1657.10
617.37	1785.83
617.53	1820.94
617.68	1776.47
617.83	1774.13
617.99	1849.02
618.14	1750.72
618.29	1802.21
618.45	1895.83
618.60	1650.08
618.75	1722.63
618.90	1694.55
619.06	1678.16
619.21	1743.70
619.36	1708.59
619.51	1710.93
619.67	1769.44
619.82	1671.14
619.97	1863.07
620.12	1710.93
620.28	1713.27
620.43	1734.34
620.58	1783.49
620.73	1671.14
620.89	1764.76
621.04	1757.74
621.19	1748.38
621.34	1664.12
621.49	1664.12
621.65	1582.20
621.80	1717.95
621.95	1514.33
622.10	1781.15
622.25	1762.42
622.41	1739.02
622.56	1757.74
622.71	1661.78
622.86	1710.93
623.01	1633.69
623.16	1640.72
623.32	1586.88
623.47	1645.40
623.62	1703.91
623.77	1664.12
623.92	1603.27
624.07	1643.06
624.23	1675.82
624.38	1551.78
624.53	1621.99
624.68	1486.24
624.83	1572.84
624.98	1535.39
625.13	1474.54
625.29	1523.69
625.44	1591.56
625.59	1572.84
625.74	1519.01
625.89	1511.99
626.04	1537.73
626.19	1652.42
626.34	1631.35
626.49	1659.44
626.65	1575.18
626.80	1533.05
626.95	1582.20
627.10	1469.86
627.25	1584.54
627.40	1453.47
627.55	1451.13
627.70	1383.26
627.85	1401.98
628.00	1404.32
628.15	1341.13
628.30	1409.00
628.45	1533.05
628.60	1446.45
628.76	1526.03
628.91	1495.60
629.06	1465.18
629.21	1502.62
629.36	1453.47
629.51	1329.42
629.66	1467.52
629.81	1465.18
629.96	1488.58
630.11	1406.66
630.26	1568.16
630.41	1511.99
630.56	1584.54
630.71	1533.05
630.86	1472.20
631.01	1474.54
631.16	1558.80
631.31	1519.01
631.46	1418.36
631.61	1430.07
631.76	1277.93
631.91	1376.24
632.06	1495.60
632.21	1399.64
632.36	1427.73
632.51	1430.07
632.66	1427.73
632.81	1472.20
632.96	1327.08
633.10	1423.05
633.25	1404.32
633.40	1446.45
633.55	1373.89
633.70	1437.09
633.85	1315.38
634.00	1401.98
634.15	1394.96
634.30	1446.45
634.45	1373.89
634.60	1411.34
634.75	1390.28
634.90	1441.77
635.05	1490.92
635.19	1474.54
635.34	1357.51
635.49	1343.47
635.64	1423.05
635.79	1280.27
635.94	1376.24
636.09	1411.34
636.24	1289.64
636.39	1399.64
636.53	1441.77
636.68	1416.02
636.83	1376.24
636.98	1446.45
637.13	1366.87
637.28	1409.00
637.43	1399.64
637.57	1378.58
637.72	1420.71
637.87	1427.73
638.02	1313.04
638.17	1275.59
638.32	1465.18
638.46	1306.02
638.61	1432.41
638.76	1399.64
638.91	1299.00
639.06	1409.00
639.20	1327.08
639.35	1376.24
639.50	1362.19
639.65	1322.40
639.80	1296.66
639.94	1406.66
640.09	1378.58
640.24	1336.45
640.39	1331.76
640.54	1394.96
640.68	1341.13
640.83	1341.13
640.98	1240.48
641.13	1362.19
641.27	1338.79
641.42	1313.04
641.57	1355.17
641.72	1355.17
641.86	1245.16
642.01	1432.41
642.16	1348.15
642.31	1277.93
642.45	1406.66
642.60	1390.28
642.75	1280.27
642.90	1282.61
643.04	1303.68
643.19	1217.08
643.34	1362.19
643.48	1380.92
643.63	1289.64
643.78	1240.48
643.93	1331.76
644.07	1296.66
644.22	1287.29
644.37	1214.74
644.51	1256.87
644.66	1259.21
644.81	1345.81
644.95	1352.83
645.10	1329.42
645.25	1245.16
645.39	1149.20
645.54	1097.71
645.69	1289.64
645.83	1196.01
645.98	1254.53
646.13	1170.27
646.27	1153.88
646.42	1048.56
646.57	1039.20
646.71	1029.84
646.86	1149.20
647.00	1102.39
647.15	1050.90
647.30	1029.84
647.44	990.05
647.59	987.71
647.74	964.30
647.88	1088.35
648.03	1015.79
648.17	1029.84
648.32	1050.90
648.47	1022.81
648.61	1097.71
648.76	1069.62
648.90	999.41
649.05	1011.11
649.20	973.66
649.34	1029.84
649.49	1088.35
649.63	1046.22
649.78	1083.67
649.92	1102.39
650.07	1177.29
650.21	1233.46
650.36	1294.32
650.51	1146.86
650.65	1151.54
650.80	1104.73
650.94	1217.08
651.09	1156.22
651.23	1095.37
651.38	1081.33
651.52	931.53
651.67	922.17
651.81	966.64
651.96	1036.86
652.10	1163.25
652.25	1139.84
652.39	1102.39
652.54	1121.12
652.68	1282.61
652.83	1146.86
652.97	1156.22
653.12	1160.91
653.26	1034.52
653.41	1146.86
653.55	1135.16
653.70	1097.71
653.84	1111.75
653.99	1121.12
654.13	1086.01
654.27	1135.16
654.42	1071.97
654.56	1128.14
654.71	1050.90
654.85	1013.45
655.00	983.02
655.14	1001.75
655.29	1039.20
655.43	1041.54
655.57	1043.88
655.72	903.45
655.86	905.79
656.01	849.61
656.15	856.64
656.30	786.42
656.44	847.27
656.58	835.57
656.73	964.30
656.87	978.34
657.01	1041.54
657.16	1123.46
657.30	1071.97
657.45	1060.26
657.59	1076.65
657.73	1116.44
657.88	1095.37
658.02	1078.99
658.16	1090.69
658.31	1062.60
658.45	1149.20
658.60	1057.92
658.74	1165.59
658.88	1055.58
659.03	1102.39
659.17	1057.92
659.31	1022.81
659.46	1025.15
659.60	1034.52
659.74	1142.18
659.89	1088.35
660.03	973.66
660.17	1205.38
660.32	1060.26
660.46	1057.92
660.60	1039.20
660.74	1076.65
660.89	999.41
661.03	1060.26
661.17	1128.14
661.32	1060.26
661.46	1067.28
661.60	1041.54
661.74	1109.41
661.89	1132.82
662.03	1083.67
662.17	1060.26
662.31	1125.80
662.46	1081.33
662.60	1074.31
662.74	1020.47
662.88	1142.18
663.03	1022.81
663.17	1095.37
663.31	943.24
663.45	1090.69
663.60	1020.47
663.74	1027.50
663.88	1015.79
664.02	1043.88
664.17	1078.99
664.31	1095.37
664.45	1050.90
664.59	1001.75
664.73	990.05
664.88	1074.31
665.02	1034.52
665.16	952.60
665.30	1029.84
665.44	976.00
665.59	990.05
665.73	1071.97
665.87	1088.35
666.01	961.96
666.15	976.00
666.29	983.02
666.44	1076.65
666.58	1034.52
666.72	978.34
666.86	980.68
667.00	1081.33
667.14	1048.56
667.28	1081.33
667.43	1057.92
667.57	959.62
667.71	992.39
667.85	1046.22
667.99	1001.75
668.13	1048.56
668.27	952.60
668.41	943.24
668.56	917.49
668.70	987.71
668.84	1015.79
668.98	983.02
669.12	863.66
669.26	997.07
669.40	999.41
669.54	1006.43
669.68	1046.22
669.82	966.64
669.96	947.92
670.10	1006.43
670.25	1006.43
670.39	997.07
670.53	945.58
670.67	966.64
670.81	938.55
670.95	950.26
671.09	983.02
671.23	983.02
671.37	945.58
671.51	945.58
671.65	938.55
671.79	929.19
671.93	887.06
672.07	950.26
672.21	929.19
672.35	950.26
672.49	968.98
672.63	919.83
672.77	978.34
672.91	894.08
673.05	908.13
673.19	915.15
673.33	976.00
673.47	880.04
673.61	973.66
673.75	891.74
673.89	882.38
674.03	912.81
674.17	910.47
674.31	940.90
674.45	898.77
674.59	805.14
674.73	903.45
674.87	887.06
675.01	844.93
675.15	933.87
675.29	973.66
675.43	868.34
675.56	919.83
675.70	868.34
675.84	938.55
675.98	814.51
676.12	875.36
676.26	966.64
676.40	898.77
676.54	807.48
676.68	880.04
676.82	910.47
676.96	833.23
677.10	835.57
677.23	880.04
677.37	884.72
677.51	936.21
677.65	912.81
677.79	816.85
677.93	910.47
678.07	837.91
678.21	732.59
678.34	744.29
678.48	791.10
678.62	851.96
678.76	781.74
678.90	884.72
679.04	753.65
679.18	732.59
679.31	784.08
679.45	765.36
679.59	732.59
679.73	751.31
679.87	716.20
680.00	807.48
680.14	706.84
680.28	814.51
680.42	774.72
680.56	849.61
680.70	812.17
680.83	877.70
680.97	849.61
681.11	866.00
681.25	772.38
681.39	807.48
681.52	842.59
681.66	688.12
681.80	765.36
681.94	737.27
682.07	746.63
682.21	819.19
682.35	718.54
682.49	725.57
682.62	805.14
682.76	791.10
682.90	767.70
683.04	847.27
683.17	798.12
683.31	851.96
683.45	819.19
683.59	732.59
683.72	713.86
683.86	788.76
684.00	660.03
684.13	748.97
684.27	711.52
684.41	676.41
684.55	730.25
684.68	755.99
684.82	685.78
684.96	671.73
685.09	713.86
685.23	657.69
685.37	678.76
685.50	674.07
685.64	826.21
685.78	650.67
685.91	770.04
686.05	699.82
686.19	660.03
686.32	596.84
686.46	594.50
686.60	491.51
686.73	512.58
686.87	433.00
687.01	449.38
687.14	362.78
687.28	507.90
687.42	435.34
687.55	475.13
687.69	540.66
687.82	498.53
687.96	599.18
688.10	571.09
688.23	596.84
688.37	620.24
688.50	554.71
688.64	496.19
688.78	535.98
688.91	578.11
689.05	433.00
689.18	526.62
689.32	550.03
689.46	512.58
689.59	510.24
689.73	596.84
689.86	498.53
690.00	545.34
690.13	540.66
690.27	550.03
690.41	543.00
690.54	582.79
690.68	545.34
690.81	566.41
690.95	521.94
691.08	475.13
691.22	606.20
691.35	557.05
691.49	636.63
691.62	531.30
691.76	568.75
691.89	545.34
692.03	479.81
692.16	482.15
692.30	493.85
692.43	468.11
692.57	510.24
692.70	582.79
692.84	533.64
692.97	402.57
693.11	582.79
693.24	472.79
693.38	486.83
693.51	517.26
693.65	472.79
693.78	535.98
693.92	400.23
694.05	376.83
694.19	386.19
694.32	514.92
694.45	433.00
694.59	444.70
694.72	458.74
694.86	463.43
694.99	421.30
695.13	416.62
695.26	470.45
695.39	498.53
695.53	463.43
695.66	444.70
695.80	465.77
695.93	388.53
696.07	433.00
696.20	561.73
696.33	482.15
696.47	538.32
696.60	500.87
696.73	484.49
696.87	477.47
697.00	617.90
697.14	517.26
697.27	500.87
697.40	634.29
697.54	550.03
697.67	543.00
697.80	517.26
697.94	491.51
698.07	531.30
698.21	442.36
698.34	524.28
698.47	444.70
698.61	477.47
698.74	472.79
698.87	423.64
699.01	372.15
699.14	400.23
699.27	414.27
699.40	566.41
699.54	430.66
699.67	425.98
699.80	433.00
699.94	447.04
700.07	416.62
700.20	442.36
700.34	454.06
700.47	395.55
700.60	407.25
700.73	348.74
700.87	540.66
701.00	535.98
701.13	369.80
701.26	435.34
701.40	491.51
701.53	404.91
701.66	444.70
701.79	425.98
701.93	447.04
702.06	425.98
702.19	444.70
702.32	376.83
702.46	395.55
702.59	409.59
702.72	442.36
702.85	421.30
702.99	383.85
703.12	482.15
703.25	404.91
703.38	409.59
703.51	423.64
703.65	430.66
703.78	400.23
703.91	407.25
704.04	433.00
704.17	425.98
704.31	447.04
704.44	470.45
704.57	407.25
704.70	451.72
704.83	463.43
704.96	395.55
705.10	411.93
705.23	411.93
>>>>>End Processed Spectral Data<<<<<
