SpectraSuite Data File
++++++++++++++++++++++++++++++++++++
Date: Fri Oct 04 11:44:28 GMT-05:00 2013
User: price-jones
Dark Spectrum Present: No
Reference Spectrum Present: No
Number of Sampled Component Spectra: 1
Spectrometers: USB2+H05261
Integration Time (usec): 100000 (USB2+H05261)
Spectra Averaged: 1 (USB2+H05261)
Boxcar Smoothing: 0 (USB2+H05261)
Correct for Electrical Dark: No (USB2+H05261)
Strobe/Lamp Enabled: No (USB2+H05261)
Correct for Detector Non-linearity: No (USB2+H05261)
Correct for Stray Light: No (USB2+H05261)
Number of Pixels in Processed Spectrum: 2048
>>>>>Begin Processed Spectral Data<<<<<
365.73	0.00
365.92	0.00
366.12	0.00
366.32	0.00
366.52	0.00
366.72	0.00
366.91	0.00
367.11	0.00
367.31	11.70
367.51	0.00
367.70	0.00
367.90	0.00
368.10	0.00
368.30	0.00
368.49	0.00
368.69	0.00
368.89	0.00
369.09	0.00
369.28	0.00
369.48	0.00
369.68	0.00
369.87	0.00
370.07	0.00
370.27	60.85
370.47	9.36
370.66	39.79
370.86	46.81
371.06	126.39
371.25	154.48
371.45	91.28
371.65	154.48
371.84	70.22
372.04	0.00
372.24	72.56
372.44	117.03
372.63	72.56
372.83	128.73
373.03	70.22
373.22	65.54
373.42	102.98
373.62	128.73
373.81	175.54
374.01	152.13
374.21	189.58
374.40	168.52
374.60	152.13
374.79	142.77
374.99	112.35
375.19	168.52
375.38	142.77
375.58	154.48
375.78	182.56
375.97	145.11
376.17	215.33
376.37	117.03
376.56	138.09
376.76	121.71
376.95	79.58
377.15	142.77
377.35	100.64
377.54	128.73
377.74	105.32
377.93	177.88
378.13	152.13
378.33	147.45
378.52	95.96
378.72	135.75
378.91	177.88
379.11	88.94
379.31	63.19
379.50	145.11
379.70	60.85
379.89	170.86
380.09	201.29
380.28	187.24
380.48	147.45
380.68	138.09
380.87	161.50
381.07	86.60
381.26	163.84
381.46	88.94
381.65	152.13
381.85	117.03
382.04	170.86
382.24	51.49
382.43	152.13
382.63	105.32
382.83	98.30
383.02	175.54
383.22	163.84
383.41	124.05
383.61	142.77
383.80	163.84
384.00	126.39
384.19	156.82
384.39	112.35
384.58	117.03
384.78	140.43
384.97	138.09
385.17	105.32
385.36	133.41
385.56	138.09
385.75	91.28
385.95	91.28
386.14	159.16
386.34	114.69
386.53	135.75
386.72	124.05
386.92	140.43
387.11	145.11
387.31	173.20
387.50	175.54
387.70	65.54
387.89	93.62
388.09	63.19
388.28	163.84
388.48	138.09
388.67	133.41
388.86	121.71
389.06	168.52
389.25	147.45
389.45	182.56
389.64	51.49
389.84	245.76
390.03	124.05
390.22	187.24
390.42	145.11
390.61	140.43
390.81	77.24
391.00	166.18
391.19	161.50
391.39	161.50
391.58	133.41
391.78	95.96
391.97	175.54
392.16	95.96
392.36	140.43
392.55	114.69
392.75	110.01
392.94	163.84
393.13	138.09
393.33	119.37
393.52	100.64
393.71	177.88
393.91	131.07
394.10	124.05
394.29	156.82
394.49	124.05
394.68	229.37
394.88	189.58
395.07	227.03
395.26	156.82
395.46	173.20
395.65	88.94
395.84	107.66
396.04	259.80
396.23	102.98
396.42	86.60
396.62	149.79
396.81	159.16
397.00	138.09
397.19	166.18
397.39	196.60
397.58	203.63
397.77	205.97
397.97	182.56
398.16	88.94
398.35	156.82
398.55	124.05
398.74	191.92
398.93	203.63
399.12	121.71
399.32	234.05
399.51	154.48
399.70	234.05
399.90	217.67
400.09	145.11
400.28	156.82
400.47	187.24
400.67	182.56
400.86	156.82
401.05	215.33
401.24	203.63
401.44	177.88
401.63	173.20
401.82	234.05
402.01	177.88
402.21	184.90
402.40	191.92
402.59	191.92
402.78	208.31
402.97	222.35
403.17	187.24
403.36	250.44
403.55	257.46
403.74	145.11
403.93	217.67
404.13	320.65
404.32	278.52
404.51	241.08
404.70	262.14
404.89	191.92
405.09	262.14
405.28	121.71
405.47	187.24
405.66	255.12
405.85	112.35
406.05	131.07
406.24	170.86
406.43	215.33
406.62	173.20
406.81	234.05
407.00	201.29
407.20	217.67
407.39	161.50
407.58	210.65
407.77	234.05
407.96	252.78
408.15	210.65
408.34	184.90
408.54	222.35
408.73	147.45
408.92	154.48
409.11	243.42
409.30	238.73
409.49	117.03
409.68	145.11
409.87	196.60
410.07	184.90
410.26	166.18
410.45	147.45
410.64	191.92
410.83	191.92
411.02	210.65
411.21	241.08
411.40	259.80
411.59	175.54
411.78	217.67
411.98	269.16
412.17	210.65
412.36	262.14
412.55	215.33
412.74	248.10
412.93	283.20
413.12	173.20
413.31	322.99
413.50	255.12
413.69	208.31
413.88	266.82
414.07	229.37
414.26	238.73
414.45	236.39
414.64	145.11
414.83	227.03
415.02	266.82
415.22	212.99
415.41	168.52
415.60	257.46
415.79	252.78
415.98	231.71
416.17	227.03
416.36	154.48
416.55	170.86
416.74	175.54
416.93	294.91
417.12	217.67
417.31	161.50
417.50	227.03
417.69	297.25
417.88	271.50
418.07	229.37
418.26	262.14
418.45	189.58
418.64	315.97
418.83	290.23
419.02	280.86
419.21	222.35
419.39	238.73
419.58	264.48
419.77	180.22
419.96	217.67
420.15	292.57
420.34	224.69
420.53	264.48
420.72	248.10
420.91	269.16
421.10	259.80
421.29	220.01
421.48	236.39
421.67	220.01
421.86	243.42
422.05	217.67
422.24	222.35
422.43	276.18
422.61	257.46
422.80	238.73
422.99	201.29
423.18	271.50
423.37	252.78
423.56	273.84
423.75	203.63
423.94	175.54
424.13	262.14
424.32	161.50
424.50	299.59
424.69	231.71
424.88	217.67
425.07	241.08
425.26	245.76
425.45	271.50
425.64	250.44
425.83	280.86
426.01	294.91
426.20	266.82
426.39	287.89
426.58	245.76
426.77	229.37
426.96	215.33
427.15	264.48
427.33	238.73
427.52	248.10
427.71	201.29
427.90	294.91
428.09	184.90
428.28	269.16
428.46	208.31
428.65	301.93
428.84	252.78
429.03	262.14
429.22	273.84
429.40	259.80
429.59	278.52
429.78	283.20
429.97	152.13
430.16	149.79
430.34	271.50
430.53	212.99
430.72	201.29
430.91	222.35
431.10	166.18
431.28	208.31
431.47	273.84
431.66	248.10
431.85	255.12
432.03	208.31
432.22	313.63
432.41	227.03
432.60	297.25
432.79	227.03
432.97	264.48
433.16	280.86
433.35	276.18
433.54	208.31
433.72	182.56
433.91	294.91
434.10	257.46
434.28	262.14
434.47	229.37
434.66	243.42
434.85	322.99
435.03	402.57
435.22	706.84
435.41	966.64
435.59	1055.58
435.78	823.87
435.97	603.86
436.16	393.21
436.34	306.61
436.53	198.95
436.72	252.78
436.90	280.86
437.09	299.59
437.28	327.68
437.46	248.10
437.65	210.65
437.84	255.12
438.02	315.97
438.21	248.10
438.40	262.14
438.58	299.59
438.77	273.84
438.96	297.25
439.14	264.48
439.33	313.63
439.52	285.55
439.70	287.89
439.89	234.05
440.08	266.82
440.26	264.48
440.45	280.86
440.63	304.27
440.82	327.68
441.01	222.35
441.19	285.55
441.38	290.23
441.57	250.44
441.75	421.30
441.94	313.63
442.12	269.16
442.31	236.39
442.50	259.80
442.68	292.57
442.87	320.65
443.05	367.46
443.24	320.65
443.43	376.83
443.61	301.93
443.80	224.69
443.98	346.40
444.17	311.29
444.35	358.10
444.54	280.86
444.73	346.40
444.91	320.65
445.10	259.80
445.28	243.42
445.47	285.55
445.65	297.25
445.84	241.08
446.02	292.57
446.21	257.46
446.39	311.29
446.58	320.65
446.77	367.46
446.95	339.38
447.14	283.20
447.32	386.19
447.51	278.52
447.69	327.68
447.88	320.65
448.06	339.38
448.25	376.83
448.43	262.14
448.62	320.65
448.80	301.93
448.99	304.27
449.17	395.55
449.36	297.25
449.54	318.31
449.73	257.46
449.91	320.65
450.10	304.27
450.28	372.15
450.46	358.10
450.65	297.25
450.83	236.39
451.02	325.33
451.20	339.38
451.39	294.91
451.57	304.27
451.76	285.55
451.94	320.65
452.13	367.46
452.31	269.16
452.49	332.36
452.68	297.25
452.86	299.59
453.05	313.63
453.23	334.70
453.42	294.91
453.60	290.23
453.78	313.63
453.97	304.27
454.15	351.08
454.34	337.04
454.52	287.89
454.70	276.18
454.89	367.46
455.07	341.72
455.26	330.02
455.44	304.27
455.62	262.14
455.81	308.95
455.99	344.06
456.17	299.59
456.36	290.23
456.54	393.21
456.73	315.97
456.91	285.55
457.09	397.89
457.28	411.93
457.46	313.63
457.64	322.99
457.83	332.36
458.01	297.25
458.19	292.57
458.38	325.33
458.56	379.17
458.74	334.70
458.93	322.99
459.11	285.55
459.29	320.65
459.48	297.25
459.66	332.36
459.84	318.31
460.03	388.53
460.21	325.33
460.39	442.36
460.57	369.80
460.76	404.91
460.94	397.89
461.12	376.83
461.31	299.59
461.49	351.08
461.67	334.70
461.85	348.74
462.04	297.25
462.22	770.04
462.40	327.68
462.59	276.18
462.77	409.59
462.95	360.44
463.13	348.74
463.32	322.99
463.50	374.49
463.68	325.33
463.86	395.55
464.05	374.49
464.23	250.44
464.41	306.61
464.59	320.65
464.78	381.51
464.96	278.52
465.14	308.95
465.32	339.38
465.50	367.46
465.69	365.12
465.87	386.19
466.05	311.29
466.23	362.78
466.41	344.06
466.60	339.38
466.78	318.31
466.96	332.36
467.14	353.42
467.32	416.62
467.51	337.04
467.69	320.65
467.87	353.42
468.05	390.87
468.23	339.38
468.41	285.55
468.60	285.55
468.78	292.57
468.96	351.08
469.14	360.44
469.32	322.99
469.50	283.20
469.69	334.70
469.87	318.31
470.05	351.08
470.23	315.97
470.41	283.20
470.59	355.76
470.77	257.46
470.95	266.82
471.14	341.72
471.32	388.53
471.50	327.68
471.68	330.02
471.86	379.17
472.04	341.72
472.22	346.40
472.40	332.36
472.58	381.51
472.77	337.04
472.95	365.12
473.13	458.74
473.31	341.72
473.49	337.04
473.67	252.78
473.85	327.68
474.03	407.25
474.21	341.72
474.39	308.95
474.57	376.83
474.75	320.65
474.93	285.55
475.12	234.05
475.30	369.80
475.48	372.15
475.66	348.74
475.84	365.12
476.02	383.85
476.20	351.08
476.38	393.21
476.56	383.85
476.74	393.21
476.92	376.83
477.10	376.83
477.28	407.25
477.46	358.10
477.64	372.15
477.82	360.44
478.00	454.06
478.18	463.43
478.36	397.89
478.54	379.17
478.72	341.72
478.90	332.36
479.08	400.23
479.26	381.51
479.44	348.74
479.62	351.08
479.80	362.78
479.98	313.63
480.16	358.10
480.34	402.57
480.52	308.95
480.70	449.38
480.88	423.64
481.06	311.29
481.24	341.72
481.41	402.57
481.59	404.91
481.77	404.91
481.95	369.80
482.13	376.83
482.31	414.27
482.49	402.57
482.67	421.30
482.85	454.06
483.03	524.28
483.21	454.06
483.39	491.51
483.57	531.30
483.74	442.36
483.92	458.74
484.10	416.62
484.28	425.98
484.46	531.30
484.64	503.22
484.82	477.47
485.00	456.40
485.18	447.04
485.35	482.15
485.53	433.00
485.71	514.92
485.89	430.66
486.07	496.19
486.25	575.77
486.43	514.92
486.61	451.72
486.78	475.13
486.96	470.45
487.14	482.15
487.32	533.64
487.50	512.58
487.68	510.24
487.85	571.09
488.03	585.13
488.21	456.40
488.39	433.00
488.57	559.39
488.75	442.36
488.92	816.85
489.10	547.69
489.28	526.62
489.46	468.11
489.64	535.98
489.81	514.92
489.99	599.18
490.17	561.73
490.35	608.54
490.53	505.56
490.70	496.19
490.88	524.28
491.06	592.16
491.24	587.47
491.41	550.03
491.59	557.05
491.77	463.43
491.95	496.19
492.13	507.90
492.30	540.66
492.48	547.69
492.66	543.00
492.84	552.37
493.01	526.62
493.19	500.87
493.37	545.34
493.54	503.22
493.72	550.03
493.90	599.18
494.08	500.87
494.25	550.03
494.43	582.79
494.61	643.65
494.79	582.79
494.96	498.53
495.14	514.92
495.32	571.09
495.49	582.79
495.67	528.96
495.85	543.00
496.02	528.96
496.20	671.73
496.38	566.41
496.55	519.60
496.73	587.47
496.91	538.32
497.09	617.90
497.26	599.18
497.44	526.62
497.62	585.13
497.79	540.66
497.97	512.58
498.14	528.96
498.32	500.87
498.50	521.94
498.67	610.88
498.85	528.96
499.03	505.56
499.20	564.07
499.38	566.41
499.56	531.30
499.73	610.88
499.91	484.49
500.08	550.03
500.26	624.92
500.44	631.94
500.61	571.09
500.79	505.56
500.97	512.58
501.14	615.56
501.32	543.00
501.49	561.73
501.67	596.84
501.84	533.64
502.02	472.79
502.20	524.28
502.37	554.71
502.55	484.49
502.72	503.22
502.90	503.22
503.07	545.34
503.25	613.22
503.43	521.94
503.60	589.82
503.78	491.51
503.95	451.72
504.13	496.19
504.30	524.28
504.48	622.58
504.65	538.32
504.83	575.77
505.01	521.94
505.18	566.41
505.36	498.53
505.53	524.28
505.71	510.24
505.88	573.43
506.06	557.05
506.23	468.11
506.41	444.70
506.58	568.75
506.76	594.50
506.93	531.30
507.11	526.62
507.28	507.90
507.46	561.73
507.63	568.75
507.81	500.87
507.98	519.60
508.16	580.45
508.33	573.43
508.50	610.88
508.68	634.29
508.85	627.26
509.03	631.94
509.20	482.15
509.38	528.96
509.55	547.69
509.73	451.72
509.90	573.43
510.08	526.62
510.25	575.77
510.42	596.84
510.60	535.98
510.77	550.03
510.95	599.18
511.12	615.56
511.30	585.13
511.47	610.88
511.64	603.86
511.82	627.26
511.99	500.87
512.17	571.09
512.34	575.77
512.51	517.26
512.69	538.32
512.86	629.60
513.04	561.73
513.21	594.50
513.38	561.73
513.56	477.47
513.73	500.87
513.90	575.77
514.08	517.26
514.25	599.18
514.43	528.96
514.60	543.00
514.77	629.60
514.95	512.58
515.12	660.03
515.29	566.41
515.47	622.58
515.64	510.24
515.81	496.19
515.99	533.64
516.16	545.34
516.33	521.94
516.51	444.70
516.68	496.19
516.85	510.24
517.03	505.56
517.20	524.28
517.37	578.11
517.54	535.98
517.72	437.68
517.89	526.62
518.06	435.34
518.24	517.26
518.41	512.58
518.58	615.56
518.75	589.82
518.93	550.03
519.10	545.34
519.27	550.03
519.45	528.96
519.62	557.05
519.79	580.45
519.96	561.73
520.14	521.94
520.31	578.11
520.48	507.90
520.65	629.60
520.83	617.90
521.00	582.79
521.17	552.37
521.34	585.13
521.52	594.50
521.69	486.83
521.86	585.13
522.03	685.78
522.20	575.77
522.38	500.87
522.55	521.94
522.72	503.22
522.89	545.34
523.07	575.77
523.24	538.32
523.41	559.39
523.58	533.64
523.75	624.92
523.92	615.56
524.10	580.45
524.27	631.94
524.44	561.73
524.61	559.39
524.78	514.92
524.96	543.00
525.13	505.56
525.30	561.73
525.47	671.73
525.64	585.13
525.81	533.64
525.98	524.28
526.16	514.92
526.33	615.56
526.50	447.04
526.67	543.00
526.84	585.13
527.01	573.43
527.18	519.60
527.36	507.90
527.53	561.73
527.70	636.63
527.87	507.90
528.04	620.24
528.21	482.15
528.38	568.75
528.55	662.37
528.72	613.22
528.89	615.56
529.07	655.35
529.24	601.52
529.41	660.03
529.58	524.28
529.75	580.45
529.92	615.56
530.09	594.50
530.26	552.37
530.43	690.46
530.60	573.43
530.77	627.26
530.94	634.29
531.11	674.07
531.28	589.82
531.46	578.11
531.63	603.86
531.80	512.58
531.97	603.86
532.14	589.82
532.31	573.43
532.48	592.16
532.65	629.60
532.82	573.43
532.99	697.48
533.16	514.92
533.33	608.54
533.50	587.47
533.67	634.29
533.84	634.29
534.01	505.56
534.18	547.69
534.35	557.05
534.52	615.56
534.69	704.50
534.86	594.50
535.03	585.13
535.20	615.56
535.37	566.41
535.54	592.16
535.71	645.99
535.88	692.80
536.05	566.41
536.22	613.22
536.38	662.37
536.55	613.22
536.72	580.45
536.89	657.69
537.06	683.44
537.23	636.63
537.40	617.90
537.57	674.07
537.74	807.48
537.91	732.59
538.08	709.18
538.25	765.36
538.42	631.94
538.59	748.97
538.75	737.27
538.92	739.61
539.09	805.14
539.26	758.33
539.43	746.63
539.60	800.46
539.77	896.43
539.94	905.79
540.11	828.55
540.28	851.96
540.44	922.17
540.61	1022.81
540.78	1046.22
540.95	1142.18
541.12	1184.31
541.29	1324.74
541.46	1472.20
541.62	1430.07
541.79	1409.00
541.96	1341.13
542.13	1380.92
542.30	1338.79
542.47	1331.76
542.63	1221.76
542.80	1336.45
542.97	1320.06
543.14	1296.66
543.31	1310.70
543.48	1093.03
543.64	1364.53
543.81	1240.48
543.98	1378.58
544.15	1247.51
544.32	1275.59
544.48	1247.51
544.65	1174.95
544.82	1256.87
544.99	1179.63
545.16	1177.29
545.32	1226.44
545.49	1806.89
545.66	2483.31
545.83	2972.48
546.00	2544.16
546.16	1921.58
546.33	1621.99
546.50	1329.42
546.67	1191.33
546.83	1069.62
547.00	1043.88
547.17	915.15
547.34	915.15
547.50	931.53
547.67	990.05
547.84	954.94
548.00	847.27
548.17	896.43
548.34	791.10
548.51	924.51
548.67	987.71
548.84	830.89
549.01	873.02
549.18	847.27
549.34	877.70
549.51	877.70
549.68	774.72
549.84	812.17
550.01	706.84
550.18	884.72
550.34	856.64
550.51	767.70
550.68	814.51
550.84	645.99
551.01	741.95
551.18	716.20
551.34	788.76
551.51	713.86
551.68	718.54
551.84	758.33
552.01	718.54
552.18	627.26
552.34	622.58
552.51	671.73
552.68	645.99
552.84	667.05
553.01	641.31
553.18	676.41
553.34	615.56
553.51	589.82
553.67	592.16
553.84	697.48
554.01	575.77
554.17	638.97
554.34	620.24
554.51	657.69
554.67	695.14
554.84	589.82
555.00	716.20
555.17	554.71
555.33	603.86
555.50	681.10
555.67	641.31
555.83	566.41
556.00	592.16
556.16	758.33
556.33	648.33
556.50	535.98
556.66	580.45
556.83	648.33
556.99	517.26
557.16	512.58
557.32	638.97
557.49	557.05
557.65	608.54
557.82	608.54
557.98	550.03
558.15	552.37
558.32	615.56
558.48	491.51
558.65	510.24
558.81	559.39
558.98	608.54
559.14	503.22
559.31	585.13
559.47	573.43
559.64	470.45
559.80	493.85
559.97	545.34
560.13	559.39
560.30	629.60
560.46	498.53
560.63	587.47
560.79	498.53
560.96	514.92
561.12	510.24
561.29	528.96
561.45	526.62
561.61	610.88
561.78	585.13
561.94	486.83
562.11	507.90
562.27	547.69
562.44	540.66
562.60	545.34
562.77	547.69
562.93	648.33
563.10	505.56
563.26	496.19
563.42	524.28
563.59	524.28
563.75	517.26
563.92	533.64
564.08	510.24
564.24	477.47
564.41	533.64
564.57	575.77
564.74	528.96
564.90	545.34
565.07	533.64
565.23	514.92
565.39	496.19
565.56	479.81
565.72	482.15
565.88	468.11
566.05	564.07
566.21	505.56
566.38	568.75
566.54	561.73
566.70	479.81
566.87	524.28
567.03	514.92
567.19	526.62
567.36	540.66
567.52	503.22
567.68	510.24
567.85	514.92
568.01	463.43
568.17	454.06
568.34	491.51
568.50	461.09
568.66	451.72
568.83	524.28
568.99	447.04
569.15	592.16
569.32	451.72
569.48	507.90
569.64	404.91
569.81	517.26
569.97	430.66
570.13	557.05
570.30	512.58
570.46	435.34
570.62	454.06
570.78	472.79
570.95	482.15
571.11	538.32
571.27	472.79
571.43	425.98
571.60	433.00
571.76	463.43
571.92	517.26
572.09	486.83
572.25	475.13
572.41	482.15
572.57	451.72
572.74	624.92
572.90	519.60
573.06	437.68
573.22	505.56
573.38	458.74
573.55	425.98
573.71	493.85
573.87	538.32
574.03	414.27
574.20	540.66
574.36	538.32
574.52	404.91
574.68	465.77
574.84	475.13
575.01	472.79
575.17	533.64
575.33	507.90
575.49	447.04
575.65	517.26
575.82	512.58
575.98	547.69
576.14	526.62
576.30	533.64
576.46	645.99
576.62	901.11
576.79	856.64
576.95	711.52
577.11	622.58
577.27	517.26
577.43	557.05
577.59	615.56
577.75	489.17
577.92	554.71
578.08	463.43
578.24	482.15
578.40	587.47
578.56	753.65
578.72	835.57
578.88	945.58
579.04	805.14
579.21	657.69
579.37	664.71
579.53	610.88
579.69	650.67
579.85	660.03
580.01	645.99
580.17	699.82
580.33	554.71
580.49	627.26
580.65	561.73
580.82	624.92
580.98	568.75
581.14	526.62
581.30	603.86
581.46	671.73
581.62	648.33
581.78	601.52
581.94	559.39
582.10	587.47
582.26	594.50
582.42	692.80
582.58	667.05
582.74	746.63
582.90	678.76
583.06	636.63
583.22	564.07
583.38	613.22
583.54	608.54
583.70	702.16
583.86	617.90
584.02	535.98
584.18	674.07
584.34	603.86
584.50	664.71
584.66	557.05
584.82	547.69
584.98	547.69
585.14	564.07
585.30	631.94
585.46	521.94
585.62	575.77
585.78	538.32
585.94	657.69
586.10	603.86
586.26	664.71
586.42	657.69
586.58	688.12
586.74	685.78
586.90	732.59
587.06	837.91
587.22	692.80
587.38	660.03
587.54	683.44
587.70	706.84
587.86	615.56
588.02	545.34
588.18	489.17
588.34	468.11
588.49	449.38
588.65	414.27
588.81	482.15
588.97	538.32
589.13	496.19
589.29	435.34
589.45	437.68
589.61	433.00
589.77	500.87
589.93	512.58
590.08	477.47
590.24	444.70
590.40	510.24
590.56	528.96
590.72	491.51
590.88	550.03
591.04	566.41
591.20	510.24
591.35	571.09
591.51	547.69
591.67	484.49
591.83	550.03
591.99	510.24
592.15	496.19
592.31	528.96
592.46	580.45
592.62	655.35
592.78	676.41
592.94	615.56
593.10	571.09
593.26	615.56
593.41	585.13
593.57	547.69
593.73	437.68
593.89	552.37
594.05	475.13
594.20	552.37
594.36	470.45
594.52	498.53
594.68	465.77
594.84	491.51
594.99	491.51
595.15	489.17
595.31	444.70
595.47	498.53
595.62	428.32
595.78	414.27
595.94	545.34
596.10	491.51
596.25	454.06
596.41	524.28
596.57	437.68
596.73	433.00
596.88	484.49
597.04	519.60
597.20	451.72
597.36	444.70
597.51	463.43
597.67	440.02
597.83	489.17
597.99	517.26
598.14	440.02
598.30	608.54
598.46	517.26
598.61	578.11
598.77	521.94
598.93	512.58
599.09	547.69
599.24	648.33
599.40	500.87
599.56	470.45
599.71	550.03
599.87	479.81
600.03	440.02
600.18	475.13
600.34	468.11
600.50	461.09
600.65	514.92
600.81	451.72
600.97	393.21
601.12	479.81
601.28	603.86
601.44	535.98
601.59	468.11
601.75	458.74
601.91	400.23
602.06	463.43
602.22	538.32
602.37	503.22
602.53	435.34
602.69	599.18
602.84	484.49
603.00	503.22
603.16	428.32
603.31	470.45
603.47	461.09
603.62	411.93
603.78	468.11
603.94	440.02
604.09	458.74
604.25	503.22
604.40	437.68
604.56	449.38
604.71	507.90
604.87	440.02
605.03	470.45
605.18	458.74
605.34	463.43
605.49	496.19
605.65	435.34
605.80	407.25
605.96	447.04
606.12	458.74
606.27	449.38
606.43	435.34
606.58	500.87
606.74	528.96
606.89	482.15
607.05	566.41
607.20	512.58
607.36	561.73
607.51	461.09
607.67	489.17
607.82	498.53
607.98	610.88
608.13	512.58
608.29	533.64
608.44	603.86
608.60	585.13
608.75	578.11
608.91	648.33
609.06	741.95
609.22	695.14
609.37	739.61
609.53	678.76
609.68	837.91
609.84	912.81
609.99	973.66
610.15	957.28
610.30	1198.35
610.46	1439.43
610.61	1680.50
610.76	1952.01
610.92	2436.50
611.07	2593.31
611.23	2649.49
611.38	2499.69
611.54	2230.53
611.69	1909.88
611.84	1650.08
612.00	1383.26
612.15	1277.93
612.31	1184.31
612.46	1174.95
612.62	1071.97
612.77	950.26
612.92	912.81
613.08	1078.99
613.23	964.30
613.39	929.19
613.54	887.06
613.69	915.15
613.85	830.89
614.00	842.59
614.15	924.51
614.31	830.89
614.46	873.02
614.62	772.38
614.77	770.04
614.92	725.57
615.08	697.48
615.23	734.93
615.38	723.23
615.54	603.86
615.69	594.50
615.84	540.66
616.00	599.18
616.15	500.87
616.30	543.00
616.46	521.94
616.61	503.22
616.76	575.77
616.92	449.38
617.07	496.19
617.22	596.84
617.37	519.60
617.53	552.37
617.68	475.13
617.83	519.60
617.99	465.77
618.14	463.43
618.29	503.22
618.45	454.06
618.60	489.17
618.75	479.81
618.90	442.36
619.06	440.02
619.21	491.51
619.36	425.98
619.51	461.09
619.67	589.82
619.82	531.30
619.97	503.22
620.12	458.74
620.28	528.96
620.43	465.77
620.58	634.29
620.73	521.94
620.89	554.71
621.04	496.19
621.19	543.00
621.34	540.66
621.49	437.68
621.65	477.47
621.80	496.19
621.95	528.96
622.10	493.85
622.25	500.87
622.41	440.02
622.56	503.22
622.71	526.62
622.86	505.56
623.01	491.51
623.16	479.81
623.32	470.45
623.47	486.83
623.62	496.19
623.77	486.83
623.92	521.94
624.07	477.47
624.23	374.49
624.38	430.66
624.53	465.77
624.68	475.13
624.83	500.87
624.98	447.04
625.13	468.11
625.29	369.80
625.44	423.64
625.59	463.43
625.74	528.96
625.89	519.60
626.04	479.81
626.19	482.15
626.34	489.17
626.49	407.25
626.65	514.92
626.80	449.38
626.95	468.11
627.10	463.43
627.25	423.64
627.40	444.70
627.55	372.15
627.70	346.40
627.85	454.06
628.00	393.21
628.15	397.89
628.30	461.09
628.45	447.04
628.60	465.77
628.76	461.09
628.91	414.27
629.06	433.00
629.21	414.27
629.36	468.11
629.51	367.46
629.66	437.68
629.81	423.64
629.96	482.15
630.11	580.45
630.26	484.49
630.41	545.34
630.56	517.26
630.71	500.87
630.86	571.09
631.01	521.94
631.16	594.50
631.31	535.98
631.46	514.92
631.61	416.62
631.76	437.68
631.91	402.57
632.06	423.64
632.21	339.38
632.36	428.32
632.51	393.21
632.66	404.91
632.81	409.59
632.96	393.21
633.10	278.52
633.25	430.66
633.40	308.95
633.55	341.72
633.70	285.55
633.85	330.02
634.00	271.50
634.15	259.80
634.30	374.49
634.45	423.64
634.60	360.44
634.75	339.38
634.90	313.63
635.05	311.29
635.19	341.72
635.34	334.70
635.49	372.15
635.64	360.44
635.79	367.46
635.94	320.65
636.09	374.49
636.24	273.84
636.39	283.20
636.53	372.15
636.68	346.40
636.83	344.06
636.98	369.80
637.13	330.02
637.28	355.76
637.43	320.65
637.57	346.40
637.72	315.97
637.87	313.63
638.02	351.08
638.17	327.68
638.32	358.10
638.46	393.21
638.61	393.21
638.76	372.15
638.91	379.17
639.06	306.61
639.20	353.42
639.35	325.33
639.50	355.76
639.65	421.30
639.80	313.63
639.94	374.49
640.09	411.93
640.24	433.00
640.39	297.25
640.54	276.18
640.68	313.63
640.83	344.06
640.98	252.78
641.13	273.84
641.27	285.55
641.42	299.59
641.57	301.93
641.72	348.74
641.86	290.23
642.01	299.59
642.16	383.85
642.31	433.00
642.45	444.70
642.60	283.20
642.75	294.91
642.90	376.83
643.04	351.08
643.19	339.38
643.34	266.82
643.48	250.44
643.63	304.27
643.78	362.78
643.93	400.23
644.07	308.95
644.22	257.46
644.37	241.08
644.51	397.89
644.66	269.16
644.81	301.93
644.95	318.31
645.10	255.12
645.25	301.93
645.39	337.04
645.54	290.23
645.69	339.38
645.83	220.01
645.98	304.27
646.13	327.68
646.27	262.14
646.42	318.31
646.57	313.63
646.71	299.59
646.86	276.18
647.00	269.16
647.15	313.63
647.30	315.97
647.44	273.84
647.59	252.78
647.74	299.59
647.88	236.39
648.03	264.48
648.17	334.70
648.32	243.42
648.47	292.57
648.61	222.35
648.76	280.86
648.90	308.95
649.05	262.14
649.20	320.65
649.34	248.10
649.49	327.68
649.63	294.91
649.78	311.29
649.92	372.15
650.07	344.06
650.21	341.72
650.36	425.98
650.51	374.49
650.65	414.27
650.80	318.31
650.94	287.89
651.09	301.93
651.23	234.05
651.38	266.82
651.52	339.38
651.67	297.25
651.81	348.74
651.96	369.80
652.10	301.93
652.25	346.40
652.39	287.89
652.54	351.08
652.68	241.08
652.83	332.36
652.97	390.87
653.12	315.97
653.26	280.86
653.41	397.89
653.55	334.70
653.70	243.42
653.84	318.31
653.99	182.56
654.13	255.12
654.27	294.91
654.42	273.84
654.56	238.73
654.71	292.57
654.85	273.84
655.00	266.82
655.14	264.48
655.29	269.16
655.43	290.23
655.57	278.52
655.72	276.18
655.86	241.08
656.01	241.08
656.15	287.89
656.30	278.52
656.44	215.33
656.58	222.35
656.73	304.27
656.87	201.29
657.01	259.80
657.16	322.99
657.30	304.27
657.45	334.70
657.59	262.14
657.73	187.24
657.88	276.18
658.02	311.29
658.16	255.12
658.31	255.12
658.45	252.78
658.60	231.71
658.74	245.76
658.88	301.93
659.03	205.97
659.17	210.65
659.31	245.76
659.46	285.55
659.60	301.93
659.74	269.16
659.89	220.01
660.03	301.93
660.17	313.63
660.32	276.18
660.46	257.46
660.60	269.16
660.74	304.27
660.89	271.50
661.03	327.68
661.17	301.93
661.32	283.20
661.46	287.89
661.60	210.65
661.74	273.84
661.89	311.29
662.03	280.86
662.17	231.71
662.31	322.99
662.46	287.89
662.60	266.82
662.74	248.10
662.88	325.33
663.03	308.95
663.17	259.80
663.31	278.52
663.45	311.29
663.60	215.33
663.74	255.12
663.88	257.46
664.02	278.52
664.17	212.99
664.31	285.55
664.45	292.57
664.59	287.89
664.73	299.59
664.88	308.95
665.02	287.89
665.16	252.78
665.30	269.16
665.44	236.39
665.59	276.18
665.73	234.05
665.87	280.86
666.01	299.59
666.15	294.91
666.29	264.48
666.44	315.97
666.58	372.15
666.72	243.42
666.86	224.69
667.00	217.67
667.14	245.76
667.28	243.42
667.43	264.48
667.57	311.29
667.71	299.59
667.85	264.48
667.99	306.61
668.13	341.72
668.27	313.63
668.41	245.76
668.56	266.82
668.70	301.93
668.84	245.76
668.98	250.44
669.12	264.48
669.26	315.97
669.40	311.29
669.54	337.04
669.68	252.78
669.82	227.03
669.96	318.31
670.10	220.01
670.25	250.44
670.39	276.18
670.53	283.20
670.67	262.14
670.81	187.24
670.95	243.42
671.09	189.58
671.23	285.55
671.37	311.29
671.51	273.84
671.65	250.44
671.79	184.90
671.93	191.92
672.07	222.35
672.21	264.48
672.35	250.44
672.49	306.61
672.63	308.95
672.77	292.57
672.91	259.80
673.05	264.48
673.19	248.10
673.33	227.03
673.47	276.18
673.61	238.73
673.75	212.99
673.89	198.95
674.03	220.01
674.17	257.46
674.31	227.03
674.45	287.89
674.59	203.63
674.73	220.01
674.87	229.37
675.01	241.08
675.15	198.95
675.29	215.33
675.43	266.82
675.56	236.39
675.70	339.38
675.84	271.50
675.98	241.08
676.12	208.31
676.26	241.08
676.40	210.65
676.54	173.20
676.68	245.76
676.82	248.10
676.96	238.73
677.10	280.86
677.23	241.08
677.37	222.35
677.51	234.05
677.65	315.97
677.79	306.61
677.93	320.65
678.07	259.80
678.21	222.35
678.34	257.46
678.48	205.97
678.62	238.73
678.76	278.52
678.90	287.89
679.04	262.14
679.18	259.80
679.31	248.10
679.45	297.25
679.59	243.42
679.73	278.52
679.87	280.86
680.00	285.55
680.14	259.80
680.28	248.10
680.42	262.14
680.56	259.80
680.70	229.37
680.83	198.95
680.97	222.35
681.11	217.67
681.25	290.23
681.39	229.37
681.52	236.39
681.66	203.63
681.80	238.73
681.94	245.76
682.07	191.92
682.21	187.24
682.35	210.65
682.49	196.60
682.62	229.37
682.76	201.29
682.90	173.20
683.04	194.26
683.17	224.69
683.31	203.63
683.45	177.88
683.59	210.65
683.72	262.14
683.86	133.41
684.00	208.31
684.13	238.73
684.27	241.08
684.41	198.95
684.55	259.80
684.68	224.69
684.82	229.37
684.96	250.44
685.09	154.48
685.23	217.67
685.37	196.60
685.50	245.76
685.64	215.33
685.78	194.26
685.91	231.71
686.05	224.69
686.19	276.18
686.32	292.57
686.46	269.16
686.60	140.43
686.73	238.73
686.87	252.78
687.01	84.26
687.14	138.09
687.28	149.79
687.42	227.03
687.55	177.88
687.69	212.99
687.82	170.86
687.96	241.08
688.10	212.99
688.23	145.11
688.37	220.01
688.50	264.48
688.64	182.56
688.78	191.92
688.91	243.42
689.05	224.69
689.18	128.73
689.32	177.88
689.46	166.18
689.59	257.46
689.73	215.33
689.86	184.90
690.00	175.54
690.13	124.05
690.27	161.50
690.41	210.65
690.54	173.20
690.68	145.11
690.81	112.35
690.95	180.22
691.08	133.41
691.22	227.03
691.35	241.08
691.49	128.73
691.62	222.35
691.76	170.86
691.89	191.92
692.03	182.56
692.16	126.39
692.30	168.52
692.43	133.41
692.57	152.13
692.70	159.16
692.84	152.13
692.97	72.56
693.11	135.75
693.24	170.86
693.38	175.54
693.51	191.92
693.65	201.29
693.78	173.20
693.92	86.60
694.05	201.29
694.19	182.56
694.32	110.01
694.45	168.52
694.59	93.62
694.72	173.20
694.86	159.16
694.99	161.50
695.13	177.88
695.26	170.86
695.39	177.88
695.53	140.43
695.66	217.67
695.80	182.56
695.93	168.52
696.07	175.54
696.20	128.73
696.33	156.82
696.47	191.92
696.60	133.41
696.73	154.48
696.87	203.63
697.00	138.09
697.14	255.12
697.27	191.92
697.40	224.69
697.54	140.43
697.67	147.45
697.80	114.69
697.94	149.79
698.07	177.88
698.21	67.88
698.34	142.77
698.47	201.29
698.61	133.41
698.74	93.62
698.87	163.84
699.01	60.85
699.14	93.62
699.27	147.45
699.40	266.82
699.54	217.67
699.67	196.60
699.80	173.20
699.94	142.77
700.07	189.58
700.20	145.11
700.34	159.16
700.47	140.43
700.60	152.13
700.73	135.75
700.87	217.67
701.00	100.64
701.13	126.39
701.26	173.20
701.40	168.52
701.53	145.11
701.66	102.98
701.79	161.50
701.93	168.52
702.06	182.56
702.19	121.71
702.32	175.54
702.46	163.84
702.59	49.15
702.72	156.82
702.85	140.43
702.99	124.05
703.12	182.56
703.25	135.75
703.38	187.24
703.51	128.73
703.65	154.48
703.78	133.41
703.91	119.37
704.04	187.24
704.17	149.79
704.31	110.01
704.44	133.41
704.57	131.07
704.70	217.67
704.83	161.50
704.96	135.75
705.10	159.16
705.23	212.99
>>>>>End Processed Spectral Data<<<<<
