SpectraSuite Data File
++++++++++++++++++++++++++++++++++++
Date: Fri Oct 04 11:47:24 GMT-05:00 2013
User: price-jones
Dark Spectrum Present: No
Reference Spectrum Present: No
Number of Sampled Component Spectra: 1
Spectrometers: USB2+H05261
Integration Time (usec): 100000 (USB2+H05261)
Spectra Averaged: 1 (USB2+H05261)
Boxcar Smoothing: 0 (USB2+H05261)
Correct for Electrical Dark: No (USB2+H05261)
Strobe/Lamp Enabled: No (USB2+H05261)
Correct for Detector Non-linearity: No (USB2+H05261)
Correct for Stray Light: No (USB2+H05261)
Number of Pixels in Processed Spectrum: 2048
>>>>>Begin Processed Spectral Data<<<<<
365.73	18.72
365.92	18.72
366.12	18.72
366.32	0.00
366.52	0.00
366.72	0.00
366.91	0.00
367.11	0.00
367.31	0.00
367.51	0.00
367.70	0.00
367.90	0.00
368.10	0.00
368.30	0.00
368.49	0.00
368.69	0.00
368.89	0.00
369.09	0.00
369.28	0.00
369.48	0.00
369.68	0.00
369.87	0.00
370.07	0.00
370.27	0.00
370.47	44.47
370.66	7.02
370.86	28.09
371.06	67.88
371.25	72.56
371.45	23.41
371.65	100.64
371.84	102.98
372.04	95.96
372.24	70.22
372.44	58.51
372.63	110.01
372.83	67.88
373.03	100.64
373.22	67.88
373.42	84.26
373.62	84.26
373.81	119.37
374.01	110.01
374.21	98.30
374.40	98.30
374.60	93.62
374.79	44.47
374.99	102.98
375.19	145.11
375.38	133.41
375.58	133.41
375.78	117.03
375.97	102.98
376.17	154.48
376.37	124.05
376.56	88.94
376.76	126.39
376.95	81.92
377.15	95.96
377.35	145.11
377.54	63.19
377.74	84.26
377.93	25.75
378.13	180.22
378.33	184.90
378.52	142.77
378.72	79.58
378.91	105.32
379.11	140.43
379.31	128.73
379.50	56.17
379.70	147.45
379.89	161.50
380.09	100.64
380.28	63.19
380.48	102.98
380.68	42.13
380.87	60.85
381.07	133.41
381.26	133.41
381.46	53.83
381.65	173.20
381.85	70.22
382.04	117.03
382.24	86.60
382.43	53.83
382.63	88.94
382.83	102.98
383.02	119.37
383.22	131.07
383.41	86.60
383.61	42.13
383.80	117.03
384.00	91.28
384.19	131.07
384.39	142.77
384.58	44.47
384.78	81.92
384.97	51.49
385.17	77.24
385.36	107.66
385.56	117.03
385.75	84.26
385.95	110.01
386.14	177.88
386.34	117.03
386.53	72.56
386.72	53.83
386.92	86.60
387.11	98.30
387.31	70.22
387.50	114.69
387.70	102.98
387.89	44.47
388.09	93.62
388.28	110.01
388.48	107.66
388.67	81.92
388.86	74.90
389.06	65.54
389.25	131.07
389.45	53.83
389.64	112.35
389.84	67.88
390.03	86.60
390.22	138.09
390.42	98.30
390.61	88.94
390.81	91.28
391.00	166.18
391.19	58.51
391.39	140.43
391.58	138.09
391.78	128.73
391.97	79.58
392.16	88.94
392.36	149.79
392.55	131.07
392.75	102.98
392.94	39.79
393.13	147.45
393.33	70.22
393.52	112.35
393.71	67.88
393.91	105.32
394.10	131.07
394.29	65.54
394.49	60.85
394.68	39.79
394.88	184.90
395.07	173.20
395.26	37.45
395.46	161.50
395.65	81.92
395.84	46.81
396.04	189.58
396.23	110.01
396.42	30.43
396.62	140.43
396.81	142.77
397.00	161.50
397.19	100.64
397.39	135.75
397.58	117.03
397.77	98.30
397.97	131.07
398.16	124.05
398.35	138.09
398.55	168.52
398.74	105.32
398.93	149.79
399.12	88.94
399.32	98.30
399.51	110.01
399.70	121.71
399.90	86.60
400.09	114.69
400.28	124.05
400.47	117.03
400.67	149.79
400.86	138.09
401.05	110.01
401.24	67.88
401.44	140.43
401.63	173.20
401.82	140.43
402.01	117.03
402.21	135.75
402.40	121.71
402.59	135.75
402.78	117.03
402.97	142.77
403.17	100.64
403.36	182.56
403.55	107.66
403.74	145.11
403.93	93.62
404.13	175.54
404.32	156.82
404.51	175.54
404.70	215.33
404.89	119.37
405.09	177.88
405.28	161.50
405.47	138.09
405.66	107.66
405.85	128.73
406.05	189.58
406.24	74.90
406.43	145.11
406.62	124.05
406.81	163.84
407.00	182.56
407.20	166.18
407.39	149.79
407.58	102.98
407.77	121.71
407.96	156.82
408.15	138.09
408.34	65.54
408.54	95.96
408.73	212.99
408.92	156.82
409.11	135.75
409.30	138.09
409.49	131.07
409.68	102.98
409.87	168.52
410.07	135.75
410.26	112.35
410.45	142.77
410.64	163.84
410.83	210.65
411.02	159.16
411.21	58.51
411.40	138.09
411.59	227.03
411.78	173.20
411.98	159.16
412.17	170.86
412.36	102.98
412.55	142.77
412.74	138.09
412.93	187.24
413.12	161.50
413.31	112.35
413.50	152.13
413.69	184.90
413.88	189.58
414.07	135.75
414.26	121.71
414.45	177.88
414.64	191.92
414.83	180.22
415.02	128.73
415.22	191.92
415.41	220.01
415.60	168.52
415.79	234.05
415.98	208.31
416.17	191.92
416.36	105.32
416.55	128.73
416.74	128.73
416.93	198.95
417.12	117.03
417.31	180.22
417.50	126.39
417.69	208.31
417.88	191.92
418.07	105.32
418.26	88.94
418.45	245.76
418.64	194.26
418.83	201.29
419.02	88.94
419.21	212.99
419.39	145.11
419.58	156.82
419.77	102.98
419.96	210.65
420.15	224.69
420.34	163.84
420.53	128.73
420.72	205.97
420.91	145.11
421.10	173.20
421.29	156.82
421.48	156.82
421.67	110.01
421.86	107.66
422.05	166.18
422.24	177.88
422.43	133.41
422.61	182.56
422.80	133.41
422.99	142.77
423.18	138.09
423.37	245.76
423.56	133.41
423.75	257.46
423.94	231.71
424.13	135.75
424.32	168.52
424.50	166.18
424.69	194.26
424.88	156.82
425.07	168.52
425.26	175.54
425.45	166.18
425.64	180.22
425.83	149.79
426.01	142.77
426.20	241.08
426.39	138.09
426.58	145.11
426.77	128.73
426.96	138.09
427.15	138.09
427.33	152.13
427.52	159.16
427.71	147.45
427.90	156.82
428.09	180.22
428.28	187.24
428.46	133.41
428.65	117.03
428.84	196.60
429.03	259.80
429.22	168.52
429.40	161.50
429.59	177.88
429.78	119.37
429.97	110.01
430.16	91.28
430.34	156.82
430.53	107.66
430.72	74.90
430.91	100.64
431.10	74.90
431.28	159.16
431.47	175.54
431.66	152.13
431.85	194.26
432.03	170.86
432.22	271.50
432.41	217.67
432.60	161.50
432.79	138.09
432.97	177.88
433.16	86.60
433.35	163.84
433.54	177.88
433.72	205.97
433.91	196.60
434.10	194.26
434.28	110.01
434.47	133.41
434.66	135.75
434.85	131.07
435.03	175.54
435.22	222.35
435.41	152.13
435.59	236.39
435.78	271.50
435.97	142.77
436.16	222.35
436.34	273.84
436.53	142.77
436.72	234.05
436.90	194.26
437.09	124.05
437.28	159.16
437.46	142.77
437.65	208.31
437.84	100.64
438.02	114.69
438.21	166.18
438.40	208.31
438.58	198.95
438.77	238.73
438.96	147.45
439.14	203.63
439.33	264.48
439.52	177.88
439.70	142.77
439.89	194.26
440.08	173.20
440.26	149.79
440.45	229.37
440.63	173.20
440.82	112.35
441.01	168.52
441.19	184.90
441.38	180.22
441.57	187.24
441.75	196.60
441.94	236.39
442.12	152.13
442.31	131.07
442.50	135.75
442.68	135.75
442.87	196.60
443.05	201.29
443.24	145.11
443.43	264.48
443.61	217.67
443.80	229.37
443.98	168.52
444.17	117.03
444.35	215.33
444.54	198.95
444.73	236.39
444.91	220.01
445.10	114.69
445.28	205.97
445.47	203.63
445.65	191.92
445.84	208.31
446.02	217.67
446.21	152.13
446.39	266.82
446.58	215.33
446.77	133.41
446.95	198.95
447.14	175.54
447.32	301.93
447.51	156.82
447.69	241.08
447.88	191.92
448.06	177.88
448.25	229.37
448.43	194.26
448.62	166.18
448.80	217.67
448.99	196.60
449.17	168.52
449.36	177.88
449.54	173.20
449.73	182.56
449.91	175.54
450.10	203.63
450.28	224.69
450.46	297.25
450.65	231.71
450.83	252.78
451.02	140.43
451.20	269.16
451.39	198.95
451.57	231.71
451.76	229.37
451.94	203.63
452.13	189.58
452.31	255.12
452.49	255.12
452.68	191.92
452.86	187.24
453.05	229.37
453.23	180.22
453.42	159.16
453.60	161.50
453.78	252.78
453.97	187.24
454.15	196.60
454.34	236.39
454.52	203.63
454.70	187.24
454.89	208.31
455.07	245.76
455.26	205.97
455.44	290.23
455.62	152.13
455.81	229.37
455.99	220.01
456.17	147.45
456.36	182.56
456.54	191.92
456.73	203.63
456.91	234.05
457.09	173.20
457.28	168.52
457.46	203.63
457.64	140.43
457.83	203.63
458.01	238.73
458.19	262.14
458.38	98.30
458.56	121.71
458.74	182.56
458.93	210.65
459.11	145.11
459.29	191.92
459.48	227.03
459.66	229.37
459.84	222.35
460.03	292.57
460.21	140.43
460.39	220.01
460.57	180.22
460.76	243.42
460.94	241.08
461.12	168.52
461.31	301.93
461.49	152.13
461.67	245.76
461.85	173.20
462.04	210.65
462.22	699.82
462.40	257.46
462.59	173.20
462.77	208.31
462.95	175.54
463.13	177.88
463.32	220.01
463.50	180.22
463.68	229.37
463.86	180.22
464.05	220.01
464.23	255.12
464.41	224.69
464.59	196.60
464.78	203.63
464.96	210.65
465.14	159.16
465.32	154.48
465.50	177.88
465.69	278.52
465.87	271.50
466.05	191.92
466.23	128.73
466.41	173.20
466.60	215.33
466.78	227.03
466.96	191.92
467.14	184.90
467.32	271.50
467.51	205.97
467.69	189.58
467.87	180.22
468.05	184.90
468.23	262.14
468.41	287.89
468.60	161.50
468.78	180.22
468.96	264.48
469.14	159.16
469.32	163.84
469.50	166.18
469.69	177.88
469.87	243.42
470.05	243.42
470.23	110.01
470.41	217.67
470.59	217.67
470.77	243.42
470.95	203.63
471.14	236.39
471.32	231.71
471.50	266.82
471.68	217.67
471.86	201.29
472.04	182.56
472.22	245.76
472.40	131.07
472.58	196.60
472.77	266.82
472.95	191.92
473.13	327.68
473.31	236.39
473.49	210.65
473.67	208.31
473.85	285.55
474.03	224.69
474.21	278.52
474.39	264.48
474.57	337.04
474.75	292.57
474.93	262.14
475.12	198.95
475.30	203.63
475.48	210.65
475.66	224.69
475.84	215.33
476.02	201.29
476.20	276.18
476.38	250.44
476.56	320.65
476.74	224.69
476.92	243.42
477.10	285.55
477.28	273.84
477.46	175.54
477.64	259.80
477.82	229.37
478.00	294.91
478.18	252.78
478.36	220.01
478.54	203.63
478.72	196.60
478.90	224.69
479.08	243.42
479.26	301.93
479.44	252.78
479.62	259.80
479.80	266.82
479.98	299.59
480.16	358.10
480.34	220.01
480.52	241.08
480.70	273.84
480.88	231.71
481.06	201.29
481.24	220.01
481.41	212.99
481.59	294.91
481.77	210.65
481.95	259.80
482.13	360.44
482.31	280.86
482.49	222.35
482.67	287.89
482.85	306.61
483.03	271.50
483.21	248.10
483.39	322.99
483.57	255.12
483.74	322.99
483.92	280.86
484.10	259.80
484.28	304.27
484.46	278.52
484.64	205.97
484.82	259.80
485.00	205.97
485.18	187.24
485.35	264.48
485.53	278.52
485.71	353.42
485.89	248.10
486.07	287.89
486.25	224.69
486.43	269.16
486.61	280.86
486.78	224.69
486.96	259.80
487.14	248.10
487.32	290.23
487.50	203.63
487.68	241.08
487.85	271.50
488.03	320.65
488.21	308.95
488.39	304.27
488.57	318.31
488.75	234.05
488.92	552.37
489.10	313.63
489.28	325.33
489.46	269.16
489.64	304.27
489.81	294.91
489.99	369.80
490.17	266.82
490.35	337.04
490.53	325.33
490.70	266.82
490.88	353.42
491.06	313.63
491.24	337.04
491.41	358.10
491.59	301.93
491.77	280.86
491.95	234.05
492.13	292.57
492.30	287.89
492.48	292.57
492.66	271.50
492.84	252.78
493.01	283.20
493.19	290.23
493.37	402.57
493.54	367.46
493.72	376.83
493.90	224.69
494.08	353.42
494.25	334.70
494.43	339.38
494.61	355.76
494.79	388.53
494.96	259.80
495.14	322.99
495.32	327.68
495.49	276.18
495.67	313.63
495.85	287.89
496.02	330.02
496.20	388.53
496.38	339.38
496.55	301.93
496.73	397.89
496.91	362.78
497.09	311.29
497.26	351.08
497.44	358.10
497.62	341.72
497.79	355.76
497.97	276.18
498.14	285.55
498.32	278.52
498.50	322.99
498.67	292.57
498.85	348.74
499.03	402.57
499.20	348.74
499.38	376.83
499.56	407.25
499.73	418.96
499.91	372.15
500.08	374.49
500.26	348.74
500.44	381.51
500.61	344.06
500.79	379.17
500.97	283.20
501.14	318.31
501.32	257.46
501.49	353.42
501.67	353.42
501.84	332.36
502.02	271.50
502.20	348.74
502.37	348.74
502.55	379.17
502.72	252.78
502.90	407.25
503.07	337.04
503.25	346.40
503.43	353.42
503.60	325.33
503.78	299.59
503.95	334.70
504.13	320.65
504.30	346.40
504.48	330.02
504.65	318.31
504.83	362.78
505.01	348.74
505.18	461.09
505.36	433.00
505.53	400.23
505.71	355.76
505.88	383.85
506.06	318.31
506.23	358.10
506.41	395.55
506.58	383.85
506.76	428.32
506.93	330.02
507.11	283.20
507.28	351.08
507.46	379.17
507.63	353.42
507.81	330.02
507.98	365.12
508.16	348.74
508.33	362.78
508.50	360.44
508.68	351.08
508.85	428.32
509.03	358.10
509.20	442.36
509.38	358.10
509.55	383.85
509.73	313.63
509.90	355.76
510.08	425.98
510.25	376.83
510.42	411.93
510.60	348.74
510.77	397.89
510.95	358.10
511.12	409.59
511.30	421.30
511.47	367.46
511.64	407.25
511.82	388.53
511.99	365.12
512.17	390.87
512.34	346.40
512.51	358.10
512.69	348.74
512.86	428.32
513.04	376.83
513.21	423.64
513.38	365.12
513.56	339.38
513.73	374.49
513.90	332.36
514.08	339.38
514.25	374.49
514.43	365.12
514.60	325.33
514.77	386.19
514.95	353.42
515.12	390.87
515.29	372.15
515.47	477.47
515.64	334.70
515.81	348.74
515.99	416.62
516.16	374.49
516.33	283.20
516.51	308.95
516.68	262.14
516.85	299.59
517.03	351.08
517.20	428.32
517.37	463.43
517.54	273.84
517.72	353.42
517.89	353.42
518.06	374.49
518.24	428.32
518.41	365.12
518.58	381.51
518.75	330.02
518.93	353.42
519.10	271.50
519.27	372.15
519.45	379.17
519.62	407.25
519.79	451.72
519.96	411.93
520.14	325.33
520.31	346.40
520.48	332.36
520.65	376.83
520.83	470.45
521.00	425.98
521.17	362.78
521.34	397.89
521.52	451.72
521.69	365.12
521.86	362.78
522.03	423.64
522.20	386.19
522.38	360.44
522.55	367.46
522.72	325.33
522.89	411.93
523.07	447.04
523.24	414.27
523.41	407.25
523.58	428.32
523.75	383.85
523.92	325.33
524.10	498.53
524.27	395.55
524.44	440.02
524.61	421.30
524.78	404.91
524.96	414.27
525.13	353.42
525.30	393.21
525.47	449.38
525.64	369.80
525.81	369.80
525.98	381.51
526.16	379.17
526.33	344.06
526.50	341.72
526.67	311.29
526.84	454.06
527.01	358.10
527.18	381.51
527.36	404.91
527.53	346.40
527.70	369.80
527.87	433.00
528.04	444.70
528.21	416.62
528.38	458.74
528.55	458.74
528.72	465.77
528.89	414.27
529.07	500.87
529.24	386.19
529.41	437.68
529.58	388.53
529.75	423.64
529.92	386.19
530.09	409.59
530.26	498.53
530.43	491.51
530.60	362.78
530.77	421.30
530.94	421.30
531.11	479.81
531.28	489.17
531.46	388.53
531.63	411.93
531.80	472.79
531.97	362.78
532.14	418.96
532.31	402.57
532.48	395.55
532.65	376.83
532.82	407.25
532.99	430.66
533.16	416.62
533.33	416.62
533.50	304.27
533.67	365.12
533.84	381.51
534.01	395.55
534.18	327.68
534.35	386.19
534.52	330.02
534.69	486.83
534.86	463.43
535.03	362.78
535.20	402.57
535.37	437.68
535.54	425.98
535.71	486.83
535.88	484.49
536.05	355.76
536.22	418.96
536.38	428.32
536.55	358.10
536.72	397.89
536.89	311.29
537.06	468.11
537.23	468.11
537.40	414.27
537.57	416.62
537.74	386.19
537.91	447.04
538.08	428.32
538.25	444.70
538.42	437.68
538.59	390.87
538.75	360.44
538.92	341.72
539.09	470.45
539.26	411.93
539.43	425.98
539.60	390.87
539.77	402.57
539.94	393.21
540.11	428.32
540.28	341.72
540.44	400.23
540.61	418.96
540.78	400.23
540.95	365.12
541.12	440.02
541.29	372.15
541.46	416.62
541.62	475.13
541.79	414.27
541.96	381.51
542.13	306.61
542.30	318.31
542.47	423.64
542.63	400.23
542.80	367.46
542.97	383.85
543.14	367.46
543.31	416.62
543.48	400.23
543.64	440.02
543.81	407.25
543.98	409.59
544.15	425.98
544.32	421.30
544.48	358.10
544.65	425.98
544.82	355.76
544.99	344.06
545.16	414.27
545.32	395.55
545.49	444.70
545.66	444.70
545.83	397.89
546.00	407.25
546.16	444.70
546.33	341.72
546.50	390.87
546.67	409.59
546.83	379.17
547.00	358.10
547.17	362.78
547.34	348.74
547.50	411.93
547.67	381.51
547.84	376.83
548.00	430.66
548.17	367.46
548.34	442.36
548.51	468.11
548.67	400.23
548.84	376.83
549.01	435.34
549.18	390.87
549.34	390.87
549.51	440.02
549.68	418.96
549.84	428.32
550.01	418.96
550.18	533.64
550.34	444.70
550.51	308.95
550.68	468.11
550.84	482.15
551.01	318.31
551.18	479.81
551.34	376.83
551.51	400.23
551.68	386.19
551.84	449.38
552.01	414.27
552.18	421.30
552.34	428.32
552.51	330.02
552.68	433.00
552.84	283.20
553.01	402.57
553.18	388.53
553.34	339.38
553.51	365.12
553.67	404.91
553.84	465.77
554.01	397.89
554.17	435.34
554.34	372.15
554.51	386.19
554.67	341.72
554.84	369.80
555.00	442.36
555.17	395.55
555.33	500.87
555.50	479.81
555.67	411.93
555.83	353.42
556.00	339.38
556.16	528.96
556.33	454.06
556.50	407.25
556.66	369.80
556.83	428.32
556.99	372.15
557.16	313.63
557.32	397.89
557.49	393.21
557.65	330.02
557.82	372.15
557.98	348.74
558.15	351.08
558.32	341.72
558.48	346.40
558.65	402.57
558.81	367.46
558.98	372.15
559.14	334.70
559.31	348.74
559.47	365.12
559.64	428.32
559.80	369.80
559.97	390.87
560.13	372.15
560.30	465.77
560.46	458.74
560.63	285.55
560.79	461.09
560.96	351.08
561.12	390.87
561.29	362.78
561.45	327.68
561.61	297.25
561.78	472.79
561.94	285.55
562.11	292.57
562.27	285.55
562.44	442.36
562.60	327.68
562.77	379.17
562.93	421.30
563.10	388.53
563.26	409.59
563.42	379.17
563.59	386.19
563.75	294.91
563.92	397.89
564.08	341.72
564.24	390.87
564.41	477.47
564.57	287.89
564.74	383.85
564.90	374.49
565.07	454.06
565.23	337.04
565.39	313.63
565.56	372.15
565.72	393.21
565.88	402.57
566.05	369.80
566.21	430.66
566.38	365.12
566.54	355.76
566.70	306.61
566.87	374.49
567.03	407.25
567.19	388.53
567.36	386.19
567.52	355.76
567.68	433.00
567.85	325.33
568.01	351.08
568.17	341.72
568.34	294.91
568.50	367.46
568.66	367.46
568.83	351.08
568.99	346.40
569.15	358.10
569.32	313.63
569.48	292.57
569.64	367.46
569.81	334.70
569.97	437.68
570.13	414.27
570.30	390.87
570.46	372.15
570.62	372.15
570.78	393.21
570.95	332.36
571.11	421.30
571.27	409.59
571.43	369.80
571.60	339.38
571.76	306.61
571.92	409.59
572.09	304.27
572.25	367.46
572.41	334.70
572.57	395.55
572.74	320.65
572.90	437.68
573.06	430.66
573.22	367.46
573.38	367.46
573.55	381.51
573.71	428.32
573.87	308.95
574.03	337.04
574.20	322.99
574.36	430.66
574.52	273.84
574.68	308.95
574.84	334.70
575.01	416.62
575.17	362.78
575.33	374.49
575.49	414.27
575.65	346.40
575.82	365.12
575.98	475.13
576.14	308.95
576.30	358.10
576.46	365.12
576.62	355.76
576.79	285.55
576.95	369.80
577.11	255.12
577.27	353.42
577.43	325.33
577.59	386.19
577.75	381.51
577.92	337.04
578.08	404.91
578.24	332.36
578.40	353.42
578.56	390.87
578.72	339.38
578.88	425.98
579.04	388.53
579.21	409.59
579.37	372.15
579.53	351.08
579.69	337.04
579.85	407.25
580.01	386.19
580.17	414.27
580.33	297.25
580.49	351.08
580.65	318.31
580.82	351.08
580.98	278.52
581.14	379.17
581.30	402.57
581.46	388.53
581.62	423.64
581.78	297.25
581.94	395.55
582.10	397.89
582.26	383.85
582.42	351.08
582.58	362.78
582.74	355.76
582.90	397.89
583.06	337.04
583.22	299.59
583.38	397.89
583.54	407.25
583.70	351.08
583.86	397.89
584.02	355.76
584.18	367.46
584.34	325.33
584.50	428.32
584.66	418.96
584.82	311.29
584.98	360.44
585.14	337.04
585.30	365.12
585.46	372.15
585.62	330.02
585.78	397.89
585.94	332.36
586.10	404.91
586.26	292.57
586.42	360.44
586.58	313.63
586.74	379.17
586.90	397.89
587.06	355.76
587.22	416.62
587.38	283.20
587.54	306.61
587.70	374.49
587.86	383.85
588.02	332.36
588.18	327.68
588.34	327.68
588.49	276.18
588.65	271.50
588.81	327.68
588.97	168.52
589.13	245.76
589.29	234.05
589.45	330.02
589.61	283.20
589.77	358.10
589.93	301.93
590.08	313.63
590.24	334.70
590.40	341.72
590.56	306.61
590.72	278.52
590.88	318.31
591.04	339.38
591.20	367.46
591.35	390.87
591.51	325.33
591.67	245.76
591.83	236.39
591.99	383.85
592.15	315.97
592.31	355.76
592.46	255.12
592.62	351.08
592.78	290.23
592.94	348.74
593.10	285.55
593.26	376.83
593.41	425.98
593.57	292.57
593.73	301.93
593.89	273.84
594.05	320.65
594.20	332.36
594.36	262.14
594.52	208.31
594.68	355.76
594.84	330.02
594.99	330.02
595.15	327.68
595.31	372.15
595.47	374.49
595.62	301.93
595.78	318.31
595.94	297.25
596.10	301.93
596.25	278.52
596.41	346.40
596.57	306.61
596.73	283.20
596.88	252.78
597.04	297.25
597.20	327.68
597.36	276.18
597.51	299.59
597.67	252.78
597.83	280.86
597.99	330.02
598.14	372.15
598.30	346.40
598.46	407.25
598.61	322.99
598.77	367.46
598.93	351.08
599.09	327.68
599.24	407.25
599.40	308.95
599.56	315.97
599.71	334.70
599.87	344.06
600.03	360.44
600.18	290.23
600.34	365.12
600.50	379.17
600.65	285.55
600.81	287.89
600.97	252.78
601.12	320.65
601.28	379.17
601.44	278.52
601.59	341.72
601.75	290.23
601.91	339.38
602.06	362.78
602.22	348.74
602.37	341.72
602.53	231.71
602.69	327.68
602.84	320.65
603.00	409.59
603.16	327.68
603.31	360.44
603.47	330.02
603.62	362.78
603.78	334.70
603.94	365.12
604.09	353.42
604.25	372.15
604.40	327.68
604.56	318.31
604.71	294.91
604.87	311.29
605.03	332.36
605.18	322.99
605.34	390.87
605.49	355.76
605.65	318.31
605.80	313.63
605.96	276.18
606.12	325.33
606.27	376.83
606.43	318.31
606.58	379.17
606.74	390.87
606.89	299.59
607.05	379.17
607.20	299.59
607.36	353.42
607.51	283.20
607.67	355.76
607.82	437.68
607.98	355.76
608.13	273.84
608.29	362.78
608.44	367.46
608.60	351.08
608.75	330.02
608.91	341.72
609.06	337.04
609.22	278.52
609.37	348.74
609.53	306.61
609.68	311.29
609.84	287.89
609.99	337.04
610.15	299.59
610.30	339.38
610.46	416.62
610.61	287.89
610.76	264.48
610.92	402.57
611.07	360.44
611.23	402.57
611.38	386.19
611.54	327.68
611.69	318.31
611.84	287.89
612.00	327.68
612.15	306.61
612.31	376.83
612.46	287.89
612.62	322.99
612.77	381.51
612.92	341.72
613.08	306.61
613.23	332.36
613.39	344.06
613.54	313.63
613.69	252.78
613.85	344.06
614.00	322.99
614.15	273.84
614.31	259.80
614.46	365.12
614.62	269.16
614.77	283.20
614.92	360.44
615.08	294.91
615.23	315.97
615.38	351.08
615.54	301.93
615.69	383.85
615.84	231.71
616.00	248.10
616.15	210.65
616.30	315.97
616.46	264.48
616.61	346.40
616.76	318.31
616.92	283.20
617.07	358.10
617.22	252.78
617.37	290.23
617.53	306.61
617.68	285.55
617.83	285.55
617.99	287.89
618.14	299.59
618.29	344.06
618.45	367.46
618.60	376.83
618.75	259.80
618.90	276.18
619.06	264.48
619.21	266.82
619.36	290.23
619.51	299.59
619.67	325.33
619.82	322.99
619.97	264.48
620.12	304.27
620.28	353.42
620.43	262.14
620.58	320.65
620.73	262.14
620.89	306.61
621.04	348.74
621.19	311.29
621.34	365.12
621.49	325.33
621.65	327.68
621.80	315.97
621.95	243.42
622.10	306.61
622.25	332.36
622.41	217.67
622.56	259.80
622.71	292.57
622.86	297.25
623.01	306.61
623.16	287.89
623.32	227.03
623.47	287.89
623.62	250.44
623.77	266.82
623.92	285.55
624.07	252.78
624.23	297.25
624.38	301.93
624.53	330.02
624.68	278.52
624.83	301.93
624.98	297.25
625.13	327.68
625.29	325.33
625.44	297.25
625.59	290.23
625.74	360.44
625.89	327.68
626.04	241.08
626.19	203.63
626.34	297.25
626.49	257.46
626.65	238.73
626.80	238.73
626.95	266.82
627.10	252.78
627.25	205.97
627.40	255.12
627.55	241.08
627.70	234.05
627.85	227.03
628.00	259.80
628.15	283.20
628.30	255.12
628.45	212.99
628.60	318.31
628.76	283.20
628.91	262.14
629.06	257.46
629.21	294.91
629.36	287.89
629.51	262.14
629.66	341.72
629.81	215.33
629.96	299.59
630.11	311.29
630.26	353.42
630.41	245.76
630.56	290.23
630.71	297.25
630.86	306.61
631.01	212.99
631.16	311.29
631.31	259.80
631.46	322.99
631.61	271.50
631.76	283.20
631.91	252.78
632.06	278.52
632.21	299.59
632.36	325.33
632.51	264.48
632.66	187.24
632.81	224.69
632.96	259.80
633.10	269.16
633.25	299.59
633.40	299.59
633.55	285.55
633.70	308.95
633.85	250.44
634.00	339.38
634.15	222.35
634.30	234.05
634.45	269.16
634.60	231.71
634.75	315.97
634.90	243.42
635.05	264.48
635.19	196.60
635.34	346.40
635.49	280.86
635.64	276.18
635.79	353.42
635.94	297.25
636.09	294.91
636.24	222.35
636.39	227.03
636.53	217.67
636.68	266.82
636.83	215.33
636.98	318.31
637.13	264.48
637.28	344.06
637.43	283.20
637.57	367.46
637.72	315.97
637.87	337.04
638.02	259.80
638.17	283.20
638.32	301.93
638.46	276.18
638.61	287.89
638.76	271.50
638.91	287.89
639.06	320.65
639.20	355.76
639.35	322.99
639.50	194.26
639.65	280.86
639.80	280.86
639.94	243.42
640.09	259.80
640.24	283.20
640.39	315.97
640.54	320.65
640.68	301.93
640.83	222.35
640.98	236.39
641.13	212.99
641.27	257.46
641.42	266.82
641.57	252.78
641.72	208.31
641.86	257.46
642.01	224.69
642.16	301.93
642.31	259.80
642.45	290.23
642.60	238.73
642.75	208.31
642.90	262.14
643.04	266.82
643.19	318.31
643.34	271.50
643.48	266.82
643.63	203.63
643.78	348.74
643.93	313.63
644.07	243.42
644.22	248.10
644.37	248.10
644.51	245.76
644.66	248.10
644.81	266.82
644.95	330.02
645.10	266.82
645.25	212.99
645.39	234.05
645.54	152.13
645.69	271.50
645.83	215.33
645.98	290.23
646.13	191.92
646.27	346.40
646.42	212.99
646.57	262.14
646.71	257.46
646.86	257.46
647.00	285.55
647.15	259.80
647.30	175.54
647.44	224.69
647.59	271.50
647.74	187.24
647.88	252.78
648.03	222.35
648.17	287.89
648.32	175.54
648.47	229.37
648.61	229.37
648.76	273.84
648.90	173.20
649.05	231.71
649.20	224.69
649.34	205.97
649.49	166.18
649.63	241.08
649.78	201.29
649.92	278.52
650.07	280.86
650.21	238.73
650.36	238.73
650.51	257.46
650.65	313.63
650.80	255.12
650.94	231.71
651.09	184.90
651.23	208.31
651.38	269.16
651.52	236.39
651.67	229.37
651.81	299.59
651.96	227.03
652.10	257.46
652.25	189.58
652.39	255.12
652.54	278.52
652.68	301.93
652.83	215.33
652.97	238.73
653.12	217.67
653.26	135.75
653.41	269.16
653.55	177.88
653.70	187.24
653.84	252.78
653.99	170.86
654.13	198.95
654.27	222.35
654.42	184.90
654.56	313.63
654.71	222.35
654.85	180.22
655.00	227.03
655.14	238.73
655.29	257.46
655.43	243.42
655.57	217.67
655.72	243.42
655.86	212.99
656.01	135.75
656.15	231.71
656.30	196.60
656.44	212.99
656.58	231.71
656.73	166.18
656.87	236.39
657.01	163.84
657.16	262.14
657.30	198.95
657.45	283.20
657.59	229.37
657.73	191.92
657.88	315.97
658.02	257.46
658.16	292.57
658.31	170.86
658.45	231.71
658.60	133.41
658.74	259.80
658.88	119.37
659.03	208.31
659.17	259.80
659.31	189.58
659.46	159.16
659.60	252.78
659.74	245.76
659.89	187.24
660.03	241.08
660.17	198.95
660.32	217.67
660.46	250.44
660.60	266.82
660.74	227.03
660.89	257.46
661.03	241.08
661.17	255.12
661.32	196.60
661.46	234.05
661.60	205.97
661.74	264.48
661.89	339.38
662.03	180.22
662.17	287.89
662.31	229.37
662.46	278.52
662.60	262.14
662.74	271.50
662.88	231.71
663.03	201.29
663.17	196.60
663.31	208.31
663.45	229.37
663.60	196.60
663.74	208.31
663.88	222.35
664.02	238.73
664.17	205.97
664.31	159.16
664.45	234.05
664.59	187.24
664.73	142.77
664.88	227.03
665.02	212.99
665.16	187.24
665.30	243.42
665.44	283.20
665.59	236.39
665.73	196.60
665.87	245.76
666.01	241.08
666.15	255.12
666.29	222.35
666.44	234.05
666.58	280.86
666.72	198.95
666.86	210.65
667.00	215.33
667.14	156.82
667.28	220.01
667.43	238.73
667.57	212.99
667.71	177.88
667.85	220.01
667.99	145.11
668.13	243.42
668.27	243.42
668.41	208.31
668.56	224.69
668.70	257.46
668.84	243.42
668.98	220.01
669.12	126.39
669.26	187.24
669.40	257.46
669.54	245.76
669.68	262.14
669.82	170.86
669.96	266.82
670.10	154.48
670.25	238.73
670.39	318.31
670.53	180.22
670.67	175.54
670.81	175.54
670.95	198.95
671.09	140.43
671.23	294.91
671.37	168.52
671.51	152.13
671.65	269.16
671.79	210.65
671.93	283.20
672.07	266.82
672.21	196.60
672.35	126.39
672.49	163.84
672.63	299.59
672.77	159.16
672.91	194.26
673.05	205.97
673.19	262.14
673.33	212.99
673.47	243.42
673.61	173.20
673.75	255.12
673.89	227.03
674.03	168.52
674.17	184.90
674.31	208.31
674.45	252.78
674.59	175.54
674.73	227.03
674.87	177.88
675.01	198.95
675.15	191.92
675.29	203.63
675.43	220.01
675.56	301.93
675.70	341.72
675.84	126.39
675.98	177.88
676.12	208.31
676.26	177.88
676.40	168.52
676.54	173.20
676.68	182.56
676.82	198.95
676.96	142.77
677.10	212.99
677.23	166.18
677.37	198.95
677.51	138.09
677.65	276.18
677.79	84.26
677.93	124.05
678.07	262.14
678.21	145.11
678.34	175.54
678.48	220.01
678.62	212.99
678.76	205.97
678.90	173.20
679.04	189.58
679.18	182.56
679.31	95.96
679.45	142.77
679.59	126.39
679.73	161.50
679.87	215.33
680.00	229.37
680.14	222.35
680.28	100.64
680.42	161.50
680.56	203.63
680.70	205.97
680.83	156.82
680.97	119.37
681.11	182.56
681.25	177.88
681.39	198.95
681.52	173.20
681.66	152.13
681.80	177.88
681.94	184.90
682.07	149.79
682.21	224.69
682.35	217.67
682.49	126.39
682.62	231.71
682.76	154.48
682.90	184.90
683.04	252.78
683.17	173.20
683.31	154.48
683.45	161.50
683.59	231.71
683.72	189.58
683.86	203.63
684.00	273.84
684.13	252.78
684.27	205.97
684.41	222.35
684.55	187.24
684.68	196.60
684.82	114.69
684.96	201.29
685.09	142.77
685.23	154.48
685.37	170.86
685.50	187.24
685.64	215.33
685.78	168.52
685.91	231.71
686.05	271.50
686.19	229.37
686.32	147.45
686.46	168.52
686.60	79.58
686.73	175.54
686.87	124.05
687.01	180.22
687.14	140.43
687.28	154.48
687.42	77.24
687.55	152.13
687.69	175.54
687.82	131.07
687.96	205.97
688.10	177.88
688.23	135.75
688.37	156.82
688.50	191.92
688.64	180.22
688.78	161.50
688.91	135.75
689.05	112.35
689.18	138.09
689.32	81.92
689.46	163.84
689.59	119.37
689.73	166.18
689.86	131.07
690.00	133.41
690.13	117.03
690.27	128.73
690.41	173.20
690.54	119.37
690.68	133.41
690.81	135.75
690.95	187.24
691.08	196.60
691.22	220.01
691.35	67.88
691.49	98.30
691.62	131.07
691.76	152.13
691.89	126.39
692.03	142.77
692.16	152.13
692.30	168.52
692.43	142.77
692.57	131.07
692.70	163.84
692.84	180.22
692.97	184.90
693.11	98.30
693.24	110.01
693.38	182.56
693.51	156.82
693.65	147.45
693.78	154.48
693.92	124.05
694.05	140.43
694.19	133.41
694.32	161.50
694.45	131.07
694.59	74.90
694.72	166.18
694.86	86.60
694.99	102.98
695.13	79.58
695.26	105.32
695.39	72.56
695.53	154.48
695.66	133.41
695.80	224.69
695.93	138.09
696.07	102.98
696.20	124.05
696.33	131.07
696.47	93.62
696.60	107.66
696.73	194.26
696.87	184.90
697.00	208.31
697.14	131.07
697.27	173.20
697.40	245.76
697.54	138.09
697.67	208.31
697.80	210.65
697.94	84.26
698.07	114.69
698.21	156.82
698.34	161.50
698.47	114.69
698.61	131.07
698.74	208.31
698.87	65.54
699.01	60.85
699.14	184.90
699.27	65.54
699.40	262.14
699.54	140.43
699.67	110.01
699.80	93.62
699.94	175.54
700.07	140.43
700.20	63.19
700.34	107.66
700.47	119.37
700.60	39.79
700.73	220.01
700.87	93.62
701.00	131.07
701.13	72.56
701.26	135.75
701.40	152.13
701.53	58.51
701.66	126.39
701.79	131.07
701.93	159.16
702.06	117.03
702.19	205.97
702.32	170.86
702.46	149.79
702.59	112.35
702.72	79.58
702.85	107.66
702.99	147.45
703.12	220.01
703.25	236.39
703.38	205.97
703.51	100.64
703.65	110.01
703.78	107.66
703.91	110.01
704.04	105.32
704.17	88.94
704.31	117.03
704.44	117.03
704.57	84.26
704.70	102.98
704.83	126.39
704.96	131.07
705.10	124.05
705.23	49.15
>>>>>End Processed Spectral Data<<<<<
