SpectraSuite Data File
++++++++++++++++++++++++++++++++++++
Date: Fri Oct 04 11:47:24 GMT-05:00 2013
User: price-jones
Dark Spectrum Present: No
Reference Spectrum Present: No
Number of Sampled Component Spectra: 1
Spectrometers: USB2+H05261
Integration Time (usec): 100000 (USB2+H05261)
Spectra Averaged: 1 (USB2+H05261)
Boxcar Smoothing: 0 (USB2+H05261)
Correct for Electrical Dark: No (USB2+H05261)
Strobe/Lamp Enabled: No (USB2+H05261)
Correct for Detector Non-linearity: No (USB2+H05261)
Correct for Stray Light: No (USB2+H05261)
Number of Pixels in Processed Spectrum: 2048
>>>>>Begin Processed Spectral Data<<<<<
365.73	23.41
365.92	23.41
366.12	23.41
366.32	0.00
366.52	0.00
366.72	0.00
366.91	0.00
367.11	0.00
367.31	0.00
367.51	0.00
367.70	0.00
367.90	0.00
368.10	0.00
368.30	0.00
368.49	0.00
368.69	0.00
368.89	0.00
369.09	0.00
369.28	0.00
369.48	0.00
369.68	0.00
369.87	0.00
370.07	0.00
370.27	0.00
370.47	0.00
370.66	11.70
370.86	35.11
371.06	81.92
371.25	114.69
371.45	28.09
371.65	117.03
371.84	35.11
372.04	18.72
372.24	30.43
372.44	37.45
372.63	65.54
372.83	77.24
373.03	91.28
373.22	114.69
373.42	60.85
373.62	93.62
373.81	100.64
374.01	117.03
374.21	133.41
374.40	72.56
374.60	170.86
374.79	154.48
374.99	51.49
375.19	93.62
375.38	133.41
375.58	70.22
375.78	98.30
375.97	135.75
376.17	112.35
376.37	100.64
376.56	168.52
376.76	58.51
376.95	0.00
377.15	56.17
377.35	112.35
377.54	126.39
377.74	67.88
377.93	140.43
378.13	114.69
378.33	124.05
378.52	74.90
378.72	126.39
378.91	86.60
379.11	74.90
379.31	117.03
379.50	58.51
379.70	72.56
379.89	91.28
380.09	74.90
380.28	112.35
380.48	145.11
380.68	72.56
380.87	105.32
381.07	124.05
381.26	131.07
381.46	121.71
381.65	152.13
381.85	98.30
382.04	117.03
382.24	114.69
382.43	81.92
382.63	0.00
382.83	72.56
383.02	84.26
383.22	184.90
383.41	166.18
383.61	168.52
383.80	77.24
384.00	95.96
384.19	135.75
384.39	102.98
384.58	128.73
384.78	119.37
384.97	124.05
385.17	100.64
385.36	112.35
385.56	70.22
385.75	60.85
385.95	72.56
386.14	117.03
386.34	114.69
386.53	81.92
386.72	56.17
386.92	124.05
387.11	133.41
387.31	145.11
387.50	25.75
387.70	44.47
387.89	95.96
388.09	84.26
388.28	74.90
388.48	112.35
388.67	119.37
388.86	79.58
389.06	77.24
389.25	53.83
389.45	84.26
389.64	131.07
389.84	124.05
390.03	131.07
390.22	154.48
390.42	142.77
390.61	121.71
390.81	110.01
391.00	30.43
391.19	105.32
391.39	100.64
391.58	79.58
391.78	100.64
391.97	72.56
392.16	93.62
392.36	58.51
392.55	154.48
392.75	166.18
392.94	77.24
393.13	72.56
393.33	46.81
393.52	84.26
393.71	152.13
393.91	72.56
394.10	138.09
394.29	44.47
394.49	65.54
394.68	49.15
394.88	168.52
395.07	168.52
395.26	173.20
395.46	124.05
395.65	98.30
395.84	131.07
396.04	222.35
396.23	149.79
396.42	79.58
396.62	105.32
396.81	121.71
397.00	67.88
397.19	91.28
397.39	105.32
397.58	93.62
397.77	100.64
397.97	110.01
398.16	128.73
398.35	124.05
398.55	88.94
398.74	98.30
398.93	222.35
399.12	128.73
399.32	138.09
399.51	173.20
399.70	161.50
399.90	152.13
400.09	205.97
400.28	74.90
400.47	70.22
400.67	147.45
400.86	145.11
401.05	145.11
401.24	231.71
401.44	105.32
401.63	126.39
401.82	257.46
402.01	93.62
402.21	187.24
402.40	88.94
402.59	117.03
402.78	145.11
402.97	163.84
403.17	177.88
403.36	142.77
403.55	154.48
403.74	112.35
403.93	70.22
404.13	198.95
404.32	128.73
404.51	140.43
404.70	142.77
404.89	56.17
405.09	145.11
405.28	140.43
405.47	126.39
405.66	140.43
405.85	201.29
406.05	93.62
406.24	161.50
406.43	135.75
406.62	79.58
406.81	124.05
407.00	145.11
407.20	131.07
407.39	166.18
407.58	102.98
407.77	168.52
407.96	224.69
408.15	161.50
408.34	177.88
408.54	196.60
408.73	105.32
408.92	149.79
409.11	161.50
409.30	133.41
409.49	65.54
409.68	112.35
409.87	175.54
410.07	128.73
410.26	112.35
410.45	147.45
410.64	114.69
410.83	126.39
411.02	175.54
411.21	93.62
411.40	191.92
411.59	163.84
411.78	159.16
411.98	187.24
412.17	140.43
412.36	170.86
412.55	149.79
412.74	194.26
412.93	229.37
413.12	149.79
413.31	140.43
413.50	175.54
413.69	159.16
413.88	168.52
414.07	220.01
414.26	131.07
414.45	124.05
414.64	177.88
414.83	227.03
415.02	173.20
415.22	102.98
415.41	163.84
415.60	149.79
415.79	133.41
415.98	224.69
416.17	177.88
416.36	170.86
416.55	91.28
416.74	161.50
416.93	107.66
417.12	30.43
417.31	117.03
417.50	194.26
417.69	142.77
417.88	170.86
418.07	107.66
418.26	231.71
418.45	217.67
418.64	187.24
418.83	166.18
419.02	117.03
419.21	145.11
419.39	177.88
419.58	156.82
419.77	170.86
419.96	182.56
420.15	184.90
420.34	112.35
420.53	191.92
420.72	224.69
420.91	149.79
421.10	161.50
421.29	184.90
421.48	189.58
421.67	170.86
421.86	102.98
422.05	168.52
422.24	126.39
422.43	166.18
422.61	163.84
422.80	175.54
422.99	168.52
423.18	105.32
423.37	198.95
423.56	161.50
423.75	203.63
423.94	180.22
424.13	201.29
424.32	95.96
424.50	117.03
424.69	147.45
424.88	205.97
425.07	198.95
425.26	147.45
425.45	187.24
425.64	119.37
425.83	84.26
426.01	149.79
426.20	159.16
426.39	145.11
426.58	152.13
426.77	175.54
426.96	152.13
427.15	180.22
427.33	117.03
427.52	152.13
427.71	198.95
427.90	102.98
428.09	154.48
428.28	182.56
428.46	128.73
428.65	145.11
428.84	177.88
429.03	201.29
429.22	140.43
429.40	133.41
429.59	77.24
429.78	184.90
429.97	152.13
430.16	114.69
430.34	124.05
430.53	121.71
430.72	138.09
430.91	124.05
431.10	149.79
431.28	168.52
431.47	224.69
431.66	124.05
431.85	93.62
432.03	170.86
432.22	224.69
432.41	227.03
432.60	184.90
432.79	212.99
432.97	93.62
433.16	133.41
433.35	145.11
433.54	147.45
433.72	135.75
433.91	105.32
434.10	154.48
434.28	149.79
434.47	128.73
434.66	145.11
434.85	142.77
435.03	126.39
435.22	196.60
435.41	166.18
435.59	126.39
435.78	131.07
435.97	180.22
436.16	245.76
436.34	238.73
436.53	203.63
436.72	222.35
436.90	264.48
437.09	229.37
437.28	135.75
437.46	175.54
437.65	203.63
437.84	149.79
438.02	194.26
438.21	147.45
438.40	212.99
438.58	114.69
438.77	152.13
438.96	194.26
439.14	187.24
439.33	189.58
439.52	227.03
439.70	133.41
439.89	145.11
440.08	238.73
440.26	149.79
440.45	208.31
440.63	217.67
440.82	259.80
441.01	189.58
441.19	161.50
441.38	161.50
441.57	238.73
441.75	224.69
441.94	224.69
442.12	224.69
442.31	168.52
442.50	236.39
442.68	182.56
442.87	215.33
443.05	163.84
443.24	177.88
443.43	173.20
443.61	201.29
443.80	245.76
443.98	126.39
444.17	159.16
444.35	210.65
444.54	163.84
444.73	203.63
444.91	205.97
445.10	147.45
445.28	147.45
445.47	138.09
445.65	110.01
445.84	145.11
446.02	191.92
446.21	168.52
446.39	205.97
446.58	198.95
446.77	238.73
446.95	173.20
447.14	152.13
447.32	278.52
447.51	95.96
447.69	142.77
447.88	210.65
448.06	201.29
448.25	152.13
448.43	198.95
448.62	227.03
448.80	210.65
448.99	156.82
449.17	208.31
449.36	189.58
449.54	269.16
449.73	173.20
449.91	222.35
450.10	229.37
450.28	297.25
450.46	231.71
450.65	189.58
450.83	180.22
451.02	194.26
451.20	86.60
451.39	266.82
451.57	184.90
451.76	238.73
451.94	194.26
452.13	170.86
452.31	238.73
452.49	222.35
452.68	224.69
452.86	168.52
453.05	210.65
453.23	170.86
453.42	210.65
453.60	196.60
453.78	238.73
453.97	163.84
454.15	212.99
454.34	198.95
454.52	175.54
454.70	170.86
454.89	210.65
455.07	198.95
455.26	205.97
455.44	241.08
455.62	166.18
455.81	173.20
455.99	229.37
456.17	177.88
456.36	215.33
456.54	187.24
456.73	149.79
456.91	212.99
457.09	217.67
457.28	229.37
457.46	201.29
457.64	292.57
457.83	220.01
458.01	198.95
458.19	187.24
458.38	257.46
458.56	205.97
458.74	159.16
458.93	224.69
459.11	177.88
459.29	276.18
459.48	210.65
459.66	248.10
459.84	248.10
460.03	238.73
460.21	255.12
460.39	166.18
460.57	250.44
460.76	149.79
460.94	203.63
461.12	250.44
461.31	248.10
461.49	189.58
461.67	229.37
461.85	191.92
462.04	196.60
462.22	748.97
462.40	287.89
462.59	243.42
462.77	135.75
462.95	217.67
463.13	156.82
463.32	271.50
463.50	205.97
463.68	194.26
463.86	273.84
464.05	177.88
464.23	149.79
464.41	311.29
464.59	189.58
464.78	205.97
464.96	222.35
465.14	257.46
465.32	264.48
465.50	198.95
465.69	222.35
465.87	220.01
466.05	198.95
466.23	234.05
466.41	180.22
466.60	124.05
466.78	191.92
466.96	224.69
467.14	168.52
467.32	180.22
467.51	210.65
467.69	198.95
467.87	196.60
468.05	220.01
468.23	217.67
468.41	245.76
468.60	201.29
468.78	189.58
468.96	175.54
469.14	184.90
469.32	177.88
469.50	191.92
469.69	198.95
469.87	184.90
470.05	285.55
470.23	191.92
470.41	110.01
470.59	236.39
470.77	236.39
470.95	210.65
471.14	224.69
471.32	212.99
471.50	283.20
471.68	208.31
471.86	365.12
472.04	222.35
472.22	140.43
472.40	161.50
472.58	250.44
472.77	203.63
472.95	180.22
473.13	308.95
473.31	304.27
473.49	149.79
473.67	245.76
473.85	248.10
474.03	210.65
474.21	220.01
474.39	224.69
474.57	234.05
474.75	238.73
474.93	201.29
475.12	215.33
475.30	215.33
475.48	231.71
475.66	224.69
475.84	229.37
476.02	266.82
476.20	238.73
476.38	273.84
476.56	280.86
476.74	163.84
476.92	238.73
477.10	224.69
477.28	299.59
477.46	257.46
477.64	297.25
477.82	308.95
478.00	241.08
478.18	243.42
478.36	215.33
478.54	212.99
478.72	231.71
478.90	318.31
479.08	271.50
479.26	236.39
479.44	220.01
479.62	273.84
479.80	222.35
479.98	212.99
480.16	313.63
480.34	290.23
480.52	311.29
480.70	250.44
480.88	255.12
481.06	212.99
481.24	292.57
481.41	231.71
481.59	287.89
481.77	217.67
481.95	248.10
482.13	301.93
482.31	238.73
482.49	287.89
482.67	208.31
482.85	299.59
483.03	243.42
483.21	229.37
483.39	320.65
483.57	292.57
483.74	259.80
483.92	264.48
484.10	257.46
484.28	257.46
484.46	304.27
484.64	201.29
484.82	355.76
485.00	238.73
485.18	250.44
485.35	231.71
485.53	238.73
485.71	297.25
485.89	208.31
486.07	189.58
486.25	278.52
486.43	325.33
486.61	280.86
486.78	236.39
486.96	304.27
487.14	322.99
487.32	257.46
487.50	217.67
487.68	332.36
487.85	269.16
488.03	262.14
488.21	325.33
488.39	255.12
488.57	283.20
488.75	201.29
488.92	543.00
489.10	236.39
489.28	351.08
489.46	262.14
489.64	231.71
489.81	301.93
489.99	285.55
490.17	297.25
490.35	409.59
490.53	248.10
490.70	262.14
490.88	290.23
491.06	325.33
491.24	390.87
491.41	348.74
491.59	308.95
491.77	250.44
491.95	283.20
492.13	327.68
492.30	339.38
492.48	252.78
492.66	334.70
492.84	360.44
493.01	358.10
493.19	353.42
493.37	351.08
493.54	346.40
493.72	318.31
493.90	297.25
494.08	283.20
494.25	355.76
494.43	341.72
494.61	278.52
494.79	360.44
494.96	264.48
495.14	337.04
495.32	283.20
495.49	287.89
495.67	308.95
495.85	318.31
496.02	271.50
496.20	334.70
496.38	227.03
496.55	353.42
496.73	397.89
496.91	327.68
497.09	393.21
497.26	346.40
497.44	308.95
497.62	330.02
497.79	334.70
497.97	372.15
498.14	379.17
498.32	273.84
498.50	308.95
498.67	257.46
498.85	376.83
499.03	322.99
499.20	369.80
499.38	325.33
499.56	299.59
499.73	390.87
499.91	383.85
500.08	322.99
500.26	297.25
500.44	332.36
500.61	287.89
500.79	297.25
500.97	280.86
501.14	280.86
501.32	308.95
501.49	332.36
501.67	334.70
501.84	348.74
502.02	337.04
502.20	414.27
502.37	355.76
502.55	369.80
502.72	388.53
502.90	433.00
503.07	355.76
503.25	381.51
503.43	334.70
503.60	294.91
503.78	325.33
503.95	339.38
504.13	400.23
504.30	376.83
504.48	358.10
504.65	379.17
504.83	402.57
505.01	308.95
505.18	292.57
505.36	365.12
505.53	330.02
505.71	468.11
505.88	402.57
506.06	327.68
506.23	360.44
506.41	386.19
506.58	322.99
506.76	411.93
506.93	407.25
507.11	318.31
507.28	292.57
507.46	262.14
507.63	334.70
507.81	360.44
507.98	423.64
508.16	383.85
508.33	327.68
508.50	330.02
508.68	402.57
508.85	351.08
509.03	383.85
509.20	346.40
509.38	346.40
509.55	273.84
509.73	423.64
509.90	407.25
510.08	330.02
510.25	315.97
510.42	365.12
510.60	337.04
510.77	402.57
510.95	365.12
511.12	397.89
511.30	365.12
511.47	388.53
511.64	402.57
511.82	325.33
511.99	365.12
512.17	304.27
512.34	351.08
512.51	369.80
512.69	461.09
512.86	440.02
513.04	390.87
513.21	355.76
513.38	269.16
513.56	341.72
513.73	341.72
513.90	339.38
514.08	376.83
514.25	332.36
514.43	330.02
514.60	330.02
514.77	402.57
514.95	358.10
515.12	327.68
515.29	402.57
515.47	355.76
515.64	447.04
515.81	411.93
515.99	428.32
516.16	430.66
516.33	334.70
516.51	367.46
516.68	409.59
516.85	252.78
517.03	407.25
517.20	318.31
517.37	353.42
517.54	449.38
517.72	379.17
517.89	351.08
518.06	360.44
518.24	341.72
518.41	440.02
518.58	411.93
518.75	367.46
518.93	383.85
519.10	337.04
519.27	425.98
519.45	447.04
519.62	400.23
519.79	393.21
519.96	346.40
520.14	365.12
520.31	435.34
520.48	332.36
520.65	339.38
520.83	407.25
521.00	397.89
521.17	358.10
521.34	411.93
521.52	395.55
521.69	390.87
521.86	341.72
522.03	381.51
522.20	353.42
522.38	280.86
522.55	341.72
522.72	416.62
522.89	374.49
523.07	397.89
523.24	390.87
523.41	393.21
523.58	379.17
523.75	390.87
523.92	332.36
524.10	395.55
524.27	334.70
524.44	351.08
524.61	362.78
524.78	360.44
524.96	337.04
525.13	304.27
525.30	421.30
525.47	500.87
525.64	416.62
525.81	369.80
525.98	454.06
526.16	411.93
526.33	259.80
526.50	353.42
526.67	402.57
526.84	369.80
527.01	379.17
527.18	395.55
527.36	339.38
527.53	369.80
527.70	442.36
527.87	360.44
528.04	454.06
528.21	430.66
528.38	444.70
528.55	360.44
528.72	442.36
528.89	475.13
529.07	484.49
529.24	421.30
529.41	456.40
529.58	454.06
529.75	374.49
529.92	383.85
530.09	468.11
530.26	472.79
530.43	341.72
530.60	346.40
530.77	468.11
530.94	407.25
531.11	423.64
531.28	383.85
531.46	477.47
531.63	465.77
531.80	500.87
531.97	428.32
532.14	381.51
532.31	414.27
532.48	351.08
532.65	433.00
532.82	372.15
532.99	308.95
533.16	318.31
533.33	400.23
533.50	386.19
533.67	334.70
533.84	463.43
534.01	418.96
534.18	411.93
534.35	461.09
534.52	489.17
534.69	461.09
534.86	393.21
535.03	409.59
535.20	353.42
535.37	433.00
535.54	435.34
535.71	341.72
535.88	458.74
536.05	444.70
536.22	402.57
536.38	358.10
536.55	388.53
536.72	449.38
536.89	433.00
537.06	381.51
537.23	409.59
537.40	322.99
537.57	353.42
537.74	444.70
537.91	404.91
538.08	421.30
538.25	411.93
538.42	454.06
538.59	411.93
538.75	442.36
538.92	461.09
539.09	362.78
539.26	416.62
539.43	388.53
539.60	341.72
539.77	383.85
539.94	339.38
540.11	402.57
540.28	423.64
540.44	400.23
540.61	395.55
540.78	376.83
540.95	383.85
541.12	397.89
541.29	397.89
541.46	472.79
541.62	409.59
541.79	332.36
541.96	400.23
542.13	486.83
542.30	386.19
542.47	341.72
542.63	365.12
542.80	353.42
542.97	423.64
543.14	360.44
543.31	337.04
543.48	367.46
543.64	332.36
543.81	393.21
543.98	416.62
544.15	304.27
544.32	409.59
544.48	411.93
544.65	418.96
544.82	418.96
544.99	388.53
545.16	437.68
545.32	421.30
545.49	360.44
545.66	393.21
545.83	428.32
546.00	367.46
546.16	346.40
546.33	437.68
546.50	379.17
546.67	423.64
546.83	407.25
547.00	402.57
547.17	386.19
547.34	402.57
547.50	440.02
547.67	292.57
547.84	379.17
548.00	327.68
548.17	449.38
548.34	428.32
548.51	372.15
548.67	428.32
548.84	341.72
549.01	447.04
549.18	454.06
549.34	358.10
549.51	440.02
549.68	489.17
549.84	433.00
550.01	407.25
550.18	472.79
550.34	456.40
550.51	355.76
550.68	496.19
550.84	358.10
551.01	376.83
551.18	365.12
551.34	322.99
551.51	423.64
551.68	367.46
551.84	358.10
552.01	407.25
552.18	311.29
552.34	348.74
552.51	390.87
552.68	346.40
552.84	353.42
553.01	395.55
553.18	402.57
553.34	348.74
553.51	351.08
553.67	376.83
553.84	400.23
554.01	379.17
554.17	428.32
554.34	348.74
554.51	425.98
554.67	449.38
554.84	381.51
555.00	421.30
555.17	425.98
555.33	388.53
555.50	400.23
555.67	339.38
555.83	337.04
556.00	339.38
556.16	463.43
556.33	484.49
556.50	409.59
556.66	451.72
556.83	344.06
556.99	360.44
557.16	379.17
557.32	402.57
557.49	365.12
557.65	348.74
557.82	379.17
557.98	463.43
558.15	374.49
558.32	407.25
558.48	365.12
558.65	390.87
558.81	376.83
558.98	395.55
559.14	390.87
559.31	355.76
559.47	393.21
559.64	404.91
559.80	400.23
559.97	388.53
560.13	341.72
560.30	306.61
560.46	376.83
560.63	308.95
560.79	397.89
560.96	362.78
561.12	367.46
561.29	330.02
561.45	379.17
561.61	395.55
561.78	503.22
561.94	372.15
562.11	386.19
562.27	451.72
562.44	365.12
562.60	330.02
562.77	351.08
562.93	479.81
563.10	414.27
563.26	386.19
563.42	393.21
563.59	400.23
563.75	379.17
563.92	376.83
564.08	365.12
564.24	367.46
564.41	404.91
564.57	330.02
564.74	372.15
564.90	311.29
565.07	355.76
565.23	365.12
565.39	355.76
565.56	285.55
565.72	325.33
565.88	320.65
566.05	369.80
566.21	395.55
566.38	341.72
566.54	409.59
566.70	332.36
566.87	348.74
567.03	358.10
567.19	344.06
567.36	341.72
567.52	390.87
567.68	339.38
567.85	362.78
568.01	393.21
568.17	353.42
568.34	376.83
568.50	428.32
568.66	451.72
568.83	322.99
568.99	358.10
569.15	449.38
569.32	315.97
569.48	397.89
569.64	344.06
569.81	379.17
569.97	318.31
570.13	308.95
570.30	423.64
570.46	327.68
570.62	344.06
570.78	353.42
570.95	330.02
571.11	351.08
571.27	411.93
571.43	318.31
571.60	365.12
571.76	271.50
571.92	337.04
572.09	297.25
572.25	313.63
572.41	390.87
572.57	390.87
572.74	437.68
572.90	407.25
573.06	388.53
573.22	393.21
573.38	372.15
573.55	290.23
573.71	341.72
573.87	374.49
574.03	287.89
574.20	372.15
574.36	365.12
574.52	346.40
574.68	367.46
574.84	341.72
575.01	411.93
575.17	365.12
575.33	379.17
575.49	404.91
575.65	330.02
575.82	327.68
575.98	491.51
576.14	292.57
576.30	327.68
576.46	379.17
576.62	381.51
576.79	411.93
576.95	411.93
577.11	245.76
577.27	393.21
577.43	416.62
577.59	383.85
577.75	334.70
577.92	355.76
578.08	348.74
578.24	315.97
578.40	393.21
578.56	407.25
578.72	304.27
578.88	327.68
579.04	257.46
579.21	278.52
579.37	369.80
579.53	344.06
579.69	388.53
579.85	262.14
580.01	390.87
580.17	315.97
580.33	372.15
580.49	304.27
580.65	390.87
580.82	299.59
580.98	330.02
581.14	461.09
581.30	404.91
581.46	318.31
581.62	372.15
581.78	334.70
581.94	325.33
582.10	421.30
582.26	423.64
582.42	404.91
582.58	435.34
582.74	348.74
582.90	341.72
583.06	409.59
583.22	341.72
583.38	395.55
583.54	407.25
583.70	421.30
583.86	421.30
584.02	320.65
584.18	346.40
584.34	365.12
584.50	332.36
584.66	404.91
584.82	327.68
584.98	362.78
585.14	322.99
585.30	348.74
585.46	379.17
585.62	285.55
585.78	322.99
585.94	332.36
586.10	287.89
586.26	433.00
586.42	435.34
586.58	369.80
586.74	393.21
586.90	332.36
587.06	306.61
587.22	425.98
587.38	414.27
587.54	360.44
587.70	339.38
587.86	318.31
588.02	252.78
588.18	297.25
588.34	327.68
588.49	311.29
588.65	337.04
588.81	313.63
588.97	187.24
589.13	313.63
589.29	290.23
589.45	334.70
589.61	292.57
589.77	332.36
589.93	257.46
590.08	320.65
590.24	212.99
590.40	346.40
590.56	285.55
590.72	257.46
590.88	306.61
591.04	353.42
591.20	227.03
591.35	379.17
591.51	346.40
591.67	304.27
591.83	330.02
591.99	332.36
592.15	332.36
592.31	339.38
592.46	255.12
592.62	334.70
592.78	320.65
592.94	318.31
593.10	243.42
593.26	262.14
593.41	372.15
593.57	351.08
593.73	339.38
593.89	341.72
594.05	292.57
594.20	285.55
594.36	304.27
594.52	255.12
594.68	234.05
594.84	409.59
594.99	348.74
595.15	320.65
595.31	294.91
595.47	285.55
595.62	271.50
595.78	360.44
595.94	301.93
596.10	311.29
596.25	227.03
596.41	339.38
596.57	255.12
596.73	297.25
596.88	355.76
597.04	313.63
597.20	372.15
597.36	344.06
597.51	259.80
597.67	320.65
597.83	362.78
597.99	308.95
598.14	388.53
598.30	348.74
598.46	297.25
598.61	337.04
598.77	287.89
598.93	301.93
599.09	306.61
599.24	360.44
599.40	337.04
599.56	360.44
599.71	381.51
599.87	287.89
600.03	353.42
600.18	315.97
600.34	362.78
600.50	285.55
600.65	212.99
600.81	280.86
600.97	369.80
601.12	320.65
601.28	355.76
601.44	273.84
601.59	266.82
601.75	365.12
601.91	332.36
602.06	315.97
602.22	386.19
602.37	320.65
602.53	327.68
602.69	337.04
602.84	351.08
603.00	346.40
603.16	416.62
603.31	348.74
603.47	327.68
603.62	278.52
603.78	327.68
603.94	344.06
604.09	386.19
604.25	386.19
604.40	390.87
604.56	379.17
604.71	334.70
604.87	257.46
605.03	297.25
605.18	325.33
605.34	388.53
605.49	330.02
605.65	294.91
605.80	290.23
605.96	341.72
606.12	355.76
606.27	278.52
606.43	332.36
606.58	355.76
606.74	280.86
606.89	252.78
607.05	346.40
607.20	348.74
607.36	365.12
607.51	374.49
607.67	374.49
607.82	243.42
607.98	341.72
608.13	297.25
608.29	294.91
608.44	318.31
608.60	327.68
608.75	351.08
608.91	330.02
609.06	320.65
609.22	348.74
609.37	315.97
609.53	276.18
609.68	264.48
609.84	276.18
609.99	381.51
610.15	386.19
610.30	278.52
610.46	304.27
610.61	325.33
610.76	311.29
610.92	341.72
611.07	360.44
611.23	440.02
611.38	306.61
611.54	276.18
611.69	332.36
611.84	313.63
612.00	367.46
612.15	224.69
612.31	212.99
612.46	360.44
612.62	397.89
612.77	372.15
612.92	365.12
613.08	386.19
613.23	297.25
613.39	318.31
613.54	304.27
613.69	294.91
613.85	315.97
614.00	257.46
614.15	325.33
614.31	294.91
614.46	355.76
614.62	304.27
614.77	414.27
614.92	264.48
615.08	264.48
615.23	287.89
615.38	341.72
615.54	290.23
615.69	257.46
615.84	339.38
616.00	332.36
616.15	241.08
616.30	332.36
616.46	276.18
616.61	315.97
616.76	306.61
616.92	306.61
617.07	287.89
617.22	306.61
617.37	313.63
617.53	259.80
617.68	224.69
617.83	339.38
617.99	327.68
618.14	315.97
618.29	332.36
618.45	341.72
618.60	344.06
618.75	306.61
618.90	287.89
619.06	334.70
619.21	217.67
619.36	306.61
619.51	264.48
619.67	351.08
619.82	257.46
619.97	283.20
620.12	393.21
620.28	313.63
620.43	245.76
620.58	208.31
620.73	313.63
620.89	454.06
621.04	313.63
621.19	393.21
621.34	276.18
621.49	285.55
621.65	217.67
621.80	269.16
621.95	313.63
622.10	332.36
622.25	252.78
622.41	257.46
622.56	252.78
622.71	325.33
622.86	337.04
623.01	269.16
623.16	280.86
623.32	224.69
623.47	248.10
623.62	238.73
623.77	229.37
623.92	278.52
624.07	313.63
624.23	315.97
624.38	252.78
624.53	327.68
624.68	346.40
624.83	287.89
624.98	241.08
625.13	273.84
625.29	285.55
625.44	248.10
625.59	285.55
625.74	306.61
625.89	308.95
626.04	238.73
626.19	280.86
626.34	194.26
626.49	294.91
626.65	301.93
626.80	292.57
626.95	236.39
627.10	283.20
627.25	304.27
627.40	259.80
627.55	177.88
627.70	210.65
627.85	330.02
628.00	290.23
628.15	315.97
628.30	210.65
628.45	220.01
628.60	315.97
628.76	264.48
628.91	348.74
629.06	320.65
629.21	294.91
629.36	234.05
629.51	283.20
629.66	243.42
629.81	238.73
629.96	283.20
630.11	299.59
630.26	287.89
630.41	222.35
630.56	241.08
630.71	220.01
630.86	229.37
631.01	243.42
631.16	262.14
631.31	273.84
631.46	299.59
631.61	250.44
631.76	311.29
631.91	297.25
632.06	330.02
632.21	348.74
632.36	360.44
632.51	327.68
632.66	290.23
632.81	276.18
632.96	245.76
633.10	243.42
633.25	276.18
633.40	210.65
633.55	234.05
633.70	224.69
633.85	236.39
634.00	257.46
634.15	234.05
634.30	231.71
634.45	276.18
634.60	276.18
634.75	304.27
634.90	315.97
635.05	262.14
635.19	252.78
635.34	250.44
635.49	243.42
635.64	266.82
635.79	285.55
635.94	243.42
636.09	278.52
636.24	325.33
636.39	205.97
636.53	205.97
636.68	222.35
636.83	250.44
636.98	259.80
637.13	299.59
637.28	301.93
637.43	306.61
637.57	280.86
637.72	287.89
637.87	217.67
638.02	294.91
638.17	227.03
638.32	290.23
638.46	243.42
638.61	306.61
638.76	210.65
638.91	278.52
639.06	283.20
639.20	290.23
639.35	224.69
639.50	266.82
639.65	273.84
639.80	234.05
639.94	297.25
640.09	252.78
640.24	271.50
640.39	308.95
640.54	393.21
640.68	245.76
640.83	224.69
640.98	212.99
641.13	248.10
641.27	273.84
641.42	313.63
641.57	236.39
641.72	266.82
641.86	182.56
642.01	243.42
642.16	313.63
642.31	231.71
642.45	346.40
642.60	266.82
642.75	245.76
642.90	273.84
643.04	234.05
643.19	227.03
643.34	283.20
643.48	222.35
643.63	243.42
643.78	236.39
643.93	372.15
644.07	252.78
644.22	234.05
644.37	212.99
644.51	280.86
644.66	203.63
644.81	212.99
644.95	297.25
645.10	177.88
645.25	241.08
645.39	280.86
645.54	250.44
645.69	294.91
645.83	205.97
645.98	273.84
646.13	234.05
646.27	166.18
646.42	184.90
646.57	177.88
646.71	210.65
646.86	147.45
647.00	311.29
647.15	166.18
647.30	238.73
647.44	196.60
647.59	243.42
647.74	210.65
647.88	201.29
648.03	196.60
648.17	205.97
648.32	166.18
648.47	266.82
648.61	215.33
648.76	252.78
648.90	243.42
649.05	234.05
649.20	220.01
649.34	262.14
649.49	191.92
649.63	252.78
649.78	245.76
649.92	159.16
650.07	257.46
650.21	222.35
650.36	273.84
650.51	231.71
650.65	283.20
650.80	238.73
650.94	201.29
651.09	201.29
651.23	245.76
651.38	315.97
651.52	180.22
651.67	306.61
651.81	255.12
651.96	252.78
652.10	252.78
652.25	198.95
652.39	222.35
652.54	234.05
652.68	201.29
652.83	299.59
652.97	229.37
653.12	283.20
653.26	201.29
653.41	241.08
653.55	241.08
653.70	210.65
653.84	210.65
653.99	238.73
654.13	177.88
654.27	196.60
654.42	210.65
654.56	224.69
654.71	210.65
654.85	220.01
655.00	257.46
655.14	220.01
655.29	133.41
655.43	217.67
655.57	133.41
655.72	142.77
655.86	208.31
656.01	180.22
656.15	149.79
656.30	245.76
656.44	205.97
656.58	203.63
656.73	187.24
656.87	212.99
657.01	222.35
657.16	266.82
657.30	182.56
657.45	231.71
657.59	182.56
657.73	131.07
657.88	229.37
658.02	264.48
658.16	175.54
658.31	255.12
658.45	241.08
658.60	248.10
658.74	210.65
658.88	243.42
659.03	149.79
659.17	168.52
659.31	220.01
659.46	198.95
659.60	210.65
659.74	257.46
659.89	257.46
660.03	234.05
660.17	330.02
660.32	248.10
660.46	280.86
660.60	189.58
660.74	234.05
660.89	210.65
661.03	236.39
661.17	220.01
661.32	229.37
661.46	234.05
661.60	243.42
661.74	269.16
661.89	287.89
662.03	203.63
662.17	276.18
662.31	313.63
662.46	229.37
662.60	182.56
662.74	229.37
662.88	250.44
663.03	229.37
663.17	234.05
663.31	229.37
663.45	224.69
663.60	238.73
663.74	184.90
663.88	222.35
664.02	189.58
664.17	248.10
664.31	198.95
664.45	227.03
664.59	117.03
664.73	262.14
664.88	257.46
665.02	161.50
665.16	166.18
665.30	278.52
665.44	306.61
665.59	245.76
665.73	222.35
665.87	215.33
666.01	212.99
666.15	290.23
666.29	194.26
666.44	191.92
666.58	276.18
666.72	212.99
666.86	224.69
667.00	182.56
667.14	248.10
667.28	236.39
667.43	191.92
667.57	131.07
667.71	217.67
667.85	196.60
667.99	269.16
668.13	217.67
668.27	236.39
668.41	215.33
668.56	184.90
668.70	262.14
668.84	142.77
668.98	154.48
669.12	86.60
669.26	222.35
669.40	271.50
669.54	212.99
669.68	250.44
669.82	236.39
669.96	182.56
670.10	201.29
670.25	201.29
670.39	201.29
670.53	184.90
670.67	203.63
670.81	198.95
670.95	227.03
671.09	208.31
671.23	264.48
671.37	294.91
671.51	175.54
671.65	243.42
671.79	173.20
671.93	217.67
672.07	241.08
672.21	215.33
672.35	177.88
672.49	184.90
672.63	313.63
672.77	227.03
672.91	168.52
673.05	217.67
673.19	248.10
673.33	191.92
673.47	278.52
673.61	152.13
673.75	163.84
673.89	205.97
674.03	224.69
674.17	65.54
674.31	283.20
674.45	248.10
674.59	238.73
674.73	182.56
674.87	117.03
675.01	264.48
675.15	156.82
675.29	250.44
675.43	215.33
675.56	222.35
675.70	229.37
675.84	203.63
675.98	229.37
676.12	201.29
676.26	205.97
676.40	198.95
676.54	112.35
676.68	191.92
676.82	257.46
676.96	252.78
677.10	203.63
677.23	140.43
677.37	194.26
677.51	117.03
677.65	243.42
677.79	161.50
677.93	149.79
678.07	184.90
678.21	189.58
678.34	170.86
678.48	124.05
678.62	163.84
678.76	208.31
678.90	184.90
679.04	194.26
679.18	140.43
679.31	131.07
679.45	149.79
679.59	189.58
679.73	173.20
679.87	117.03
680.00	135.75
680.14	269.16
680.28	114.69
680.42	107.66
680.56	110.01
680.70	187.24
680.83	203.63
680.97	241.08
681.11	168.52
681.25	215.33
681.39	301.93
681.52	212.99
681.66	145.11
681.80	220.01
681.94	131.07
682.07	222.35
682.21	205.97
682.35	128.73
682.49	222.35
682.62	170.86
682.76	198.95
682.90	168.52
683.04	175.54
683.17	285.55
683.31	149.79
683.45	184.90
683.59	191.92
683.72	147.45
683.86	161.50
684.00	210.65
684.13	238.73
684.27	210.65
684.41	187.24
684.55	135.75
684.68	220.01
684.82	163.84
684.96	156.82
685.09	105.32
685.23	182.56
685.37	114.69
685.50	276.18
685.64	201.29
685.78	175.54
685.91	205.97
686.05	159.16
686.19	187.24
686.32	166.18
686.46	215.33
686.60	74.90
686.73	187.24
686.87	220.01
687.01	182.56
687.14	170.86
687.28	98.30
687.42	173.20
687.55	105.32
687.69	248.10
687.82	63.19
687.96	166.18
688.10	133.41
688.23	163.84
688.37	215.33
688.50	220.01
688.64	154.48
688.78	60.85
688.91	110.01
689.05	107.66
689.18	107.66
689.32	173.20
689.46	142.77
689.59	196.60
689.73	142.77
689.86	234.05
690.00	198.95
690.13	128.73
690.27	126.39
690.41	133.41
690.54	152.13
690.68	149.79
690.81	140.43
690.95	110.01
691.08	154.48
691.22	117.03
691.35	191.92
691.49	135.75
691.62	210.65
691.76	102.98
691.89	49.15
692.03	102.98
692.16	74.90
692.30	135.75
692.43	133.41
692.57	114.69
692.70	51.49
692.84	189.58
692.97	84.26
693.11	138.09
693.24	128.73
693.38	166.18
693.51	131.07
693.65	81.92
693.78	173.20
693.92	117.03
694.05	152.13
694.19	187.24
694.32	112.35
694.45	173.20
694.59	91.28
694.72	159.16
694.86	119.37
694.99	177.88
695.13	163.84
695.26	212.99
695.39	177.88
695.53	175.54
695.66	177.88
695.80	124.05
695.93	84.26
696.07	117.03
696.20	100.64
696.33	105.32
696.47	72.56
696.60	124.05
696.73	154.48
696.87	114.69
697.00	170.86
697.14	147.45
697.27	100.64
697.40	234.05
697.54	177.88
697.67	196.60
697.80	152.13
697.94	175.54
698.07	156.82
698.21	117.03
698.34	166.18
698.47	189.58
698.61	163.84
698.74	112.35
698.87	124.05
699.01	126.39
699.14	124.05
699.27	187.24
699.40	229.37
699.54	126.39
699.67	147.45
699.80	98.30
699.94	156.82
700.07	93.62
700.20	67.88
700.34	147.45
700.47	58.51
700.60	121.71
700.73	65.54
700.87	126.39
701.00	100.64
701.13	100.64
701.26	140.43
701.40	49.15
701.53	187.24
701.66	133.41
701.79	128.73
701.93	119.37
702.06	229.37
702.19	166.18
702.32	163.84
702.46	102.98
702.59	140.43
702.72	145.11
702.85	112.35
702.99	100.64
703.12	159.16
703.25	117.03
703.38	147.45
703.51	173.20
703.65	72.56
703.78	58.51
703.91	145.11
704.04	154.48
704.17	133.41
704.31	159.16
704.44	175.54
704.57	42.13
704.70	93.62
704.83	117.03
704.96	102.98
705.10	107.66
705.23	131.07
>>>>>End Processed Spectral Data<<<<<
