SpectraSuite Data File
++++++++++++++++++++++++++++++++++++
Date: Fri Oct 04 11:33:47 GMT-05:00 2013
User: price-jones
Dark Spectrum Present: No
Reference Spectrum Present: No
Number of Sampled Component Spectra: 1
Spectrometers: USB2+H05261
Integration Time (usec): 100000 (USB2+H05261)
Spectra Averaged: 1 (USB2+H05261)
Boxcar Smoothing: 0 (USB2+H05261)
Correct for Electrical Dark: No (USB2+H05261)
Strobe/Lamp Enabled: No (USB2+H05261)
Correct for Detector Non-linearity: No (USB2+H05261)
Correct for Stray Light: No (USB2+H05261)
Number of Pixels in Processed Spectrum: 2048
>>>>>Begin Processed Spectral Data<<<<<
365.73	44.47
365.92	44.47
366.12	44.47
366.32	0.00
366.52	0.00
366.72	0.00
366.91	0.00
367.11	0.00
367.31	28.09
367.51	0.00
367.70	0.00
367.90	0.00
368.10	4.68
368.30	0.00
368.49	0.00
368.69	42.13
368.89	0.00
369.09	0.00
369.28	0.00
369.48	23.41
369.68	58.51
369.87	58.51
370.07	0.00
370.27	21.06
370.47	32.77
370.66	37.45
370.86	63.19
371.06	173.20
371.25	180.22
371.45	98.30
371.65	128.73
371.84	107.66
372.04	119.37
372.24	161.50
372.44	74.90
372.63	112.35
372.83	224.69
373.03	70.22
373.22	74.90
373.42	93.62
373.62	138.09
373.81	147.45
374.01	187.24
374.21	128.73
374.40	131.07
374.60	198.95
374.79	147.45
374.99	77.24
375.19	121.71
375.38	215.33
375.58	166.18
375.78	222.35
375.97	266.82
376.17	198.95
376.37	138.09
376.56	217.67
376.76	117.03
376.95	142.77
377.15	170.86
377.35	102.98
377.54	161.50
377.74	210.65
377.93	93.62
378.13	100.64
378.33	131.07
378.52	201.29
378.72	121.71
378.91	154.48
379.11	210.65
379.31	107.66
379.50	182.56
379.70	159.16
379.89	159.16
380.09	145.11
380.28	110.01
380.48	182.56
380.68	177.88
380.87	107.66
381.07	133.41
381.26	131.07
381.46	124.05
381.65	182.56
381.85	128.73
382.04	189.58
382.24	51.49
382.43	159.16
382.63	128.73
382.83	128.73
383.02	124.05
383.22	175.54
383.41	110.01
383.61	133.41
383.80	149.79
384.00	175.54
384.19	131.07
384.39	142.77
384.58	189.58
384.78	243.42
384.97	156.82
385.17	128.73
385.36	110.01
385.56	145.11
385.75	128.73
385.95	189.58
386.14	222.35
386.34	81.92
386.53	119.37
386.72	131.07
386.92	149.79
387.11	117.03
387.31	149.79
387.50	117.03
387.70	93.62
387.89	119.37
388.09	86.60
388.28	98.30
388.48	145.11
388.67	117.03
388.86	149.79
389.06	182.56
389.25	194.26
389.45	102.98
389.64	95.96
389.84	119.37
390.03	168.52
390.22	110.01
390.42	161.50
390.61	163.84
390.81	205.97
391.00	124.05
391.19	156.82
391.39	140.43
391.58	133.41
391.78	173.20
391.97	168.52
392.16	208.31
392.36	182.56
392.55	191.92
392.75	208.31
392.94	133.41
393.13	156.82
393.33	147.45
393.52	105.32
393.71	203.63
393.91	154.48
394.10	140.43
394.29	154.48
394.49	124.05
394.68	152.13
394.88	131.07
395.07	140.43
395.26	149.79
395.46	156.82
395.65	163.84
395.84	140.43
396.04	238.73
396.23	177.88
396.42	241.08
396.62	149.79
396.81	131.07
397.00	173.20
397.19	159.16
397.39	131.07
397.58	208.31
397.77	182.56
397.97	180.22
398.16	77.24
398.35	117.03
398.55	194.26
398.74	107.66
398.93	205.97
399.12	168.52
399.32	145.11
399.51	121.71
399.70	149.79
399.90	196.60
400.09	196.60
400.28	173.20
400.47	170.86
400.67	182.56
400.86	203.63
401.05	154.48
401.24	184.90
401.44	201.29
401.63	133.41
401.82	227.03
402.01	177.88
402.21	159.16
402.40	152.13
402.59	173.20
402.78	166.18
402.97	149.79
403.17	138.09
403.36	147.45
403.55	187.24
403.74	182.56
403.93	194.26
404.13	315.97
404.32	276.18
404.51	287.89
404.70	238.73
404.89	198.95
405.09	229.37
405.28	170.86
405.47	182.56
405.66	84.26
405.85	180.22
406.05	93.62
406.24	93.62
406.43	166.18
406.62	152.13
406.81	184.90
407.00	238.73
407.20	203.63
407.39	198.95
407.58	145.11
407.77	147.45
407.96	227.03
408.15	74.90
408.34	180.22
408.54	168.52
408.73	180.22
408.92	177.88
409.11	187.24
409.30	234.05
409.49	166.18
409.68	175.54
409.87	191.92
410.07	159.16
410.26	154.48
410.45	124.05
410.64	147.45
410.83	154.48
411.02	173.20
411.21	159.16
411.40	198.95
411.59	168.52
411.78	147.45
411.98	124.05
412.17	236.39
412.36	161.50
412.55	145.11
412.74	124.05
412.93	205.97
413.12	170.86
413.31	262.14
413.50	173.20
413.69	170.86
413.88	124.05
414.07	135.75
414.26	110.01
414.45	198.95
414.64	168.52
414.83	182.56
415.02	194.26
415.22	138.09
415.41	138.09
415.60	163.84
415.79	117.03
415.98	128.73
416.17	173.20
416.36	131.07
416.55	133.41
416.74	189.58
416.93	252.78
417.12	98.30
417.31	140.43
417.50	250.44
417.69	187.24
417.88	168.52
418.07	168.52
418.26	124.05
418.45	140.43
418.64	198.95
418.83	138.09
419.02	166.18
419.21	245.76
419.39	271.50
419.58	163.84
419.77	147.45
419.96	166.18
420.15	182.56
420.34	210.65
420.53	262.14
420.72	175.54
420.91	196.60
421.10	182.56
421.29	119.37
421.48	166.18
421.67	203.63
421.86	168.52
422.05	163.84
422.24	152.13
422.43	163.84
422.61	147.45
422.80	156.82
422.99	149.79
423.18	140.43
423.37	163.84
423.56	152.13
423.75	201.29
423.94	168.52
424.13	152.13
424.32	191.92
424.50	203.63
424.69	187.24
424.88	161.50
425.07	166.18
425.26	189.58
425.45	203.63
425.64	121.71
425.83	128.73
426.01	234.05
426.20	220.01
426.39	159.16
426.58	149.79
426.77	133.41
426.96	215.33
427.15	304.27
427.33	210.65
427.52	205.97
427.71	184.90
427.90	189.58
428.09	177.88
428.28	131.07
428.46	126.39
428.65	145.11
428.84	177.88
429.03	271.50
429.22	180.22
429.40	182.56
429.59	175.54
429.78	229.37
429.97	191.92
430.16	145.11
430.34	145.11
430.53	149.79
430.72	63.19
430.91	252.78
431.10	159.16
431.28	198.95
431.47	203.63
431.66	238.73
431.85	107.66
432.03	126.39
432.22	250.44
432.41	236.39
432.60	147.45
432.79	234.05
432.97	170.86
433.16	227.03
433.35	100.64
433.54	156.82
433.72	198.95
433.91	166.18
434.10	170.86
434.28	222.35
434.47	212.99
434.66	224.69
434.85	154.48
435.03	283.20
435.22	362.78
435.41	631.94
435.59	610.88
435.78	489.17
435.97	308.95
436.16	262.14
436.34	234.05
436.53	215.33
436.72	210.65
436.90	163.84
437.09	187.24
437.28	170.86
437.46	205.97
437.65	161.50
437.84	184.90
438.02	187.24
438.21	173.20
438.40	196.60
438.58	203.63
438.77	131.07
438.96	271.50
439.14	152.13
439.33	161.50
439.52	142.77
439.70	152.13
439.89	168.52
440.08	161.50
440.26	182.56
440.45	182.56
440.63	182.56
440.82	173.20
441.01	182.56
441.19	215.33
441.38	201.29
441.57	184.90
441.75	191.92
441.94	173.20
442.12	184.90
442.31	201.29
442.50	208.31
442.68	196.60
442.87	210.65
443.05	147.45
443.24	205.97
443.43	238.73
443.61	166.18
443.80	168.52
443.98	163.84
444.17	152.13
444.35	196.60
444.54	194.26
444.73	224.69
444.91	194.26
445.10	217.67
445.28	201.29
445.47	252.78
445.65	238.73
445.84	140.43
446.02	208.31
446.21	184.90
446.39	147.45
446.58	262.14
446.77	205.97
446.95	187.24
447.14	276.18
447.32	161.50
447.51	248.10
447.69	175.54
447.88	173.20
448.06	299.59
448.25	128.73
448.43	283.20
448.62	191.92
448.80	201.29
448.99	271.50
449.17	177.88
449.36	159.16
449.54	191.92
449.73	250.44
449.91	124.05
450.10	189.58
450.28	283.20
450.46	238.73
450.65	170.86
450.83	205.97
451.02	248.10
451.20	198.95
451.39	140.43
451.57	184.90
451.76	149.79
451.94	145.11
452.13	194.26
452.31	154.48
452.49	196.60
452.68	189.58
452.86	180.22
453.05	220.01
453.23	189.58
453.42	273.84
453.60	208.31
453.78	191.92
453.97	182.56
454.15	241.08
454.34	189.58
454.52	152.13
454.70	287.89
454.89	236.39
455.07	138.09
455.26	173.20
455.44	201.29
455.62	110.01
455.81	182.56
455.99	224.69
456.17	175.54
456.36	196.60
456.54	88.94
456.73	187.24
456.91	145.11
457.09	236.39
457.28	234.05
457.46	191.92
457.64	198.95
457.83	182.56
458.01	215.33
458.19	212.99
458.38	156.82
458.56	187.24
458.74	168.52
458.93	203.63
459.11	121.71
459.29	187.24
459.48	215.33
459.66	187.24
459.84	217.67
460.03	273.84
460.21	182.56
460.39	191.92
460.57	196.60
460.76	203.63
460.94	205.97
461.12	210.65
461.31	152.13
461.49	126.39
461.67	149.79
461.85	149.79
462.04	168.52
462.22	650.67
462.40	280.86
462.59	283.20
462.77	184.90
462.95	285.55
463.13	168.52
463.32	292.57
463.50	184.90
463.68	227.03
463.86	210.65
464.05	215.33
464.23	191.92
464.41	163.84
464.59	163.84
464.78	177.88
464.96	191.92
465.14	241.08
465.32	168.52
465.50	166.18
465.69	217.67
465.87	105.32
466.05	152.13
466.23	102.98
466.41	194.26
466.60	175.54
466.78	170.86
466.96	187.24
467.14	147.45
467.32	229.37
467.51	201.29
467.69	212.99
467.87	212.99
468.05	205.97
468.23	224.69
468.41	238.73
468.60	236.39
468.78	201.29
468.96	198.95
469.14	243.42
469.32	224.69
469.50	152.13
469.69	147.45
469.87	205.97
470.05	215.33
470.23	170.86
470.41	187.24
470.59	140.43
470.77	191.92
470.95	236.39
471.14	149.79
471.32	149.79
471.50	212.99
471.68	203.63
471.86	229.37
472.04	212.99
472.22	147.45
472.40	180.22
472.58	170.86
472.77	161.50
472.95	140.43
473.13	205.97
473.31	248.10
473.49	191.92
473.67	189.58
473.85	215.33
474.03	271.50
474.21	168.52
474.39	273.84
474.57	231.71
474.75	248.10
474.93	208.31
475.12	124.05
475.30	257.46
475.48	140.43
475.66	236.39
475.84	210.65
476.02	212.99
476.20	234.05
476.38	147.45
476.56	280.86
476.74	241.08
476.92	166.18
477.10	212.99
477.28	259.80
477.46	241.08
477.64	262.14
477.82	163.84
478.00	168.52
478.18	212.99
478.36	131.07
478.54	234.05
478.72	224.69
478.90	220.01
479.08	191.92
479.26	102.98
479.44	191.92
479.62	196.60
479.80	208.31
479.98	140.43
480.16	156.82
480.34	217.67
480.52	229.37
480.70	264.48
480.88	205.97
481.06	215.33
481.24	217.67
481.41	159.16
481.59	271.50
481.77	212.99
481.95	222.35
482.13	234.05
482.31	269.16
482.49	149.79
482.67	210.65
482.85	259.80
483.03	248.10
483.21	212.99
483.39	255.12
483.57	266.82
483.74	287.89
483.92	294.91
484.10	205.97
484.28	330.02
484.46	280.86
484.64	245.76
484.82	283.20
485.00	208.31
485.18	245.76
485.35	262.14
485.53	224.69
485.71	262.14
485.89	278.52
486.07	297.25
486.25	248.10
486.43	243.42
486.61	308.95
486.78	311.29
486.96	287.89
487.14	236.39
487.32	294.91
487.50	250.44
487.68	290.23
487.85	271.50
488.03	287.89
488.21	327.68
488.39	315.97
488.57	276.18
488.75	217.67
488.92	500.87
489.10	362.78
489.28	327.68
489.46	348.74
489.64	212.99
489.81	311.29
489.99	217.67
490.17	215.33
490.35	308.95
490.53	306.61
490.70	212.99
490.88	325.33
491.06	264.48
491.24	241.08
491.41	266.82
491.59	245.76
491.77	264.48
491.95	205.97
492.13	262.14
492.30	271.50
492.48	194.26
492.66	215.33
492.84	292.57
493.01	210.65
493.19	257.46
493.37	376.83
493.54	308.95
493.72	330.02
493.90	315.97
494.08	322.99
494.25	325.33
494.43	245.76
494.61	229.37
494.79	269.16
494.96	220.01
495.14	255.12
495.32	294.91
495.49	278.52
495.67	234.05
495.85	269.16
496.02	250.44
496.20	276.18
496.38	262.14
496.55	266.82
496.73	325.33
496.91	304.27
497.09	292.57
497.26	198.95
497.44	236.39
497.62	266.82
497.79	271.50
497.97	255.12
498.14	245.76
498.32	276.18
498.50	231.71
498.67	205.97
498.85	227.03
499.03	344.06
499.20	271.50
499.38	297.25
499.56	271.50
499.73	271.50
499.91	250.44
500.08	292.57
500.26	294.91
500.44	313.63
500.61	290.23
500.79	273.84
500.97	273.84
501.14	236.39
501.32	255.12
501.49	229.37
501.67	262.14
501.84	259.80
502.02	182.56
502.20	262.14
502.37	210.65
502.55	287.89
502.72	330.02
502.90	292.57
503.07	294.91
503.25	231.71
503.43	231.71
503.60	259.80
503.78	318.31
503.95	243.42
504.13	259.80
504.30	271.50
504.48	280.86
504.65	287.89
504.83	292.57
505.01	245.76
505.18	252.78
505.36	234.05
505.53	273.84
505.71	245.76
505.88	250.44
506.06	292.57
506.23	262.14
506.41	299.59
506.58	294.91
506.76	278.52
506.93	285.55
507.11	243.42
507.28	280.86
507.46	248.10
507.63	168.52
507.81	311.29
507.98	245.76
508.16	294.91
508.33	201.29
508.50	273.84
508.68	245.76
508.85	234.05
509.03	330.02
509.20	191.92
509.38	220.01
509.55	311.29
509.73	248.10
509.90	273.84
510.08	208.31
510.25	257.46
510.42	266.82
510.60	283.20
510.77	278.52
510.95	285.55
511.12	301.93
511.30	292.57
511.47	280.86
511.64	283.20
511.82	229.37
511.99	259.80
512.17	273.84
512.34	231.71
512.51	287.89
512.69	245.76
512.86	287.89
513.04	271.50
513.21	276.18
513.38	262.14
513.56	189.58
513.73	175.54
513.90	198.95
514.08	217.67
514.25	283.20
514.43	234.05
514.60	266.82
514.77	315.97
514.95	292.57
515.12	299.59
515.29	278.52
515.47	259.80
515.64	252.78
515.81	269.16
515.99	365.12
516.16	308.95
516.33	280.86
516.51	215.33
516.68	203.63
516.85	210.65
517.03	189.58
517.20	259.80
517.37	327.68
517.54	280.86
517.72	297.25
517.89	334.70
518.06	271.50
518.24	348.74
518.41	327.68
518.58	271.50
518.75	280.86
518.93	262.14
519.10	308.95
519.27	259.80
519.45	266.82
519.62	224.69
519.79	210.65
519.96	210.65
520.14	156.82
520.31	299.59
520.48	248.10
520.65	276.18
520.83	299.59
521.00	229.37
521.17	224.69
521.34	276.18
521.52	322.99
521.69	217.67
521.86	313.63
522.03	227.03
522.20	332.36
522.38	311.29
522.55	252.78
522.72	255.12
522.89	292.57
523.07	290.23
523.24	177.88
523.41	273.84
523.58	304.27
523.75	278.52
523.92	290.23
524.10	304.27
524.27	280.86
524.44	238.73
524.61	278.52
524.78	203.63
524.96	285.55
525.13	231.71
525.30	304.27
525.47	201.29
525.64	315.97
525.81	189.58
525.98	245.76
526.16	229.37
526.33	191.92
526.50	224.69
526.67	255.12
526.84	255.12
527.01	269.16
527.18	327.68
527.36	341.72
527.53	227.03
527.70	297.25
527.87	264.48
528.04	290.23
528.21	304.27
528.38	334.70
528.55	353.42
528.72	299.59
528.89	318.31
529.07	304.27
529.24	208.31
529.41	262.14
529.58	201.29
529.75	231.71
529.92	236.39
530.09	276.18
530.26	294.91
530.43	294.91
530.60	337.04
530.77	283.20
530.94	301.93
531.11	271.50
531.28	227.03
531.46	227.03
531.63	262.14
531.80	285.55
531.97	341.72
532.14	236.39
532.31	355.76
532.48	266.82
532.65	337.04
532.82	311.29
532.99	365.12
533.16	322.99
533.33	266.82
533.50	308.95
533.67	299.59
533.84	379.17
534.01	236.39
534.18	257.46
534.35	248.10
534.52	262.14
534.69	276.18
534.86	238.73
535.03	315.97
535.20	212.99
535.37	367.46
535.54	388.53
535.71	327.68
535.88	367.46
536.05	250.44
536.22	215.33
536.38	353.42
536.55	330.02
536.72	358.10
536.89	306.61
537.06	285.55
537.23	327.68
537.40	341.72
537.57	276.18
537.74	423.64
537.91	411.93
538.08	308.95
538.25	411.93
538.42	280.86
538.59	367.46
538.75	341.72
538.92	367.46
539.09	390.87
539.26	397.89
539.43	442.36
539.60	433.00
539.77	526.62
539.94	484.49
540.11	521.94
540.28	477.47
540.44	500.87
540.61	517.26
540.78	545.34
540.95	634.29
541.12	678.76
541.29	772.38
541.46	791.10
541.62	793.44
541.79	725.57
541.96	795.78
542.13	643.65
542.30	645.99
542.47	657.69
542.63	622.58
542.80	510.24
542.97	683.44
543.14	613.22
543.31	676.41
543.48	669.39
543.64	643.65
543.81	622.58
543.98	657.69
544.15	650.67
544.32	631.94
544.48	674.07
544.65	578.11
544.82	547.69
544.99	603.86
545.16	709.18
545.32	631.94
545.49	1046.22
545.66	1406.66
545.83	1596.25
546.00	1357.51
546.16	1025.15
546.33	723.23
546.50	690.46
546.67	573.43
546.83	620.24
547.00	566.41
547.17	526.62
547.34	477.47
547.50	533.64
547.67	550.03
547.84	566.41
548.00	561.73
548.17	505.56
548.34	456.40
548.51	468.11
548.67	540.66
548.84	493.85
549.01	500.87
549.18	482.15
549.34	437.68
549.51	416.62
549.68	451.72
549.84	479.81
550.01	393.21
550.18	454.06
550.34	425.98
550.51	374.49
550.68	395.55
550.84	346.40
551.01	339.38
551.18	365.12
551.34	341.72
551.51	409.59
551.68	402.57
551.84	379.17
552.01	379.17
552.18	369.80
552.34	337.04
552.51	313.63
552.68	269.16
552.84	313.63
553.01	369.80
553.18	325.33
553.34	313.63
553.51	238.73
553.67	346.40
553.84	334.70
554.01	315.97
554.17	313.63
554.34	217.67
554.51	325.33
554.67	344.06
554.84	227.03
555.00	320.65
555.17	402.57
555.33	250.44
555.50	325.33
555.67	315.97
555.83	250.44
556.00	327.68
556.16	411.93
556.33	285.55
556.50	229.37
556.66	278.52
556.83	294.91
556.99	262.14
557.16	297.25
557.32	348.74
557.49	304.27
557.65	255.12
557.82	292.57
557.98	259.80
558.15	243.42
558.32	290.23
558.48	229.37
558.65	243.42
558.81	348.74
558.98	266.82
559.14	351.08
559.31	259.80
559.47	255.12
559.64	259.80
559.80	318.31
559.97	210.65
560.13	304.27
560.30	337.04
560.46	234.05
560.63	259.80
560.79	248.10
560.96	294.91
561.12	227.03
561.29	283.20
561.45	252.78
561.61	278.52
561.78	339.38
561.94	287.89
562.11	297.25
562.27	241.08
562.44	259.80
562.60	269.16
562.77	273.84
562.93	308.95
563.10	322.99
563.26	238.73
563.42	238.73
563.59	280.86
563.75	346.40
563.92	273.84
564.08	273.84
564.24	269.16
564.41	344.06
564.57	259.80
564.74	290.23
564.90	348.74
565.07	360.44
565.23	351.08
565.39	241.08
565.56	231.71
565.72	248.10
565.88	238.73
566.05	234.05
566.21	271.50
566.38	283.20
566.54	297.25
566.70	280.86
566.87	238.73
567.03	271.50
567.19	285.55
567.36	294.91
567.52	290.23
567.68	273.84
567.85	315.97
568.01	238.73
568.17	182.56
568.34	194.26
568.50	287.89
568.66	266.82
568.83	390.87
568.99	234.05
569.15	320.65
569.32	327.68
569.48	210.65
569.64	271.50
569.81	203.63
569.97	161.50
570.13	215.33
570.30	304.27
570.46	170.86
570.62	243.42
570.78	177.88
570.95	238.73
571.11	318.31
571.27	271.50
571.43	241.08
571.60	229.37
571.76	215.33
571.92	257.46
572.09	276.18
572.25	276.18
572.41	234.05
572.57	220.01
572.74	322.99
572.90	231.71
573.06	220.01
573.22	241.08
573.38	297.25
573.55	285.55
573.71	231.71
573.87	301.93
574.03	217.67
574.20	280.86
574.36	248.10
574.52	238.73
574.68	231.71
574.84	280.86
575.01	273.84
575.17	273.84
575.33	332.36
575.49	332.36
575.65	339.38
575.82	252.78
575.98	358.10
576.14	278.52
576.30	248.10
576.46	374.49
576.62	491.51
576.79	505.56
576.95	367.46
577.11	325.33
577.27	374.49
577.43	379.17
577.59	252.78
577.75	283.20
577.92	245.76
578.08	320.65
578.24	201.29
578.40	379.17
578.56	411.93
578.72	465.77
578.88	472.79
579.04	440.02
579.21	442.36
579.37	292.57
579.53	337.04
579.69	346.40
579.85	337.04
580.01	348.74
580.17	353.42
580.33	344.06
580.49	322.99
580.65	334.70
580.82	276.18
580.98	287.89
581.14	308.95
581.30	388.53
581.46	269.16
581.62	409.59
581.78	306.61
581.94	367.46
582.10	344.06
582.26	315.97
582.42	315.97
582.58	388.53
582.74	337.04
582.90	397.89
583.06	304.27
583.22	351.08
583.38	315.97
583.54	360.44
583.70	339.38
583.86	386.19
584.02	383.85
584.18	425.98
584.34	325.33
584.50	585.13
584.66	1802.21
584.82	3707.41
584.98	5111.73
585.14	4713.84
585.30	3066.10
585.46	1956.69
585.62	1242.82
585.78	835.57
585.94	477.47
586.10	344.06
586.26	365.12
586.42	411.93
586.58	404.91
586.74	400.23
586.90	411.93
587.06	414.27
587.22	484.49
587.38	461.09
587.54	451.72
587.70	596.84
587.86	704.50
588.02	718.54
588.18	638.97
588.34	500.87
588.49	376.83
588.65	362.78
588.81	322.99
588.97	248.10
589.13	325.33
589.29	318.31
589.45	259.80
589.61	266.82
589.77	325.33
589.93	280.86
590.08	346.40
590.24	299.59
590.40	290.23
590.56	292.57
590.72	313.63
590.88	252.78
591.04	358.10
591.20	283.20
591.35	388.53
591.51	311.29
591.67	339.38
591.83	372.15
591.99	353.42
592.15	358.10
592.31	393.21
592.46	297.25
592.62	360.44
592.78	425.98
592.94	400.23
593.10	276.18
593.26	266.82
593.41	294.91
593.57	330.02
593.73	397.89
593.89	559.39
594.05	690.46
594.20	903.45
594.36	947.92
594.52	636.63
594.68	433.00
594.84	395.55
594.99	376.83
595.15	341.72
595.31	330.02
595.47	381.51
595.62	278.52
595.78	304.27
595.94	318.31
596.10	337.04
596.25	315.97
596.41	299.59
596.57	262.14
596.73	257.46
596.88	271.50
597.04	362.78
597.20	386.19
597.36	440.02
597.51	372.15
597.67	339.38
597.83	304.27
597.99	327.68
598.14	337.04
598.30	339.38
598.46	290.23
598.61	339.38
598.77	330.02
598.93	290.23
599.09	320.65
599.24	304.27
599.40	334.70
599.56	269.16
599.71	353.42
599.87	259.80
600.03	297.25
600.18	257.46
600.34	311.29
600.50	255.12
600.65	337.04
600.81	273.84
600.97	278.52
601.12	304.27
601.28	191.92
601.44	229.37
601.59	271.50
601.75	271.50
601.91	271.50
602.06	306.61
602.22	276.18
602.37	353.42
602.53	376.83
602.69	470.45
602.84	388.53
603.00	425.98
603.16	360.44
603.31	266.82
603.47	266.82
603.62	327.68
603.78	280.86
603.94	294.91
604.09	332.36
604.25	252.78
604.40	245.76
604.56	278.52
604.71	294.91
604.87	297.25
605.03	262.14
605.18	301.93
605.34	276.18
605.49	280.86
605.65	365.12
605.80	262.14
605.96	227.03
606.12	337.04
606.27	351.08
606.43	278.52
606.58	285.55
606.74	273.84
606.89	484.49
607.05	725.57
607.20	821.53
607.36	697.48
607.51	608.54
607.67	552.37
607.82	433.00
607.98	411.93
608.13	360.44
608.29	348.74
608.44	358.10
608.60	411.93
608.75	458.74
608.91	435.34
609.06	765.36
609.22	1083.67
609.37	1418.36
609.53	1324.74
609.68	1032.18
609.84	863.66
609.99	793.44
610.15	795.78
610.30	788.76
610.46	870.68
610.61	1071.97
610.76	1116.44
610.92	1390.28
611.07	1666.46
611.23	1542.41
611.38	1486.24
611.54	1336.45
611.69	1214.74
611.84	947.92
612.00	887.06
612.15	823.87
612.31	697.48
612.46	709.18
612.62	683.44
612.77	706.84
612.92	695.14
613.08	603.86
613.23	641.31
613.39	517.26
613.54	468.11
613.69	847.27
613.85	1301.34
614.00	1813.92
614.15	1977.75
614.31	1593.90
614.46	1268.57
614.62	987.71
614.77	840.25
614.92	517.26
615.08	482.15
615.23	500.87
615.38	397.89
615.54	414.27
615.69	395.55
615.84	465.77
616.00	711.52
616.15	746.63
616.30	655.35
616.46	571.09
616.61	454.06
616.76	416.62
616.92	322.99
617.07	292.57
617.22	367.46
617.37	367.46
617.53	318.31
617.68	301.93
617.83	318.31
617.99	337.04
618.14	404.91
618.29	327.68
618.45	346.40
618.60	360.44
618.75	269.16
618.90	341.72
619.06	287.89
619.21	327.68
619.36	294.91
619.51	308.95
619.67	320.65
619.82	348.74
619.97	292.57
620.12	301.93
620.28	294.91
620.43	271.50
620.58	351.08
620.73	332.36
620.89	311.29
621.04	337.04
621.19	465.77
621.34	491.51
621.49	500.87
621.65	531.30
621.80	416.62
621.95	311.29
622.10	381.51
622.25	315.97
622.41	301.93
622.56	262.14
622.71	276.18
622.86	407.25
623.01	362.78
623.16	325.33
623.32	245.76
623.47	313.63
623.62	287.89
623.77	299.59
623.92	315.97
624.07	334.70
624.23	306.61
624.38	269.16
624.53	351.08
624.68	248.10
624.83	425.98
624.98	320.65
625.13	308.95
625.29	318.31
625.44	304.27
625.59	355.76
625.74	283.20
625.89	400.23
626.04	456.40
626.19	667.05
626.34	990.05
626.49	1046.22
626.65	830.89
626.80	681.10
626.95	554.71
627.10	381.51
627.25	400.23
627.40	250.44
627.55	337.04
627.70	248.10
627.85	290.23
628.00	304.27
628.15	271.50
628.30	273.84
628.45	196.60
628.60	271.50
628.76	262.14
628.91	252.78
629.06	205.97
629.21	224.69
629.36	322.99
629.51	234.05
629.66	294.91
629.81	292.57
629.96	440.02
630.11	437.68
630.26	585.13
630.41	589.82
630.56	442.36
630.71	383.85
630.86	454.06
631.01	416.62
631.16	308.95
631.31	334.70
631.46	311.29
631.61	283.20
631.76	278.52
631.91	353.42
632.06	290.23
632.21	285.55
632.36	344.06
632.51	245.76
632.66	252.78
632.81	376.83
632.96	416.62
633.10	627.26
633.25	805.14
633.40	636.63
633.55	564.07
633.70	423.64
633.85	337.04
634.00	290.23
634.15	227.03
634.30	231.71
634.45	170.86
634.60	250.44
634.75	238.73
634.90	201.29
635.05	159.16
635.19	292.57
635.34	224.69
635.49	290.23
635.64	231.71
635.79	208.31
635.94	290.23
636.09	290.23
636.24	250.44
636.39	224.69
636.53	372.15
636.68	149.79
636.83	201.29
636.98	248.10
637.13	180.22
637.28	227.03
637.43	294.91
637.57	301.93
637.72	428.32
637.87	770.04
638.02	1132.82
638.17	1200.69
638.32	896.43
638.46	709.18
638.61	594.50
638.76	475.13
638.91	276.18
639.06	255.12
639.20	264.48
639.35	285.55
639.50	278.52
639.65	540.66
639.80	1088.35
639.94	1514.33
640.09	1708.59
640.24	1385.60
640.39	1013.45
640.54	774.72
640.68	528.96
640.83	388.53
640.98	215.33
641.13	243.42
641.27	273.84
641.42	170.86
641.57	234.05
641.72	210.65
641.86	224.69
642.01	257.46
642.16	241.08
642.31	229.37
642.45	292.57
642.60	184.90
642.75	203.63
642.90	196.60
643.04	198.95
643.19	222.35
643.34	238.73
643.48	269.16
643.63	250.44
643.78	330.02
643.93	201.29
644.07	245.76
644.22	283.20
644.37	175.54
644.51	140.43
644.66	264.48
644.81	299.59
644.95	250.44
645.10	252.78
645.25	229.37
645.39	262.14
645.54	161.50
645.69	276.18
645.83	264.48
645.98	224.69
646.13	201.29
646.27	210.65
646.42	191.92
646.57	184.90
646.71	131.07
646.86	182.56
647.00	205.97
647.15	278.52
647.30	168.52
647.44	194.26
647.59	180.22
647.74	173.20
647.88	205.97
648.03	245.76
648.17	264.48
648.32	198.95
648.47	266.82
648.61	227.03
648.76	166.18
648.90	203.63
649.05	238.73
649.20	257.46
649.34	248.10
649.49	187.24
649.63	252.78
649.78	152.13
649.92	306.61
650.07	367.46
650.21	601.52
650.36	924.51
650.51	987.71
650.65	868.34
650.80	592.16
650.94	454.06
651.09	367.46
651.23	201.29
651.38	250.44
651.52	250.44
651.67	220.01
651.81	208.31
651.96	231.71
652.10	266.82
652.25	220.01
652.39	196.60
652.54	229.37
652.68	269.16
652.83	341.72
652.97	454.06
653.12	564.07
653.26	451.72
653.41	531.30
653.55	355.76
653.70	285.55
653.84	248.10
653.99	245.76
654.13	266.82
654.27	154.48
654.42	212.99
654.56	220.01
654.71	259.80
654.85	234.05
655.00	215.33
655.14	220.01
655.29	147.45
655.43	170.86
655.57	182.56
655.72	217.67
655.86	210.65
656.01	229.37
656.15	212.99
656.30	220.01
656.44	273.84
656.58	201.29
656.73	166.18
656.87	194.26
657.01	255.12
657.16	243.42
657.30	238.73
657.45	322.99
657.59	205.97
657.73	332.36
657.88	257.46
658.02	306.61
658.16	187.24
658.31	177.88
658.45	236.39
658.60	177.88
658.74	227.03
658.88	187.24
659.03	224.69
659.17	257.46
659.31	241.08
659.46	320.65
659.60	517.26
659.74	608.54
659.89	547.69
660.03	477.47
660.17	372.15
660.32	327.68
660.46	311.29
660.60	290.23
660.74	304.27
660.89	285.55
661.03	142.77
661.17	175.54
661.32	173.20
661.46	285.55
661.60	201.29
661.74	252.78
661.89	259.80
662.03	166.18
662.17	227.03
662.31	189.58
662.46	184.90
662.60	290.23
662.74	163.84
662.88	266.82
663.03	182.56
663.17	170.86
663.31	285.55
663.45	212.99
663.60	222.35
663.74	215.33
663.88	231.71
664.02	276.18
664.17	159.16
664.31	269.16
664.45	266.82
664.59	234.05
664.73	187.24
664.88	215.33
665.02	149.79
665.16	217.67
665.30	220.01
665.44	198.95
665.59	208.31
665.73	217.67
665.87	220.01
666.01	273.84
666.15	140.43
666.29	121.71
666.44	243.42
666.58	245.76
666.72	201.29
666.86	170.86
667.00	177.88
667.14	243.42
667.28	290.23
667.43	540.66
667.57	777.06
667.71	936.21
667.85	744.29
667.99	641.31
668.13	559.39
668.27	339.38
668.41	255.12
668.56	297.25
668.70	236.39
668.84	142.77
668.98	241.08
669.12	248.10
669.26	269.16
669.40	231.71
669.54	252.78
669.68	287.89
669.82	224.69
669.96	159.16
670.10	241.08
670.25	262.14
670.39	222.35
670.53	194.26
670.67	234.05
670.81	276.18
670.95	276.18
671.09	196.60
671.23	348.74
671.37	477.47
671.51	561.73
671.65	603.86
671.79	557.05
671.93	383.85
672.07	463.43
672.21	334.70
672.35	201.29
672.49	168.52
672.63	222.35
672.77	224.69
672.91	180.22
673.05	159.16
673.19	229.37
673.33	194.26
673.47	229.37
673.61	208.31
673.75	175.54
673.89	248.10
674.03	215.33
674.17	159.16
674.31	234.05
674.45	208.31
674.59	175.54
674.73	95.96
674.87	294.91
675.01	201.29
675.15	184.90
675.29	217.67
675.43	264.48
675.56	259.80
675.70	259.80
675.84	187.24
675.98	280.86
676.12	159.16
676.26	196.60
676.40	114.69
676.54	212.99
676.68	173.20
676.82	175.54
676.96	203.63
677.10	248.10
677.23	241.08
677.37	142.77
677.51	259.80
677.65	273.84
677.79	208.31
677.93	224.69
678.07	173.20
678.21	173.20
678.34	168.52
678.48	210.65
678.62	154.48
678.76	175.54
678.90	203.63
679.04	156.82
679.18	102.98
679.31	189.58
679.45	142.77
679.59	236.39
679.73	194.26
679.87	184.90
680.00	163.84
680.14	180.22
680.28	191.92
680.42	170.86
680.56	189.58
680.70	135.75
680.83	145.11
680.97	262.14
681.11	187.24
681.25	222.35
681.39	212.99
681.52	187.24
681.66	191.92
681.80	236.39
681.94	170.86
682.07	227.03
682.21	189.58
682.35	156.82
682.49	154.48
682.62	234.05
682.76	163.84
682.90	175.54
683.04	180.22
683.17	189.58
683.31	156.82
683.45	198.95
683.59	238.73
683.72	222.35
683.86	191.92
684.00	184.90
684.13	212.99
684.27	163.84
684.41	168.52
684.55	152.13
684.68	168.52
684.82	180.22
684.96	198.95
685.09	198.95
685.23	173.20
685.37	135.75
685.50	189.58
685.64	154.48
685.78	159.16
685.91	135.75
686.05	220.01
686.19	182.56
686.32	149.79
686.46	196.60
686.60	142.77
686.73	133.41
686.87	236.39
687.01	227.03
687.14	105.32
687.28	159.16
687.42	212.99
687.55	189.58
687.69	248.10
687.82	259.80
687.96	241.08
688.10	255.12
688.23	198.95
688.37	191.92
688.50	210.65
688.64	168.52
688.78	173.20
688.91	210.65
689.05	138.09
689.18	128.73
689.32	147.45
689.46	91.28
689.59	175.54
689.73	236.39
689.86	191.92
690.00	168.52
690.13	154.48
690.27	145.11
690.41	212.99
690.54	198.95
690.68	166.18
690.81	142.77
690.95	140.43
691.08	241.08
691.22	175.54
691.35	107.66
691.49	93.62
691.62	203.63
691.76	175.54
691.89	201.29
692.03	177.88
692.16	175.54
692.30	224.69
692.43	201.29
692.57	320.65
692.70	414.27
692.84	540.66
692.97	489.17
693.11	390.87
693.24	322.99
693.38	231.71
693.51	278.52
693.65	276.18
693.78	168.52
693.92	208.31
694.05	163.84
694.19	201.29
694.32	163.84
694.45	182.56
694.59	140.43
694.72	124.05
694.86	152.13
694.99	201.29
695.13	119.37
695.26	114.69
695.39	119.37
695.53	177.88
695.66	198.95
695.80	173.20
695.93	184.90
696.07	93.62
696.20	205.97
696.33	166.18
696.47	168.52
696.60	252.78
696.73	210.65
696.87	184.90
697.00	145.11
697.14	210.65
697.27	168.52
697.40	278.52
697.54	229.37
697.67	133.41
697.80	159.16
697.94	187.24
698.07	255.12
698.21	112.35
698.34	117.03
698.47	156.82
698.61	100.64
698.74	168.52
698.87	266.82
699.01	147.45
699.14	124.05
699.27	184.90
699.40	248.10
699.54	173.20
699.67	170.86
699.80	205.97
699.94	189.58
700.07	110.01
700.20	217.67
700.34	138.09
700.47	163.84
700.60	147.45
700.73	212.99
700.87	224.69
701.00	138.09
701.13	203.63
701.26	229.37
701.40	112.35
701.53	175.54
701.66	117.03
701.79	135.75
701.93	161.50
702.06	238.73
702.19	175.54
702.32	182.56
702.46	121.71
702.59	100.64
702.72	152.13
702.85	360.44
702.99	514.92
703.12	667.05
703.25	770.04
703.38	601.52
703.51	580.45
703.65	411.93
703.78	388.53
703.91	308.95
704.04	266.82
704.17	231.71
704.31	215.33
704.44	191.92
704.57	189.58
704.70	117.03
704.83	142.77
704.96	126.39
705.10	131.07
705.23	170.86
>>>>>End Processed Spectral Data<<<<<
