SpectraSuite Data File
++++++++++++++++++++++++++++++++++++
Date: Fri Oct 04 12:14:51 GMT-05:00 2013
User: price-jones
Dark Spectrum Present: No
Reference Spectrum Present: No
Number of Sampled Component Spectra: 1
Spectrometers: USB2+H05261
Integration Time (usec): 10000000 (USB2+H05261)
Spectra Averaged: 1 (USB2+H05261)
Boxcar Smoothing: 0 (USB2+H05261)
Correct for Electrical Dark: No (USB2+H05261)
Strobe/Lamp Enabled: No (USB2+H05261)
Correct for Detector Non-linearity: No (USB2+H05261)
Correct for Stray Light: No (USB2+H05261)
Number of Pixels in Processed Spectrum: 2048
>>>>>Begin Processed Spectral Data<<<<<
365.73	0.00
365.92	0.00
366.12	0.00
366.32	0.00
366.52	0.00
366.72	4355.74
366.91	2251.60
367.11	4201.26
367.31	3723.79
367.51	4152.11
367.70	5064.92
367.90	6656.48
368.10	4615.54
368.30	4922.15
368.49	2544.16
368.69	6298.38
368.89	4241.05
369.09	2787.58
369.28	3939.12
369.48	2370.96
369.68	3421.86
369.87	4484.47
370.07	2984.18
370.27	6682.23
370.47	4662.35
370.66	3801.03
370.86	5509.62
371.06	7815.05
371.25	9813.87
371.45	4264.46
371.65	7007.56
371.84	3550.59
372.04	3110.57
372.24	5041.51
372.44	3981.25
372.63	5530.69
372.83	8779.35
373.03	4435.32
373.22	3442.93
373.42	3609.11
373.62	4533.62
373.81	5458.13
374.01	6927.99
374.21	6633.08
374.40	4327.65
374.60	7206.51
374.79	4608.51
374.99	4414.25
375.19	5420.68
375.38	5797.51
375.58	5123.43
375.78	6864.79
375.97	6326.47
376.17	9884.08
376.37	4784.06
376.56	5841.98
376.76	3716.77
376.95	3623.15
377.15	6071.35
377.35	5694.52
377.54	5731.97
377.74	3871.25
377.93	4065.51
378.13	5413.66
378.33	7040.33
378.52	4732.56
378.72	7194.81
378.91	6445.84
379.11	4227.01
379.31	4292.54
379.50	3176.11
379.70	6977.14
379.89	6820.32
380.09	4250.41
380.28	3370.37
380.48	4793.42
380.68	3840.82
380.87	3267.39
381.07	5280.25
381.26	7669.94
381.46	6424.77
381.65	6111.14
381.85	4093.60
382.04	4610.86
382.24	5643.03
382.43	4622.56
382.63	3485.06
382.83	4383.82
383.02	6752.45
383.22	7765.90
383.41	3679.32
383.61	5018.11
383.80	4627.24
384.00	4692.77
384.19	4306.59
384.39	5219.39
384.58	4339.35
384.78	5863.04
384.97	5460.47
385.17	4903.42
385.36	4177.86
385.56	6441.15
385.75	3213.56
385.95	4716.18
386.14	6558.18
386.34	4348.72
386.53	5390.25
386.72	4086.58
386.92	7756.54
387.11	5954.32
387.31	5919.21
387.50	3882.95
387.70	3342.28
387.89	5235.78
388.09	3911.04
388.28	3660.60
388.48	3875.93
388.67	6736.06
388.86	4711.50
389.06	4545.32
389.25	5797.51
389.45	5507.28
389.64	4973.64
389.84	7398.43
390.03	6239.87
390.22	5441.75
390.42	4550.00
390.61	3590.38
390.81	3258.03
391.00	4990.02
391.19	7267.36
391.39	4814.48
391.58	6239.87
391.78	5146.84
391.97	5451.11
392.16	3588.04
392.36	7782.28
392.55	7201.83
392.75	4961.94
392.94	4131.05
393.13	6291.36
393.33	3351.65
393.52	4142.75
393.71	7662.91
393.91	5228.76
394.10	3716.77
394.29	4416.59
394.49	4709.16
394.68	6054.97
394.88	7552.91
395.07	7283.75
395.26	5282.59
395.46	5263.86
395.65	7382.05
395.84	5975.39
396.04	11754.17
396.23	4943.21
396.42	4304.25
396.62	5734.31
396.81	5994.11
397.00	5383.23
397.19	5605.58
397.39	4809.80
397.58	7981.23
397.77	4739.58
397.97	5317.70
398.16	5064.92
398.35	6726.70
398.55	4128.70
398.74	5369.19
398.93	7321.20
399.12	4716.18
399.32	6726.70
399.51	5233.44
399.70	6846.07
399.90	6293.70
400.09	6342.85
400.28	7531.84
400.47	5043.85
400.67	7253.32
400.86	5781.12
401.05	6794.58
401.24	7777.60
401.44	6909.26
401.63	7014.59
401.82	7726.11
402.01	4484.47
402.21	6106.46
402.40	6214.12
402.59	5235.78
402.78	5231.10
402.97	5249.82
403.17	5907.51
403.36	6347.53
403.55	5610.26
403.74	5380.89
403.93	5682.82
404.13	8510.19
404.32	5078.96
404.51	4966.62
404.70	7655.89
404.89	5371.53
405.09	10176.65
405.28	5865.38
405.47	4376.80
405.66	6883.52
405.85	7494.40
406.05	5792.83
406.24	5523.66
406.43	6417.75
406.62	6874.15
406.81	10640.08
407.00	7981.23
407.20	6174.33
407.39	5844.32
407.58	5350.46
407.77	6881.18
407.96	8695.09
408.15	7784.62
408.34	7007.56
408.54	6427.11
408.73	6408.39
408.92	6200.08
409.11	7314.17
409.30	8521.89
409.49	4875.34
409.68	5624.31
409.87	6214.12
410.07	4898.74
410.26	6389.66
410.45	5771.76
410.64	5025.13
410.83	6298.38
411.02	5549.41
411.21	7506.10
411.40	7887.61
411.59	6012.84
411.78	5570.48
411.98	6195.40
412.17	4823.84
412.36	5713.25
412.55	5600.90
412.74	7604.40
412.93	10026.86
413.12	5362.17
413.31	8699.77
413.50	7171.40
413.69	6223.48
413.88	9202.99
414.07	6981.82
414.26	6787.55
414.45	5469.83
414.64	7705.04
414.83	7440.56
415.02	7089.48
415.22	8067.83
415.41	9202.99
415.60	5825.59
415.79	6490.31
415.98	9423.00
416.17	6806.28
416.36	6883.52
416.55	5720.27
416.74	7983.57
416.93	8889.35
417.12	6548.82
417.31	6546.48
417.50	6726.70
417.69	10925.62
417.88	7283.75
418.07	5675.80
418.26	7021.61
418.45	6562.86
418.64	10602.63
418.83	8276.13
419.02	8065.49
419.21	7309.49
419.39	7522.48
419.58	6190.72
419.77	6211.78
419.96	9397.25
420.15	10251.55
420.34	6871.81
420.53	7634.83
420.72	8903.40
420.91	7487.37
421.10	7059.06
421.29	7466.31
421.48	8191.88
421.67	8730.20
421.86	6286.68
422.05	6651.80
422.24	6485.62
422.43	7232.26
422.61	5359.83
422.80	6466.90
422.99	7117.57
423.18	6284.34
423.37	10017.49
423.56	7969.52
423.75	8203.58
423.94	5530.69
424.13	6743.08
424.32	5872.40
424.50	7236.94
424.69	6768.83
424.88	9706.20
425.07	6277.32
425.26	8102.93
425.45	8676.37
425.64	6590.95
425.83	7194.81
426.01	9806.84
426.20	7880.58
426.39	6712.66
426.58	6375.62
426.77	7211.19
426.96	8894.04
427.15	7588.02
427.33	6214.12
427.52	7250.98
427.71	7391.41
427.90	7527.16
428.09	6380.30
428.28	5664.10
428.46	6525.41
428.65	8182.51
428.84	8837.86
429.03	10546.45
429.22	6195.40
429.40	5476.85
429.59	5212.37
429.78	11166.70
429.97	6370.94
430.16	5736.65
430.34	6221.14
430.53	5886.45
430.72	6258.59
430.91	8910.42
431.10	5481.53
431.28	7152.68
431.47	8947.87
431.66	8283.16
431.85	6511.37
432.03	7243.96
432.22	12430.59
432.41	7185.44
432.60	10193.03
432.79	6785.21
432.97	8840.20
433.16	8053.78
433.35	6841.39
433.54	6766.49
433.72	8645.94
433.91	9270.86
434.10	6761.81
434.28	8360.39
434.47	7049.69
434.66	9263.84
434.85	6918.62
435.03	7693.34
435.22	10939.66
435.41	11587.99
435.59	9104.68
435.78	8255.07
435.97	6871.81
436.16	9465.13
436.34	7480.35
436.53	8449.33
436.72	10228.14
436.90	9242.78
437.09	8610.83
437.28	7819.73
437.46	7016.93
437.65	9006.38
437.84	8774.67
438.02	8313.58
438.21	8709.13
438.40	6771.17
438.58	6183.70
438.77	8170.81
438.96	8028.04
439.14	6904.58
439.33	9383.21
439.52	7485.03
439.70	7892.29
439.89	9591.52
440.08	8402.52
440.26	8248.05
440.45	11482.67
440.63	8664.66
440.82	8299.54
441.01	8613.17
441.19	7735.47
441.38	7772.92
441.57	8018.68
441.75	10888.17
441.94	10841.36
442.12	8533.59
442.31	7875.90
442.50	8028.04
442.68	7964.84
442.87	8720.84
443.05	8131.02
443.24	8755.94
443.43	11073.07
443.61	11461.60
443.80	8596.79
443.98	7665.25
444.17	7999.95
444.35	10216.44
444.54	8161.45
444.73	8060.80
444.91	11220.53
445.10	6965.43
445.28	7131.61
445.47	8568.70
445.65	8409.54
445.84	7456.95
446.02	8664.66
446.21	7896.97
446.39	8025.70
446.58	9329.38
446.77	7920.37
446.95	8587.43
447.14	9540.02
447.32	11887.58
447.51	8781.69
447.69	9062.55
447.88	9083.62
448.06	12301.86
448.25	9664.07
448.43	7382.05
448.62	7206.51
448.80	9731.95
448.99	10471.56
449.17	7658.23
449.36	7861.86
449.54	10349.85
449.73	7445.24
449.91	9851.31
450.10	8336.99
450.28	14413.02
450.46	13444.04
450.65	11007.54
450.83	9603.22
451.02	8950.21
451.20	8929.14
451.39	8952.55
451.57	8477.42
451.76	8016.33
451.94	8877.65
452.13	10092.39
452.31	10974.77
452.49	9846.63
452.68	7169.06
452.86	9483.85
453.05	12762.94
453.23	8872.97
453.42	7098.84
453.60	8774.67
453.78	9678.12
453.97	7508.44
454.15	7417.16
454.34	8208.26
454.52	7641.85
454.70	11932.05
454.89	10342.83
455.07	8116.98
455.26	9982.38
455.44	10665.82
455.62	8404.86
455.81	9596.20
455.99	9916.85
456.17	10436.45
456.36	8711.47
456.54	8781.69
456.73	8362.73
456.91	8428.27
457.09	9870.04
457.28	11751.83
457.46	9235.75
457.64	11386.71
457.83	8755.94
458.01	8276.13
458.19	9736.63
458.38	8461.04
458.56	9668.75
458.74	7581.00
458.93	9987.07
459.11	9322.35
459.29	7971.86
459.48	10619.01
459.66	12774.64
459.84	10848.38
460.03	18043.19
460.21	11044.99
460.39	9156.18
460.57	11714.38
460.76	9984.73
460.94	9593.86
461.12	13263.82
461.31	12439.95
461.49	9036.81
461.67	8868.29
461.85	9994.09
462.04	9191.28
462.22	32257.26
462.40	10356.87
462.59	11983.54
462.77	8730.20
462.95	10139.20
463.13	7733.13
463.32	11447.56
463.50	9888.76
463.68	10553.48
463.86	9860.68
464.05	8964.25
464.23	11843.11
464.41	11059.03
464.59	8276.13
464.78	8858.93
464.96	7946.12
465.14	9795.14
465.32	8617.85
465.50	10630.71
465.69	10895.19
465.87	7826.75
466.05	10413.04
466.23	7751.85
466.41	8699.77
466.60	9050.85
466.78	9418.32
466.96	11510.75
467.14	10066.64
467.32	11918.01
467.51	10057.28
467.69	10820.30
467.87	13050.83
468.05	9537.68
468.23	13987.04
468.41	11384.37
468.60	9104.68
468.78	10106.43
468.96	12067.80
469.14	10661.14
469.32	7489.71
469.50	7988.25
469.69	10710.29
469.87	9781.10
470.05	10010.47
470.23	9186.60
470.41	8208.26
470.59	8573.38
470.77	10310.06
470.95	9521.30
471.14	12156.74
471.32	9488.53
471.50	13144.45
471.68	9942.60
471.86	10682.20
472.04	8669.34
472.22	10129.84
472.40	8081.87
472.58	8990.00
472.77	8245.71
472.95	9846.63
473.13	14277.27
473.31	12571.02
473.49	8245.71
473.67	8688.07
473.85	11119.89
474.03	11531.82
474.21	10132.18
474.39	12772.30
474.57	13954.27
474.75	10892.85
474.93	8992.34
475.12	8236.35
475.30	9212.35
475.48	10157.92
475.66	10331.12
475.84	10111.11
476.02	9813.87
476.20	11517.78
476.38	10312.40
476.56	15925.00
476.74	9954.30
476.92	9856.00
477.10	10242.18
477.28	12105.25
477.46	10054.94
477.64	11847.79
477.82	10548.79
478.00	10008.13
478.18	11066.05
478.36	10530.07
478.54	9493.21
478.72	9745.99
478.90	10654.12
479.08	11735.45
479.26	10565.18
479.44	10169.63
479.62	9495.55
479.80	9954.30
479.98	9460.45
480.16	10047.92
480.34	12856.56
480.52	9879.40
480.70	12255.04
480.88	9991.75
481.06	10005.79
481.24	10099.41
481.41	10949.03
481.59	12470.37
481.77	11805.66
481.95	10827.32
482.13	14623.67
482.31	11580.97
482.49	10200.05
482.67	12468.03
482.85	13069.55
483.03	12241.00
483.21	11920.35
483.39	10876.47
483.57	11239.25
483.74	14736.01
483.92	11470.97
484.10	10225.80
484.28	13544.68
484.46	17186.55
484.64	11089.46
484.82	11969.50
485.00	11098.82
485.18	11658.21
485.35	11702.68
485.53	9041.49
485.71	13289.56
485.89	8557.00
486.07	10338.15
486.25	16545.25
486.43	12800.39
486.61	13032.10
486.78	12711.45
486.96	9893.44
487.14	11789.28
487.32	11550.54
487.50	11487.35
487.68	13729.58
487.85	10977.11
488.03	13411.27
488.21	15580.95
488.39	12245.68
488.57	13600.85
488.75	11602.04
488.92	38726.50
489.10	13121.04
489.28	17446.35
489.46	11723.74
489.64	12959.55
489.81	13191.26
489.99	14494.94
490.17	12933.80
490.35	19772.85
490.53	12844.86
490.70	11754.17
490.88	14951.34
491.06	12664.64
491.24	14618.99
491.41	16526.52
491.59	14260.88
491.77	11555.22
491.95	11772.89
492.13	12119.29
492.30	13647.66
492.48	13102.32
492.66	13963.64
492.84	12552.29
493.01	14129.81
493.19	12891.67
493.37	17687.43
493.54	15290.72
493.72	14841.34
493.90	13315.31
494.08	13118.70
494.25	15428.81
494.43	14686.86
494.61	13724.90
494.79	12723.15
494.96	12931.46
495.14	15398.38
495.32	13905.12
495.49	14707.93
495.67	15023.90
495.85	13694.47
496.02	13324.67
496.20	16290.13
496.38	15606.69
496.55	14883.47
496.73	15468.60
496.91	13348.08
497.09	16563.97
497.26	14609.62
497.44	14551.11
497.62	14188.33
497.79	14438.76
497.97	15325.83
498.14	15529.45
498.32	15328.17
498.50	15520.09
498.67	13844.27
498.85	15379.66
499.03	14541.75
499.20	15077.73
499.38	14764.10
499.56	14764.10
499.73	19152.60
499.91	16484.39
500.08	16367.37
500.26	14462.17
500.44	13699.16
500.61	15468.60
500.79	13734.26
500.97	16109.91
501.14	18026.81
501.32	15002.83
501.49	17593.81
501.67	14658.78
501.84	15861.81
502.02	13341.05
502.20	18733.65
502.37	15899.26
502.55	14537.07
502.72	14913.89
502.90	16783.98
503.07	15426.47
503.25	15861.81
503.43	13317.65
503.60	14139.18
503.78	15225.18
503.95	14494.94
504.13	14284.29
504.30	16442.26
504.48	17326.99
504.65	18389.59
504.83	16950.16
505.01	14546.43
505.18	15646.48
505.36	15353.91
505.53	15119.86
505.71	14775.80
505.88	18480.87
506.06	15314.13
506.23	15594.99
506.41	14675.16
506.58	16365.03
506.76	15882.88
506.93	14939.64
507.11	16531.20
507.28	13919.17
507.46	14267.91
507.63	15749.46
507.81	14120.45
507.98	15351.57
508.16	15372.64
508.33	16292.47
508.50	17088.25
508.68	16027.99
508.85	16149.70
509.03	15157.31
509.20	14977.09
509.38	16992.29
509.55	17970.63
509.73	17752.96
509.90	18862.38
510.08	14635.37
510.25	17579.76
510.42	14757.08
510.60	16123.95
510.77	17715.51
510.95	18375.55
511.12	15543.50
511.30	17949.57
511.47	17994.04
511.64	20346.28
511.82	15896.92
511.99	15910.96
512.17	15459.24
512.34	14511.32
512.51	15468.60
512.69	15382.00
512.86	18661.09
513.04	14698.56
513.21	16498.44
513.38	15068.37
513.56	15169.01
513.73	15047.30
513.90	14284.29
514.08	14174.28
514.25	16650.57
514.43	16751.21
514.60	14342.80
514.77	15147.95
514.95	16528.86
515.12	14841.34
515.29	16891.65
515.47	16987.61
515.64	16690.36
515.81	16149.70
515.99	19484.96
516.16	16673.98
516.33	17163.15
516.51	13888.74
516.68	12723.15
516.85	13982.36
517.03	14319.40
517.20	16613.12
517.37	16842.50
517.54	17483.80
517.72	15044.96
517.89	12996.99
518.06	13448.72
518.24	20023.28
518.41	19910.94
518.58	17493.16
518.75	14691.54
518.93	16411.84
519.10	16365.03
519.27	15473.28
519.45	16720.79
519.62	16910.37
519.79	17495.50
519.96	14913.89
520.14	16744.19
520.31	19103.45
520.48	16500.78
520.65	16903.35
520.83	18382.57
521.00	17991.70
521.17	17364.43
521.34	15960.11
521.52	16957.18
521.69	16704.40
521.86	16814.41
522.03	18132.13
522.20	20634.16
522.38	15536.48
522.55	17226.34
522.72	14494.94
522.89	18396.61
523.07	21282.49
523.24	17050.80
523.41	16322.90
523.58	16493.76
523.75	16720.79
523.92	15730.74
524.10	17769.35
524.27	16922.07
524.44	16238.64
524.61	19906.26
524.78	16325.24
524.96	18473.85
525.13	17408.90
525.30	19651.14
525.47	18754.71
525.64	17294.22
525.81	17380.82
525.98	16945.48
526.16	15515.41
526.33	14824.95
526.50	14118.11
526.67	13811.50
526.84	14099.39
527.01	14703.25
527.18	17366.78
527.36	16858.88
527.53	15861.81
527.70	19463.90
527.87	16863.56
528.04	20648.21
528.21	15969.48
528.38	19726.04
528.55	19917.96
528.72	20561.61
528.89	22473.82
529.07	17427.63
529.24	17507.21
529.41	20851.83
529.58	17247.41
529.75	16379.07
529.92	18562.79
530.09	17418.27
530.26	19323.46
530.43	18225.75
530.60	17525.93
530.77	17537.63
530.94	19112.81
531.11	18757.05
531.28	17032.08
531.46	15913.30
531.63	17490.82
531.80	18033.83
531.97	18087.66
532.14	16872.92
532.31	17160.81
532.48	17481.46
532.65	18288.95
532.82	16105.23
532.99	17268.47
533.16	17336.35
533.33	17764.67
533.50	17343.37
533.67	16339.28
533.84	19201.76
534.01	18462.15
534.18	17610.19
534.35	17778.71
534.52	18239.79
534.69	22684.47
534.86	17254.43
535.03	16966.54
535.20	17165.49
535.37	19838.38
535.54	18221.07
535.71	17209.96
535.88	21041.42
536.05	16760.58
536.22	18352.14
536.38	16582.70
536.55	17467.42
536.72	19372.61
536.89	15330.51
537.06	16285.45
537.23	16170.76
537.40	16453.97
537.57	16245.66
537.74	18934.93
537.91	18944.30
538.08	17261.45
538.25	18223.41
538.42	16362.69
538.59	17348.05
538.75	16709.08
538.92	17266.13
539.09	19124.52
539.26	16477.37
539.43	22338.07
539.60	24577.97
539.77	28945.41
539.94	27599.60
540.11	24194.12
540.28	23475.57
540.44	21352.71
540.61	16854.20
540.78	16292.47
540.95	15199.44
541.12	20709.06
541.29	15882.88
541.46	20669.27
541.62	17568.06
541.79	15915.64
541.96	15480.30
542.13	16292.47
542.30	15627.76
542.47	18806.20
542.63	16430.56
542.80	17488.48
542.97	19337.51
543.14	16634.19
543.31	18066.60
543.48	16882.28
543.64	18090.00
543.81	17301.24
543.98	15929.69
544.15	15325.83
544.32	16704.40
544.48	16711.42
544.65	16645.89
544.82	15826.70
544.99	16711.42
545.16	19499.00
545.32	16009.26
545.49	17982.34
545.66	16882.28
545.83	15756.49
546.00	15068.37
546.16	15805.64
546.33	16458.65
546.50	16793.34
546.67	19609.01
546.83	18562.79
547.00	17305.92
547.17	15201.78
547.34	15012.20
547.50	16430.56
547.67	16397.79
547.84	15573.92
548.00	18860.04
548.17	16009.26
548.34	16376.73
548.51	20662.25
548.67	19194.73
548.84	16521.84
549.01	17467.42
549.18	17699.13
549.34	17823.18
549.51	17191.23
549.68	17769.35
549.84	16992.29
550.01	15234.55
550.18	27037.87
550.34	23426.42
550.51	17317.62
550.68	21341.00
550.84	15903.94
551.01	17102.29
551.18	18284.26
551.34	16938.46
551.51	16681.00
551.68	16599.08
551.84	18621.30
552.01	15438.17
552.18	16163.74
552.34	16940.80
552.51	16879.94
552.68	18125.11
552.84	16306.51
553.01	17312.94
553.18	18845.99
553.34	16343.96
553.51	15140.93
553.67	18331.08
553.84	21766.98
554.01	18333.42
554.17	18321.71
554.34	15662.86
554.51	18017.44
554.67	19278.99
554.84	18707.90
555.00	17827.86
555.17	17607.85
555.33	19398.36
555.50	17172.51
555.67	17696.79
555.83	15314.13
556.00	16945.48
556.16	33996.28
556.33	17041.44
556.50	16697.38
556.66	16533.54
556.83	15772.87
556.99	15758.83
557.16	16791.00
557.32	15424.13
557.49	15824.36
557.65	15679.25
557.82	15440.51
557.98	16662.27
558.15	15192.42
558.32	16074.80
558.48	15328.17
558.65	15793.94
558.81	17462.74
558.98	15161.99
559.14	17511.89
559.31	16451.63
559.47	17797.43
559.64	14984.11
559.80	18085.32
559.97	14331.10
560.13	15985.86
560.30	14520.68
560.46	15786.91
560.63	16084.16
560.79	16507.80
560.96	16505.46
561.12	14916.23
561.29	16819.09
561.45	15311.78
561.61	16039.69
561.78	25029.69
561.94	15594.99
562.11	15143.27
562.27	16489.07
562.44	14616.65
562.60	15655.84
562.77	15892.24
562.93	22445.74
563.10	16673.98
563.26	16229.27
563.42	18237.45
563.59	16264.38
563.75	14888.15
563.92	19246.23
564.08	16833.13
564.24	18047.87
564.41	20563.95
564.57	14249.18
564.74	15126.88
564.90	16681.00
565.07	17444.01
565.23	17884.03
565.39	15384.34
565.56	16933.78
565.72	14684.52
565.88	15330.51
566.05	14925.60
566.21	14974.75
566.38	16898.67
566.54	15915.64
566.70	15379.66
566.87	15255.61
567.03	13631.28
567.19	15793.94
567.36	16709.08
567.52	15286.04
567.68	16980.59
567.85	16610.78
568.01	14740.69
568.17	13465.10
568.34	14710.27
568.50	18132.13
568.66	13713.20
568.83	22485.53
568.99	14134.50
569.15	18298.31
569.32	14869.42
569.48	14841.34
569.64	13710.86
569.81	15176.03
569.97	14061.94
570.13	16542.91
570.30	14555.79
570.46	14611.96
570.62	14668.14
570.78	14445.79
570.95	12685.70
571.11	18637.69
571.27	18827.27
571.43	13348.08
571.60	16922.07
571.76	14476.21
571.92	15056.67
572.09	14829.63
572.25	15171.35
572.41	15398.38
572.57	14728.99
572.74	19688.59
572.90	17092.93
573.06	17151.45
573.22	16336.94
573.38	17942.55
573.55	17228.68
573.71	17518.91
573.87	16793.34
574.03	13781.07
574.20	14768.78
574.36	18288.95
574.52	15012.20
574.68	15325.83
574.84	16545.25
575.01	15012.20
575.17	16395.45
575.33	14314.72
575.49	17118.68
575.65	17469.76
575.82	18141.49
575.98	22883.42
576.14	19007.49
576.30	18747.69
576.46	17593.81
576.62	16833.13
576.79	17090.59
576.95	18546.40
577.11	14043.21
577.27	13776.39
577.43	18279.58
577.59	18338.10
577.75	16346.30
577.92	14670.48
578.08	14097.05
578.24	13600.85
578.40	17458.06
578.56	17984.68
578.72	18375.55
578.88	17060.16
579.04	14714.95
579.21	16175.44
579.37	14995.81
579.53	15241.57
579.69	17954.25
579.85	14054.92
580.01	17032.08
580.17	15021.56
580.33	15339.87
580.49	16376.73
580.65	16924.41
580.82	16105.23
580.98	14562.81
581.14	14974.75
581.30	18881.10
581.46	17153.79
581.62	20269.04
581.78	17448.69
581.94	19250.91
582.10	15197.10
582.26	16622.48
582.42	15737.76
582.58	17493.16
582.74	15971.82
582.90	17114.00
583.06	17813.82
583.22	15667.55
583.38	16374.39
583.54	16376.73
583.70	21120.99
583.86	19353.89
584.02	19396.02
584.18	24477.32
584.34	23264.92
584.50	45722.37
584.66	65535.00
584.82	65535.00
584.98	65535.00
585.14	65535.00
585.30	65535.00
585.46	65535.00
585.62	65535.00
585.78	59875.58
585.94	37354.95
586.10	25317.57
586.26	21610.17
586.42	23314.08
586.58	19637.09
586.74	17610.19
586.90	17530.61
587.06	18424.70
587.22	17385.50
587.38	15353.91
587.54	23428.76
587.70	45846.41
587.86	54892.58
588.02	54525.12
588.18	47791.40
588.34	35049.52
588.49	24432.85
588.65	20180.10
588.81	15358.60
588.97	11826.73
589.13	12959.55
589.29	13738.94
589.45	16107.57
589.61	13591.49
589.77	17193.58
589.93	14183.65
590.08	13935.55
590.24	13596.17
590.40	15197.10
590.56	16744.19
590.72	14113.43
590.88	12854.22
591.04	14656.43
591.20	12987.63
591.35	17638.28
591.51	13888.74
591.67	12276.11
591.83	13254.45
591.99	15358.60
592.15	15634.78
592.31	14752.40
592.46	13598.51
592.62	15983.52
592.78	13092.96
592.94	12816.77
593.10	13151.47
593.26	13076.57
593.41	15599.67
593.57	14719.63
593.73	16278.43
593.89	42059.43
594.05	58546.16
594.20	62253.57
594.36	60568.38
594.52	55641.56
594.68	41968.15
594.84	36231.49
594.99	27711.94
595.15	18597.90
595.31	16760.58
595.47	18270.22
595.62	14047.90
595.78	14043.21
595.94	14001.08
596.10	17188.89
596.25	14953.68
596.41	16093.52
596.57	13121.04
596.73	13291.90
596.88	17231.02
597.04	25755.26
597.20	30864.64
597.36	33893.30
597.51	26808.50
597.67	21699.11
597.83	18850.67
597.99	19157.28
598.14	15552.86
598.30	16863.56
598.46	13689.79
598.61	16924.41
598.77	15040.28
598.93	13226.37
599.09	13811.50
599.24	14588.56
599.40	16681.00
599.56	13940.23
599.71	14178.97
599.87	13544.68
600.03	14202.37
600.18	13734.26
600.34	14853.04
600.50	12784.01
600.65	12222.28
600.81	15946.07
600.97	12840.18
601.12	13547.02
601.28	16608.44
601.44	13760.01
601.59	12257.39
601.75	13996.40
601.91	13123.38
602.06	14906.87
602.22	22253.81
602.37	20077.12
602.53	27475.55
602.69	36182.34
602.84	33401.79
603.00	28657.52
603.16	25027.35
603.31	22370.84
603.47	18635.35
603.62	13380.84
603.78	14684.52
603.94	15232.21
604.09	14277.27
604.25	15587.97
604.40	15550.52
604.56	13327.01
604.71	14246.84
604.87	12594.42
605.03	14129.81
605.18	14555.79
605.34	16727.81
605.49	13935.55
605.65	13687.45
605.80	12358.03
605.96	14335.78
606.12	15566.90
606.27	16402.47
606.43	14450.47
606.58	16428.22
606.74	20772.25
606.89	44563.80
607.05	59040.01
607.20	63468.31
607.36	59203.85
607.51	50436.20
607.67	39639.31
607.82	30728.89
607.98	25158.42
608.13	17912.12
608.29	15248.59
608.44	18045.53
608.60	15473.28
608.75	18892.80
608.91	25977.61
609.06	57591.22
609.22	64580.06
609.37	65535.00
609.53	65535.00
609.68	61726.95
609.84	51868.61
609.99	41584.30
610.15	30195.25
610.30	20645.87
610.46	18565.13
610.61	15665.21
610.76	14368.55
610.92	15587.97
611.07	13006.36
611.23	20203.50
611.38	16383.75
611.54	12671.66
611.69	12737.20
611.84	13469.78
612.00	12945.50
612.15	12884.65
612.31	14410.68
612.46	15798.62
612.62	15005.17
612.77	19637.09
612.92	17549.34
613.08	18801.52
613.23	16819.09
613.39	15597.33
613.54	18607.26
613.69	55358.35
613.85	65535.00
614.00	65535.00
614.15	65535.00
614.31	65535.00
614.46	65535.00
614.62	60133.04
614.77	49263.60
614.92	27248.52
615.08	20144.99
615.23	17106.98
615.38	15269.66
615.54	14181.31
615.69	20528.84
615.84	37970.51
616.00	53411.02
616.15	55910.72
616.30	51732.86
616.46	41095.13
616.61	29731.83
616.76	25923.77
616.92	18782.80
617.07	14197.69
617.22	12961.89
617.37	13076.57
617.53	14136.84
617.68	13305.95
617.83	13214.66
617.99	16105.23
618.14	17624.23
618.29	15934.37
618.45	13226.37
618.60	12444.63
618.75	11833.75
618.90	10909.24
619.06	13282.54
619.21	17296.56
619.36	15925.00
619.51	11920.35
619.67	12088.87
619.82	11967.16
619.97	13422.97
620.12	14303.01
620.28	13425.31
620.43	12837.84
620.58	14176.62
620.73	13731.92
620.89	13497.87
621.04	16587.38
621.19	30866.98
621.34	36847.05
621.49	41916.65
621.65	39819.53
621.80	29996.31
621.95	23702.61
622.10	21956.57
622.25	14413.02
622.41	12493.78
622.56	13125.72
622.71	12987.63
622.86	15040.28
623.01	12322.92
623.16	15875.85
623.32	11080.10
623.47	13476.80
623.62	11967.16
623.77	12329.94
623.92	11887.58
624.07	11492.03
624.23	11791.62
624.38	11213.51
624.53	12449.31
624.68	13872.36
624.83	15658.18
624.98	13020.40
625.13	11543.52
625.29	10869.45
625.44	12184.83
625.59	13172.54
625.74	14183.65
625.89	17628.92
626.04	35278.89
626.19	59365.35
626.34	63030.63
626.49	65277.54
626.65	62408.04
626.80	55278.77
626.95	43922.49
627.10	30597.82
627.25	21305.90
627.40	14160.24
627.55	14396.64
627.70	11407.77
627.85	13593.83
628.00	11435.86
628.15	10689.23
628.30	12154.40
628.45	10176.65
628.60	11199.46
628.76	12133.34
628.91	10871.79
629.06	11981.20
629.21	11180.74
629.36	13879.38
629.51	9488.53
629.66	12727.83
629.81	13102.32
629.96	24283.06
630.11	34256.08
630.26	37837.10
630.41	33970.54
630.56	28636.45
630.71	19613.69
630.86	17507.21
631.01	13319.99
631.16	12409.52
631.31	15634.78
631.46	14452.81
631.61	11524.80
631.76	12439.95
631.91	11351.60
632.06	13268.50
632.21	13011.04
632.36	13284.88
632.51	11700.34
632.66	12924.44
632.81	21851.24
632.96	46965.19
633.10	57876.77
633.25	60935.85
633.40	57205.03
633.55	49041.24
633.70	37521.13
633.85	28280.69
634.00	17582.10
634.15	13790.44
634.30	13605.53
634.45	12512.50
634.60	11545.86
634.75	10178.99
634.90	10574.54
635.05	11934.39
635.19	11995.25
635.34	10981.79
635.49	12613.15
635.64	10733.70
635.79	10967.75
635.94	12542.93
636.09	13535.32
636.24	12142.70
636.39	11365.64
636.53	13221.69
636.68	10509.01
636.83	12086.53
636.98	14874.10
637.13	10820.30
637.28	13104.66
637.43	16711.42
637.57	17151.45
637.72	46518.15
637.87	64891.35
638.02	65535.00
638.17	65535.00
638.32	65535.00
638.46	58859.79
638.61	54377.67
638.76	36720.66
638.91	22122.74
639.06	15346.89
639.20	17902.76
639.35	16210.55
639.50	18792.16
639.65	56978.00
639.80	65535.00
639.94	65535.00
640.09	65535.00
640.24	65535.00
640.39	65535.00
640.54	61298.63
640.68	49050.61
640.83	32187.05
640.98	18024.47
641.13	13909.80
641.27	11903.96
641.42	11613.74
641.57	14457.49
641.72	12025.67
641.86	11623.10
642.01	10839.02
642.16	13689.79
642.31	10782.85
642.45	15267.31
642.60	13760.01
642.75	9736.63
642.90	12973.59
643.04	9961.32
643.19	10015.15
643.34	10595.61
643.48	11192.44
643.63	10333.47
643.78	13923.85
643.93	15007.52
644.07	10958.39
644.22	10377.94
644.37	9177.24
644.51	12512.50
644.66	11541.18
644.81	10178.99
644.95	13511.91
645.10	9453.42
645.25	9118.73
645.39	13067.21
645.54	9694.50
645.69	14291.31
645.83	8617.85
645.98	16004.58
646.13	9507.26
646.27	12044.40
646.42	8266.77
646.57	9380.87
646.71	9343.42
646.86	9144.47
647.00	10183.67
647.15	11487.35
647.30	8283.16
647.44	9284.91
647.59	8336.99
647.74	7623.12
647.88	10504.32
648.03	7859.52
648.17	12060.78
648.32	7932.08
648.47	10757.10
648.61	9397.25
648.76	8987.66
648.90	8950.21
649.05	9738.97
649.20	8491.46
649.34	8692.75
649.49	8484.44
649.63	10754.76
649.78	10045.58
649.92	12105.25
650.07	30555.69
650.21	56425.64
650.36	62986.16
650.51	64441.97
650.65	64652.62
650.80	58197.42
650.94	48140.14
651.09	33792.65
651.23	20421.17
651.38	14078.32
651.52	11087.12
651.67	10335.81
651.81	11119.89
651.96	13563.40
652.10	12353.35
652.25	10204.74
652.39	11758.85
652.54	11449.90
652.68	15346.89
652.83	29729.48
652.97	40872.78
653.12	47533.94
653.26	40545.10
653.41	34375.45
653.55	26288.90
653.70	18260.86
653.84	14071.30
653.99	11730.76
654.13	9352.78
654.27	10277.29
654.42	9240.44
654.56	9451.08
654.71	11688.64
654.85	8009.31
655.00	8166.13
655.14	9076.60
655.29	7667.60
655.43	10794.55
655.57	9577.47
655.72	7595.04
655.86	9666.41
656.01	9462.79
656.15	8191.88
656.30	12479.74
656.44	8161.45
656.58	7524.82
656.73	8889.35
656.87	7672.28
657.01	8898.72
657.16	13149.13
657.30	10675.18
657.45	13338.71
657.59	10050.26
657.73	8390.82
657.88	9481.51
658.02	16762.92
658.16	9032.13
658.31	9493.21
658.45	8994.68
658.60	7609.08
658.74	9617.26
658.88	8411.89
659.03	8802.75
659.17	9500.23
659.31	15527.11
659.46	34417.58
659.60	50213.85
659.74	54944.08
659.89	51269.43
660.03	42473.70
660.17	35555.08
660.32	23749.42
660.46	17319.96
660.60	12606.13
660.74	12437.61
660.89	10497.30
661.03	8177.83
661.17	8669.34
661.32	8959.57
661.46	9317.67
661.60	8912.76
661.74	10565.18
661.89	11735.45
662.03	10569.86
662.17	8795.73
662.31	10052.60
662.46	10736.04
662.60	9750.67
662.74	8690.41
662.88	10724.33
663.03	8966.59
663.17	7719.09
663.31	9563.43
663.45	9785.78
663.60	8533.59
663.74	7667.60
663.88	7222.89
664.02	9675.77
664.17	8166.13
664.31	8189.53
664.45	9865.36
664.59	9029.79
664.73	9296.61
664.88	11389.05
665.02	8037.40
665.16	8954.89
665.30	12884.65
665.44	9893.44
665.59	11826.73
665.73	10204.74
665.87	9312.99
666.01	9226.39
666.15	8606.15
666.29	7782.28
666.44	12858.90
666.58	14562.81
666.72	8362.73
666.86	9142.13
667.00	11932.05
667.14	11618.42
667.28	27779.82
667.43	54197.44
667.57	63461.29
667.71	65167.54
667.85	59531.53
667.99	57914.22
668.13	43058.84
668.27	30284.19
668.41	21013.33
668.56	14459.83
668.70	15470.94
668.84	10637.73
668.98	11002.86
669.12	7737.81
669.26	9940.26
669.40	15363.28
669.54	10106.43
669.68	11517.78
669.82	8105.28
669.96	9336.40
670.10	9027.45
670.25	10967.75
670.39	10848.38
670.53	8510.19
670.67	10483.26
670.81	7920.37
670.95	10438.79
671.09	12259.73
671.23	31094.02
671.37	47796.08
671.51	56034.77
671.65	57581.86
671.79	50777.92
671.93	39503.56
672.07	31442.76
672.21	19726.04
672.35	13219.35
672.49	10820.30
672.63	11988.22
672.77	10609.65
672.91	9881.74
673.05	9121.07
673.19	9312.99
673.33	7545.89
673.47	13612.56
673.61	8814.46
673.75	7691.00
673.89	7332.90
674.03	10265.59
674.17	8297.20
674.31	9336.40
674.45	9961.32
674.59	9430.02
674.73	8451.67
674.87	10087.71
675.01	10820.30
675.15	8821.48
675.29	11974.18
675.43	11243.93
675.56	13390.20
675.70	11857.15
675.84	8479.76
675.98	9584.49
676.12	6490.31
676.26	8397.84
676.40	6864.79
676.54	8348.69
676.68	7997.61
676.82	10480.92
676.96	6958.41
677.10	9107.02
677.23	7592.70
677.37	6722.02
677.51	8252.73
677.65	14490.26
677.79	7283.75
677.93	7101.19
678.07	7737.81
678.21	6595.63
678.34	6902.24
678.48	6813.30
678.62	8814.46
678.76	5940.28
678.90	7812.71
679.04	8278.47
679.18	6862.45
679.31	6682.23
679.45	6530.09
679.59	8557.00
679.73	8210.60
679.87	6069.01
680.00	8542.96
680.14	8133.36
680.28	9128.09
680.42	7143.32
680.56	9263.84
680.70	6768.83
680.83	8713.81
680.97	6635.42
681.11	6909.26
681.25	9661.73
681.39	7297.79
681.52	8521.89
681.66	8114.64
681.80	8940.85
681.94	6263.27
682.07	7164.38
682.21	8416.57
682.35	6291.36
682.49	6244.55
682.62	9809.19
682.76	6345.19
682.90	7255.66
683.04	8491.46
683.17	8772.33
683.31	7047.35
683.45	9305.97
683.59	10459.85
683.72	9729.61
683.86	8273.79
684.00	6450.52
684.13	10083.03
684.27	8903.40
684.41	8587.43
684.55	7489.71
684.68	7323.54
684.82	6326.47
684.96	6909.26
685.09	7861.86
685.23	5991.77
685.37	6092.41
685.50	9453.42
685.64	9685.14
685.78	5837.30
685.91	8767.65
686.05	9951.96
686.19	7838.45
686.32	7386.73
686.46	7562.27
686.60	4395.53
686.73	12287.81
686.87	9062.55
687.01	5448.77
687.14	4819.16
687.28	5746.02
687.42	6258.59
687.55	6146.25
687.69	9664.07
687.82	5387.91
687.96	6317.11
688.10	9301.29
688.23	6031.56
688.37	10225.80
688.50	7829.09
688.64	7922.71
688.78	5430.04
688.91	5715.59
689.05	5907.51
689.18	4809.80
689.32	6202.42
689.46	5500.26
689.59	7405.46
689.73	8465.72
689.86	5018.11
690.00	6169.65
690.13	5268.55
690.27	5001.72
690.41	7187.79
690.54	8561.68
690.68	7119.91
690.81	5998.79
690.95	6509.03
691.08	7101.19
691.22	5500.26
691.35	6069.01
691.49	5006.41
691.62	6349.87
691.76	5282.59
691.89	6972.46
692.03	5111.73
692.16	5013.43
692.30	7782.28
692.43	12252.70
692.57	26082.93
692.70	39208.65
692.84	48488.88
692.97	43646.31
693.11	32704.31
693.24	25530.56
693.38	17612.53
693.51	13626.60
693.65	12863.58
693.78	8313.58
693.92	6691.59
694.05	8025.70
694.19	5020.45
694.32	6862.45
694.45	5444.09
694.59	5200.67
694.72	5598.56
694.86	5921.56
694.99	7368.01
695.13	5437.06
695.26	6518.39
695.39	5977.73
695.53	11714.38
695.66	6745.42
695.80	8437.63
695.93	5345.78
696.07	6352.21
696.20	8149.75
696.33	7178.42
696.47	8781.69
696.60	8554.66
696.73	8587.43
696.87	6682.23
697.00	11473.31
697.14	6527.75
697.27	6810.96
697.40	12386.12
697.54	5444.09
697.67	6513.71
697.80	6925.65
697.94	5273.23
698.07	6272.64
698.21	5298.97
698.34	7499.08
698.47	4678.73
698.61	4613.20
698.74	5039.17
698.87	7983.57
699.01	6087.73
699.14	5083.64
699.27	7559.93
699.40	16149.70
699.54	5467.49
699.67	4898.74
699.80	4608.51
699.94	4945.55
700.07	4802.78
700.20	4411.91
700.34	6106.46
700.47	3873.59
700.60	4683.41
700.73	5640.69
700.87	8917.44
701.00	5373.87
701.13	5334.08
701.26	5959.00
701.40	5523.66
701.53	5053.22
701.66	4360.42
701.79	5792.83
701.93	6094.76
702.06	10733.70
702.19	7176.08
702.32	11159.67
702.46	7646.53
702.59	7042.67
702.72	11529.48
702.85	34693.76
702.99	55786.67
703.12	62738.06
703.25	62234.84
703.38	58333.17
703.51	55908.38
703.65	46141.32
703.78	34003.30
703.91	24868.19
704.04	18951.32
704.17	11829.07
704.31	7274.38
704.44	6319.45
704.57	6448.18
704.70	6380.30
704.83	6019.86
704.96	5823.25
705.10	6408.39
705.23	5671.12
>>>>>End Processed Spectral Data<<<<<
