SpectraSuite Data File
++++++++++++++++++++++++++++++++++++
Date: Fri Oct 04 11:33:53 GMT-05:00 2013
User: price-jones
Dark Spectrum Present: No
Reference Spectrum Present: No
Number of Sampled Component Spectra: 1
Spectrometers: USB2+H05261
Integration Time (usec): 100000 (USB2+H05261)
Spectra Averaged: 1 (USB2+H05261)
Boxcar Smoothing: 0 (USB2+H05261)
Correct for Electrical Dark: No (USB2+H05261)
Strobe/Lamp Enabled: No (USB2+H05261)
Correct for Detector Non-linearity: No (USB2+H05261)
Correct for Stray Light: No (USB2+H05261)
Number of Pixels in Processed Spectrum: 2048
>>>>>Begin Processed Spectral Data<<<<<
365.73	86.60
365.92	86.60
366.12	86.60
366.32	39.79
366.52	0.00
366.72	14.04
366.91	0.00
367.11	7.02
367.31	0.00
367.51	0.00
367.70	0.00
367.90	0.00
368.10	9.36
368.30	32.77
368.49	0.00
368.69	49.15
368.89	0.00
369.09	0.00
369.28	0.00
369.48	0.00
369.68	0.00
369.87	0.00
370.07	0.00
370.27	46.81
370.47	67.88
370.66	11.70
370.86	70.22
371.06	91.28
371.25	131.07
371.45	79.58
371.65	135.75
371.84	91.28
372.04	60.85
372.24	100.64
372.44	152.13
372.63	121.71
372.83	203.63
373.03	149.79
373.22	114.69
373.42	131.07
373.62	95.96
373.81	166.18
374.01	138.09
374.21	170.86
374.40	182.56
374.60	248.10
374.79	189.58
374.99	184.90
375.19	163.84
375.38	114.69
375.58	184.90
375.78	163.84
375.97	168.52
376.17	149.79
376.37	194.26
376.56	168.52
376.76	95.96
376.95	147.45
377.15	180.22
377.35	220.01
377.54	156.82
377.74	149.79
377.93	135.75
378.13	177.88
378.33	114.69
378.52	67.88
378.72	161.50
378.91	189.58
379.11	138.09
379.31	168.52
379.50	147.45
379.70	128.73
379.89	154.48
380.09	51.49
380.28	98.30
380.48	184.90
380.68	81.92
380.87	107.66
381.07	140.43
381.26	184.90
381.46	135.75
381.65	163.84
381.85	91.28
382.04	74.90
382.24	133.41
382.43	166.18
382.63	49.15
382.83	84.26
383.02	126.39
383.22	191.92
383.41	124.05
383.61	161.50
383.80	42.13
384.00	91.28
384.19	133.41
384.39	201.29
384.58	159.16
384.78	212.99
384.97	191.92
385.17	63.19
385.36	110.01
385.56	227.03
385.75	93.62
385.95	102.98
386.14	152.13
386.34	184.90
386.53	107.66
386.72	138.09
386.92	128.73
387.11	117.03
387.31	166.18
387.50	88.94
387.70	121.71
387.89	201.29
388.09	128.73
388.28	156.82
388.48	177.88
388.67	107.66
388.86	168.52
389.06	133.41
389.25	105.32
389.45	119.37
389.64	126.39
389.84	86.60
390.03	126.39
390.22	149.79
390.42	128.73
390.61	128.73
390.81	133.41
391.00	182.56
391.19	98.30
391.39	203.63
391.58	149.79
391.78	140.43
391.97	147.45
392.16	161.50
392.36	152.13
392.55	138.09
392.75	135.75
392.94	168.52
393.13	91.28
393.33	147.45
393.52	74.90
393.71	154.48
393.91	93.62
394.10	133.41
394.29	175.54
394.49	191.92
394.68	180.22
394.88	229.37
395.07	241.08
395.26	198.95
395.46	112.35
395.65	196.60
395.84	145.11
396.04	259.80
396.23	91.28
396.42	126.39
396.62	154.48
396.81	149.79
397.00	168.52
397.19	166.18
397.39	138.09
397.58	126.39
397.77	196.60
397.97	110.01
398.16	152.13
398.35	175.54
398.55	135.75
398.74	138.09
398.93	159.16
399.12	128.73
399.32	163.84
399.51	133.41
399.70	46.81
399.90	117.03
400.09	217.67
400.28	191.92
400.47	142.77
400.67	245.76
400.86	175.54
401.05	149.79
401.24	208.31
401.44	241.08
401.63	124.05
401.82	184.90
402.01	119.37
402.21	119.37
402.40	112.35
402.59	124.05
402.78	198.95
402.97	187.24
403.17	88.94
403.36	142.77
403.55	161.50
403.74	121.71
403.93	266.82
404.13	278.52
404.32	257.46
404.51	154.48
404.70	222.35
404.89	149.79
405.09	205.97
405.28	121.71
405.47	154.48
405.66	170.86
405.85	180.22
406.05	208.31
406.24	161.50
406.43	191.92
406.62	117.03
406.81	203.63
407.00	191.92
407.20	210.65
407.39	205.97
407.58	131.07
407.77	163.84
407.96	231.71
408.15	198.95
408.34	177.88
408.54	161.50
408.73	168.52
408.92	212.99
409.11	156.82
409.30	140.43
409.49	105.32
409.68	142.77
409.87	177.88
410.07	227.03
410.26	217.67
410.45	140.43
410.64	88.94
410.83	182.56
411.02	168.52
411.21	187.24
411.40	203.63
411.59	168.52
411.78	147.45
411.98	217.67
412.17	198.95
412.36	107.66
412.55	208.31
412.74	234.05
412.93	166.18
413.12	102.98
413.31	198.95
413.50	121.71
413.69	159.16
413.88	196.60
414.07	81.92
414.26	138.09
414.45	102.98
414.64	170.86
414.83	194.26
415.02	283.20
415.22	208.31
415.41	203.63
415.60	161.50
415.79	117.03
415.98	245.76
416.17	140.43
416.36	170.86
416.55	126.39
416.74	222.35
416.93	215.33
417.12	177.88
417.31	51.49
417.50	152.13
417.69	224.69
417.88	238.73
418.07	215.33
418.26	217.67
418.45	170.86
418.64	234.05
418.83	182.56
419.02	285.55
419.21	175.54
419.39	189.58
419.58	149.79
419.77	119.37
419.96	203.63
420.15	159.16
420.34	196.60
420.53	210.65
420.72	220.01
420.91	133.41
421.10	138.09
421.29	224.69
421.48	191.92
421.67	208.31
421.86	126.39
422.05	126.39
422.24	152.13
422.43	147.45
422.61	177.88
422.80	210.65
422.99	168.52
423.18	170.86
423.37	121.71
423.56	184.90
423.75	154.48
423.94	126.39
424.13	215.33
424.32	208.31
424.50	173.20
424.69	177.88
424.88	194.26
425.07	196.60
425.26	220.01
425.45	262.14
425.64	313.63
425.83	217.67
426.01	322.99
426.20	156.82
426.39	152.13
426.58	152.13
426.77	142.77
426.96	161.50
427.15	238.73
427.33	131.07
427.52	201.29
427.71	105.32
427.90	135.75
428.09	135.75
428.28	229.37
428.46	217.67
428.65	234.05
428.84	180.22
429.03	133.41
429.22	159.16
429.40	203.63
429.59	236.39
429.78	198.95
429.97	177.88
430.16	154.48
430.34	208.31
430.53	138.09
430.72	215.33
430.91	175.54
431.10	159.16
431.28	187.24
431.47	212.99
431.66	161.50
431.85	170.86
432.03	133.41
432.22	175.54
432.41	217.67
432.60	156.82
432.79	175.54
432.97	255.12
433.16	285.55
433.35	259.80
433.54	262.14
433.72	227.03
433.91	201.29
434.10	168.52
434.28	252.78
434.47	196.60
434.66	313.63
434.85	177.88
435.03	180.22
435.22	341.72
435.41	449.38
435.59	372.15
435.78	278.52
435.97	283.20
436.16	241.08
436.34	243.42
436.53	163.84
436.72	187.24
436.90	217.67
437.09	154.48
437.28	234.05
437.46	187.24
437.65	231.71
437.84	236.39
438.02	220.01
438.21	191.92
438.40	215.33
438.58	191.92
438.77	198.95
438.96	131.07
439.14	182.56
439.33	191.92
439.52	194.26
439.70	145.11
439.89	170.86
440.08	128.73
440.26	262.14
440.45	196.60
440.63	187.24
440.82	212.99
441.01	159.16
441.19	187.24
441.38	227.03
441.57	191.92
441.75	189.58
441.94	224.69
442.12	177.88
442.31	152.13
442.50	248.10
442.68	154.48
442.87	163.84
443.05	229.37
443.24	212.99
443.43	222.35
443.61	180.22
443.80	215.33
443.98	163.84
444.17	198.95
444.35	238.73
444.54	173.20
444.73	257.46
444.91	222.35
445.10	140.43
445.28	114.69
445.47	201.29
445.65	114.69
445.84	166.18
446.02	201.29
446.21	173.20
446.39	189.58
446.58	257.46
446.77	154.48
446.95	191.92
447.14	194.26
447.32	236.39
447.51	168.52
447.69	107.66
447.88	210.65
448.06	224.69
448.25	140.43
448.43	159.16
448.62	112.35
448.80	217.67
448.99	194.26
449.17	133.41
449.36	180.22
449.54	276.18
449.73	126.39
449.91	229.37
450.10	236.39
450.28	250.44
450.46	227.03
450.65	170.86
450.83	217.67
451.02	203.63
451.20	217.67
451.39	215.33
451.57	142.77
451.76	138.09
451.94	217.67
452.13	182.56
452.31	224.69
452.49	212.99
452.68	163.84
452.86	191.92
453.05	215.33
453.23	189.58
453.42	168.52
453.60	189.58
453.78	184.90
453.97	154.48
454.15	166.18
454.34	161.50
454.52	189.58
454.70	194.26
454.89	222.35
455.07	184.90
455.26	163.84
455.44	194.26
455.62	191.92
455.81	217.67
455.99	159.16
456.17	133.41
456.36	149.79
456.54	231.71
456.73	212.99
456.91	208.31
457.09	227.03
457.28	241.08
457.46	168.52
457.64	156.82
457.83	252.78
458.01	147.45
458.19	203.63
458.38	149.79
458.56	177.88
458.74	194.26
458.93	166.18
459.11	184.90
459.29	175.54
459.48	173.20
459.66	163.84
459.84	215.33
460.03	273.84
460.21	168.52
460.39	208.31
460.57	212.99
460.76	187.24
460.94	156.82
461.12	194.26
461.31	220.01
461.49	180.22
461.67	177.88
461.85	161.50
462.04	152.13
462.22	578.11
462.40	234.05
462.59	262.14
462.77	128.73
462.95	238.73
463.13	149.79
463.32	187.24
463.50	220.01
463.68	187.24
463.86	210.65
464.05	140.43
464.23	238.73
464.41	243.42
464.59	114.69
464.78	196.60
464.96	117.03
465.14	205.97
465.32	215.33
465.50	175.54
465.69	196.60
465.87	154.48
466.05	217.67
466.23	231.71
466.41	210.65
466.60	257.46
466.78	217.67
466.96	175.54
467.14	191.92
467.32	231.71
467.51	170.86
467.69	229.37
467.87	222.35
468.05	215.33
468.23	194.26
468.41	262.14
468.60	222.35
468.78	234.05
468.96	250.44
469.14	248.10
469.32	154.48
469.50	210.65
469.69	142.77
469.87	210.65
470.05	215.33
470.23	198.95
470.41	142.77
470.59	229.37
470.77	217.67
470.95	168.52
471.14	227.03
471.32	222.35
471.50	159.16
471.68	170.86
471.86	182.56
472.04	112.35
472.22	182.56
472.40	196.60
472.58	119.37
472.77	159.16
472.95	227.03
473.13	231.71
473.31	287.89
473.49	217.67
473.67	152.13
473.85	177.88
474.03	140.43
474.21	191.92
474.39	212.99
474.57	262.14
474.75	201.29
474.93	170.86
475.12	191.92
475.30	182.56
475.48	154.48
475.66	205.97
475.84	196.60
476.02	156.82
476.20	196.60
476.38	196.60
476.56	210.65
476.74	217.67
476.92	182.56
477.10	208.31
477.28	194.26
477.46	250.44
477.64	259.80
477.82	203.63
478.00	215.33
478.18	131.07
478.36	191.92
478.54	210.65
478.72	177.88
478.90	196.60
479.08	217.67
479.26	236.39
479.44	133.41
479.62	173.20
479.80	191.92
479.98	98.30
480.16	168.52
480.34	231.71
480.52	297.25
480.70	205.97
480.88	140.43
481.06	250.44
481.24	229.37
481.41	278.52
481.59	276.18
481.77	191.92
481.95	194.26
482.13	203.63
482.31	212.99
482.49	182.56
482.67	212.99
482.85	205.97
483.03	332.36
483.21	189.58
483.39	147.45
483.57	152.13
483.74	278.52
483.92	276.18
484.10	222.35
484.28	271.50
484.46	346.40
484.64	222.35
484.82	280.86
485.00	194.26
485.18	241.08
485.35	313.63
485.53	241.08
485.71	264.48
485.89	147.45
486.07	191.92
486.25	259.80
486.43	250.44
486.61	287.89
486.78	241.08
486.96	212.99
487.14	276.18
487.32	177.88
487.50	229.37
487.68	259.80
487.85	184.90
488.03	271.50
488.21	220.01
488.39	203.63
488.57	276.18
488.75	224.69
488.92	507.90
489.10	294.91
489.28	227.03
489.46	201.29
489.64	271.50
489.81	215.33
489.99	271.50
490.17	287.89
490.35	287.89
490.53	262.14
490.70	273.84
490.88	318.31
491.06	257.46
491.24	255.12
491.41	290.23
491.59	283.20
491.77	236.39
491.95	215.33
492.13	205.97
492.30	271.50
492.48	269.16
492.66	259.80
492.84	217.67
493.01	252.78
493.19	231.71
493.37	236.39
493.54	311.29
493.72	266.82
493.90	252.78
494.08	273.84
494.25	294.91
494.43	245.76
494.61	287.89
494.79	220.01
494.96	227.03
495.14	285.55
495.32	222.35
495.49	283.20
495.67	273.84
495.85	273.84
496.02	306.61
496.20	252.78
496.38	222.35
496.55	262.14
496.73	301.93
496.91	292.57
497.09	257.46
497.26	306.61
497.44	276.18
497.62	250.44
497.79	194.26
497.97	191.92
498.14	252.78
498.32	201.29
498.50	198.95
498.67	224.69
498.85	205.97
499.03	238.73
499.20	217.67
499.38	198.95
499.56	217.67
499.73	294.91
499.91	248.10
500.08	252.78
500.26	191.92
500.44	264.48
500.61	227.03
500.79	182.56
500.97	264.48
501.14	255.12
501.32	217.67
501.49	294.91
501.67	255.12
501.84	243.42
502.02	182.56
502.20	241.08
502.37	280.86
502.55	224.69
502.72	201.29
502.90	294.91
503.07	257.46
503.25	259.80
503.43	304.27
503.60	292.57
503.78	285.55
503.95	313.63
504.13	243.42
504.30	299.59
504.48	238.73
504.65	292.57
504.83	243.42
505.01	208.31
505.18	241.08
505.36	245.76
505.53	236.39
505.71	276.18
505.88	290.23
506.06	255.12
506.23	334.70
506.41	269.16
506.58	259.80
506.76	294.91
506.93	287.89
507.11	245.76
507.28	236.39
507.46	292.57
507.63	320.65
507.81	194.26
507.98	290.23
508.16	238.73
508.33	297.25
508.50	262.14
508.68	257.46
508.85	252.78
509.03	252.78
509.20	198.95
509.38	250.44
509.55	250.44
509.73	297.25
509.90	271.50
510.08	304.27
510.25	304.27
510.42	224.69
510.60	301.93
510.77	327.68
510.95	271.50
511.12	304.27
511.30	351.08
511.47	353.42
511.64	355.76
511.82	259.80
511.99	201.29
512.17	304.27
512.34	250.44
512.51	243.42
512.69	278.52
512.86	269.16
513.04	250.44
513.21	231.71
513.38	231.71
513.56	252.78
513.73	259.80
513.90	264.48
514.08	304.27
514.25	248.10
514.43	278.52
514.60	212.99
514.77	236.39
514.95	304.27
515.12	278.52
515.29	196.60
515.47	311.29
515.64	313.63
515.81	229.37
515.99	290.23
516.16	145.11
516.33	248.10
516.51	224.69
516.68	184.90
516.85	173.20
517.03	224.69
517.20	318.31
517.37	250.44
517.54	201.29
517.72	271.50
517.89	276.18
518.06	198.95
518.24	299.59
518.41	306.61
518.58	250.44
518.75	224.69
518.93	262.14
519.10	301.93
519.27	215.33
519.45	248.10
519.62	278.52
519.79	306.61
519.96	252.78
520.14	304.27
520.31	304.27
520.48	353.42
520.65	348.74
520.83	234.05
521.00	227.03
521.17	278.52
521.34	280.86
521.52	248.10
521.69	304.27
521.86	212.99
522.03	313.63
522.20	341.72
522.38	224.69
522.55	318.31
522.72	238.73
522.89	271.50
523.07	346.40
523.24	320.65
523.41	245.76
523.58	294.91
523.75	304.27
523.92	315.97
524.10	276.18
524.27	315.97
524.44	276.18
524.61	285.55
524.78	229.37
524.96	287.89
525.13	210.65
525.30	290.23
525.47	320.65
525.64	283.20
525.81	337.04
525.98	273.84
526.16	238.73
526.33	252.78
526.50	276.18
526.67	248.10
526.84	273.84
527.01	217.67
527.18	259.80
527.36	273.84
527.53	283.20
527.70	271.50
527.87	299.59
528.04	243.42
528.21	287.89
528.38	360.44
528.55	318.31
528.72	285.55
528.89	374.49
529.07	243.42
529.24	304.27
529.41	344.06
529.58	173.20
529.75	292.57
529.92	299.59
530.09	245.76
530.26	271.50
530.43	243.42
530.60	327.68
530.77	217.67
530.94	362.78
531.11	287.89
531.28	264.48
531.46	290.23
531.63	353.42
531.80	285.55
531.97	294.91
532.14	283.20
532.31	306.61
532.48	290.23
532.65	360.44
532.82	402.57
532.99	447.04
533.16	411.93
533.33	386.19
533.50	339.38
533.67	369.80
533.84	425.98
534.01	428.32
534.18	407.25
534.35	341.72
534.52	348.74
534.69	322.99
534.86	339.38
535.03	257.46
535.20	374.49
535.37	297.25
535.54	318.31
535.71	306.61
535.88	287.89
536.05	313.63
536.22	404.91
536.38	203.63
536.55	325.33
536.72	428.32
536.89	252.78
537.06	369.80
537.23	283.20
537.40	299.59
537.57	297.25
537.74	332.36
537.91	297.25
538.08	325.33
538.25	285.55
538.42	374.49
538.59	304.27
538.75	320.65
538.92	358.10
539.09	330.02
539.26	318.31
539.43	528.96
539.60	1116.44
539.77	1687.53
539.94	1809.23
540.11	1224.10
540.28	877.70
540.44	655.35
540.61	423.64
540.78	318.31
540.95	416.62
541.12	449.38
541.29	493.85
541.46	484.49
541.62	496.19
541.79	472.79
541.96	557.05
542.13	386.19
542.30	381.51
542.47	507.90
542.63	491.51
542.80	498.53
542.97	456.40
543.14	465.77
543.31	486.83
543.48	493.85
543.64	465.77
543.81	440.02
543.98	428.32
544.15	404.91
544.32	330.02
544.48	372.15
544.65	433.00
544.82	428.32
544.99	500.87
545.16	493.85
545.32	456.40
545.49	655.35
545.66	781.74
545.83	819.19
546.00	786.42
546.16	594.50
546.33	486.83
546.50	543.00
546.67	418.96
546.83	404.91
547.00	447.04
547.17	339.38
547.34	395.55
547.50	379.17
547.67	294.91
547.84	346.40
548.00	444.70
548.17	315.97
548.34	337.04
548.51	390.87
548.67	395.55
548.84	301.93
549.01	437.68
549.18	379.17
549.34	369.80
549.51	332.36
549.68	397.89
549.84	435.34
550.01	276.18
550.18	442.36
550.34	259.80
550.51	351.08
550.68	325.33
550.84	348.74
551.01	381.51
551.18	285.55
551.34	294.91
551.51	297.25
551.68	355.76
551.84	369.80
552.01	224.69
552.18	297.25
552.34	318.31
552.51	266.82
552.68	346.40
552.84	297.25
553.01	248.10
553.18	290.23
553.34	299.59
553.51	348.74
553.67	243.42
553.84	287.89
554.01	386.19
554.17	301.93
554.34	255.12
554.51	276.18
554.67	266.82
554.84	355.76
555.00	332.36
555.17	308.95
555.33	276.18
555.50	325.33
555.67	311.29
555.83	311.29
556.00	318.31
556.16	437.68
556.33	330.02
556.50	355.76
556.66	304.27
556.83	243.42
556.99	313.63
557.16	222.35
557.32	241.08
557.49	198.95
557.65	290.23
557.82	304.27
557.98	278.52
558.15	241.08
558.32	285.55
558.48	259.80
558.65	264.48
558.81	327.68
558.98	304.27
559.14	353.42
559.31	313.63
559.47	248.10
559.64	234.05
559.80	365.12
559.97	283.20
560.13	290.23
560.30	262.14
560.46	217.67
560.63	271.50
560.79	243.42
560.96	248.10
561.12	257.46
561.29	215.33
561.45	222.35
561.61	304.27
561.78	285.55
561.94	255.12
562.11	262.14
562.27	318.31
562.44	308.95
562.60	205.97
562.77	262.14
562.93	372.15
563.10	301.93
563.26	266.82
563.42	278.52
563.59	201.29
563.75	255.12
563.92	311.29
564.08	255.12
564.24	315.97
564.41	313.63
564.57	266.82
564.74	287.89
564.90	355.76
565.07	271.50
565.23	395.55
565.39	353.42
565.56	280.86
565.72	278.52
565.88	330.02
566.05	315.97
566.21	243.42
566.38	290.23
566.54	322.99
566.70	229.37
566.87	297.25
567.03	234.05
567.19	236.39
567.36	285.55
567.52	355.76
567.68	315.97
567.85	248.10
568.01	238.73
568.17	311.29
568.34	297.25
568.50	290.23
568.66	222.35
568.83	241.08
568.99	264.48
569.15	304.27
569.32	299.59
569.48	189.58
569.64	355.76
569.81	299.59
569.97	231.71
570.13	262.14
570.30	243.42
570.46	269.16
570.62	248.10
570.78	290.23
570.95	236.39
571.11	243.42
571.27	327.68
571.43	320.65
571.60	283.20
571.76	322.99
571.92	269.16
572.09	217.67
572.25	234.05
572.41	318.31
572.57	283.20
572.74	322.99
572.90	344.06
573.06	337.04
573.22	255.12
573.38	287.89
573.55	234.05
573.71	337.04
573.87	215.33
574.03	339.38
574.20	234.05
574.36	407.25
574.52	400.23
574.68	372.15
574.84	374.49
575.01	325.33
575.17	327.68
575.33	346.40
575.49	243.42
575.65	400.23
575.82	402.57
575.98	475.13
576.14	821.53
576.30	844.93
576.46	767.70
576.62	645.99
576.79	503.22
576.95	535.98
577.11	400.23
577.27	290.23
577.43	301.93
577.59	374.49
577.75	276.18
577.92	255.12
578.08	304.27
578.24	273.84
578.40	397.89
578.56	374.49
578.72	451.72
578.88	477.47
579.04	404.91
579.21	367.46
579.37	374.49
579.53	327.68
579.69	468.11
579.85	374.49
580.01	514.92
580.17	550.03
580.33	395.55
580.49	358.10
580.65	404.91
580.82	374.49
580.98	381.51
581.14	414.27
581.30	477.47
581.46	465.77
581.62	648.33
581.78	755.99
581.94	727.91
582.10	543.00
582.26	540.66
582.42	545.34
582.58	552.37
582.74	559.39
582.90	526.62
583.06	538.32
583.22	505.56
583.38	543.00
583.54	599.18
583.70	671.73
583.86	732.59
584.02	851.96
584.18	997.07
584.34	1327.08
584.50	3248.66
584.66	22017.42
584.82	56748.63
584.98	65535.00
585.14	65535.00
585.30	54204.47
585.46	33053.05
585.62	20730.12
585.78	9680.46
585.94	3784.65
586.10	1865.41
586.26	1231.12
586.42	985.37
586.58	903.45
586.74	767.70
586.90	690.46
587.06	641.31
587.22	690.46
587.38	709.18
587.54	1284.95
587.70	3379.73
587.86	6097.10
588.02	7456.95
588.18	5104.71
588.34	3279.09
588.49	2195.42
588.65	1439.43
588.81	826.21
588.97	470.45
589.13	414.27
589.29	379.17
589.45	428.32
589.61	402.57
589.77	486.83
589.93	484.49
590.08	526.62
590.24	458.74
590.40	383.85
590.56	519.60
590.72	463.43
590.88	390.87
591.04	411.93
591.20	407.25
591.35	374.49
591.51	454.06
591.67	407.25
591.83	320.65
591.99	327.68
592.15	362.78
592.31	383.85
592.46	344.06
592.62	393.21
592.78	442.36
592.94	334.70
593.10	414.27
593.26	472.79
593.41	482.15
593.57	472.79
593.73	608.54
593.89	2548.84
594.05	7475.67
594.20	12269.09
594.36	12060.78
594.52	7779.94
594.68	5022.79
594.84	3220.58
594.99	1842.00
595.15	891.74
595.31	543.00
595.47	484.49
595.62	346.40
595.78	362.78
595.94	322.99
596.10	421.30
596.25	496.19
596.41	418.96
596.57	400.23
596.73	372.15
596.88	631.94
597.04	1401.98
597.20	2502.03
597.36	3077.80
597.51	2319.47
597.67	1584.54
597.83	1142.18
597.99	858.98
598.14	465.77
598.30	517.26
598.46	468.11
598.61	430.66
598.77	388.53
598.93	423.64
599.09	318.31
599.24	367.46
599.40	369.80
599.56	351.08
599.71	299.59
599.87	327.68
600.03	318.31
600.18	320.65
600.34	313.63
600.50	360.44
600.65	318.31
600.81	327.68
600.97	276.18
601.12	320.65
601.28	344.06
601.44	330.02
601.59	271.50
601.75	234.05
601.91	297.25
602.06	358.10
602.22	428.32
602.37	704.50
602.53	1806.89
602.69	2829.71
602.84	3281.43
603.00	2434.16
603.16	1636.03
603.31	1151.54
603.47	784.08
603.62	423.64
603.78	454.06
603.94	320.65
604.09	273.84
604.25	306.61
604.40	360.44
604.56	280.86
604.71	315.97
604.87	273.84
605.03	322.99
605.18	334.70
605.34	337.04
605.49	365.12
605.65	414.27
605.80	322.99
605.96	334.70
606.12	360.44
606.27	479.81
606.43	440.02
606.58	444.70
606.74	868.34
606.89	3262.71
607.05	7129.27
607.20	10649.44
607.36	8835.52
607.51	6010.50
607.67	3896.99
607.82	2614.38
607.98	1383.26
608.13	777.06
608.29	578.11
608.44	461.09
608.60	620.24
608.75	594.50
608.91	1181.97
609.06	5067.26
609.22	12320.58
609.37	18534.70
609.53	16692.70
609.68	11037.97
609.84	7103.53
609.99	4713.84
610.15	2656.51
610.30	1467.52
610.46	957.28
610.61	917.49
610.76	924.51
610.92	1008.77
611.07	1043.88
611.23	1095.37
611.38	966.64
611.54	887.06
611.69	713.86
611.84	681.10
612.00	653.01
612.15	692.80
612.31	695.14
612.46	807.48
612.62	997.07
612.77	940.90
612.92	777.06
613.08	725.57
613.23	718.54
613.39	741.95
613.54	1018.13
613.69	4404.89
613.85	14445.79
614.00	25233.32
614.15	28973.49
614.31	20676.29
614.46	12978.27
614.62	8795.73
614.77	5359.83
614.92	2513.74
615.08	1256.87
615.23	840.25
615.38	681.10
615.54	596.84
615.69	924.51
615.84	2782.90
616.00	5652.39
616.15	7644.19
616.30	6537.12
616.46	4451.70
616.61	2836.73
616.76	1832.64
616.92	1107.07
617.07	709.18
617.22	519.60
617.37	444.70
617.53	421.30
617.68	358.10
617.83	442.36
617.99	395.55
618.14	440.02
618.29	395.55
618.45	435.34
618.60	386.19
618.75	341.72
618.90	341.72
619.06	362.78
619.21	322.99
619.36	330.02
619.51	327.68
619.67	271.50
619.82	290.23
619.97	330.02
620.12	315.97
620.28	327.68
620.43	327.68
620.58	367.46
620.73	255.12
620.89	353.42
621.04	521.94
621.19	1467.52
621.34	3098.87
621.49	4505.53
621.65	4161.47
621.80	2902.26
621.95	1982.43
622.10	1345.81
622.25	866.00
622.41	594.50
622.56	304.27
622.71	355.76
622.86	407.25
623.01	383.85
623.16	283.20
623.32	348.74
623.47	341.72
623.62	411.93
623.77	315.97
623.92	250.44
624.07	320.65
624.23	278.52
624.38	304.27
624.53	351.08
624.68	404.91
624.83	351.08
624.98	311.29
625.13	360.44
625.29	269.16
625.44	416.62
625.59	355.76
625.74	465.77
625.89	653.01
626.04	2218.83
626.19	7007.56
626.34	12526.55
626.49	15080.07
626.65	11140.95
626.80	7527.16
626.95	4901.08
627.10	3047.38
627.25	1547.09
627.40	767.70
627.55	510.24
627.70	393.21
627.85	409.59
628.00	388.53
628.15	325.33
628.30	290.23
628.45	297.25
628.60	287.89
628.76	278.52
628.91	280.86
629.06	273.84
629.21	337.04
629.36	411.93
629.51	379.17
629.66	388.53
629.81	475.13
629.96	1329.42
630.11	2705.66
630.26	3796.35
630.41	3330.58
630.56	2551.18
630.71	1685.19
630.86	1263.89
631.01	840.25
631.16	491.51
631.31	463.43
631.46	341.72
631.61	313.63
631.76	301.93
631.91	308.95
632.06	355.76
632.21	313.63
632.36	330.02
632.51	362.78
632.66	461.09
632.81	1146.86
632.96	3775.28
633.10	7641.85
633.25	10148.56
633.40	8423.59
633.55	5930.92
633.70	3936.78
633.85	2525.44
634.00	1369.21
634.15	765.36
634.30	538.32
634.45	308.95
634.60	372.15
634.75	346.40
634.90	362.78
635.05	306.61
635.19	315.97
635.34	355.76
635.49	322.99
635.64	308.95
635.79	339.38
635.94	330.02
636.09	306.61
636.24	348.74
636.39	374.49
636.53	299.59
636.68	367.46
636.83	297.25
636.98	376.83
637.13	411.93
637.28	409.59
637.43	514.92
637.57	755.99
637.72	3176.11
637.87	9193.62
638.02	16332.26
638.17	19812.63
638.32	14050.24
638.46	9418.32
638.61	6466.90
638.76	3789.33
638.91	2022.22
639.06	1013.45
639.20	777.06
639.35	711.52
639.50	964.30
639.65	4322.97
639.80	13743.63
639.94	24533.50
640.09	29090.52
640.24	21441.65
640.39	14057.26
640.54	9523.64
640.68	5722.61
640.83	2874.18
640.98	1266.23
641.13	737.27
641.27	559.39
641.42	507.90
641.57	430.66
641.72	433.00
641.86	442.36
642.01	292.57
642.16	362.78
642.31	285.55
642.45	360.44
642.60	304.27
642.75	241.08
642.90	325.33
643.04	351.08
643.19	231.71
643.34	262.14
643.48	264.48
643.63	201.29
643.78	255.12
643.93	269.16
644.07	238.73
644.22	287.89
644.37	255.12
644.51	262.14
644.66	306.61
644.81	308.95
644.95	346.40
645.10	280.86
645.25	264.48
645.39	259.80
645.54	262.14
645.69	294.91
645.83	241.08
645.98	320.65
646.13	255.12
646.27	243.42
646.42	269.16
646.57	252.78
646.71	149.79
646.86	252.78
647.00	184.90
647.15	306.61
647.30	236.39
647.44	269.16
647.59	266.82
647.74	205.97
647.88	243.42
648.03	262.14
648.17	294.91
648.32	259.80
648.47	346.40
648.61	290.23
648.76	231.71
648.90	203.63
649.05	259.80
649.20	301.93
649.34	306.61
649.49	325.33
649.63	334.70
649.78	440.02
649.92	425.98
650.07	1746.04
650.21	5921.56
650.36	11433.52
650.51	15044.96
650.65	12322.92
650.80	8795.73
650.94	5628.99
651.09	3625.49
651.23	1944.99
651.38	1004.09
651.52	645.99
651.67	440.02
651.81	360.44
651.96	360.44
652.10	330.02
652.25	290.23
652.39	222.35
652.54	306.61
652.68	601.52
652.83	1914.56
652.97	3850.18
653.12	5378.55
653.26	4975.98
653.41	3630.17
653.55	2415.43
653.70	1612.63
653.84	938.55
653.99	512.58
654.13	407.25
654.27	330.02
654.42	257.46
654.56	292.57
654.71	278.52
654.85	262.14
655.00	222.35
655.14	224.69
655.29	234.05
655.43	280.86
655.57	262.14
655.72	259.80
655.86	227.03
656.01	250.44
656.15	154.48
656.30	297.25
656.44	220.01
656.58	184.90
656.73	238.73
656.87	203.63
657.01	208.31
657.16	245.76
657.30	271.50
657.45	224.69
657.59	280.86
657.73	241.08
657.88	121.71
658.02	278.52
658.16	276.18
658.31	344.06
658.45	248.10
658.60	337.04
658.74	266.82
658.88	222.35
659.03	210.65
659.17	334.70
659.31	823.87
659.46	2806.30
659.60	5542.39
659.74	7688.66
659.89	6787.55
660.03	4912.78
660.17	3297.81
660.32	2129.89
660.46	1282.61
660.60	669.39
660.74	451.72
660.89	409.59
661.03	259.80
661.17	271.50
661.32	280.86
661.46	269.16
661.60	203.63
661.74	262.14
661.89	227.03
662.03	301.93
662.17	175.54
662.31	264.48
662.46	285.55
662.60	201.29
662.74	220.01
662.88	278.52
663.03	227.03
663.17	203.63
663.31	238.73
663.45	269.16
663.60	238.73
663.74	243.42
663.88	264.48
664.02	220.01
664.17	231.71
664.31	198.95
664.45	238.73
664.59	243.42
664.73	198.95
664.88	292.57
665.02	210.65
665.16	224.69
665.30	325.33
665.44	257.46
665.59	273.84
665.73	194.26
665.87	301.93
666.01	248.10
666.15	320.65
666.29	250.44
666.44	271.50
666.58	322.99
666.72	290.23
666.86	262.14
667.00	285.55
667.14	547.69
667.28	1636.03
667.43	4922.15
667.57	9488.53
667.71	13043.81
667.85	11276.70
667.99	8674.03
668.13	5348.12
668.27	3030.99
668.41	1802.21
668.56	1029.84
668.70	669.39
668.84	491.51
668.98	322.99
669.12	372.15
669.26	276.18
669.40	318.31
669.54	210.65
669.68	220.01
669.82	264.48
669.96	187.24
670.10	255.12
670.25	294.91
670.39	341.72
670.53	241.08
670.67	320.65
670.81	173.20
670.95	365.12
671.09	547.69
671.23	1839.66
671.37	4435.32
671.51	7321.20
671.65	8540.61
671.79	6413.07
671.93	4489.15
672.07	2803.96
672.21	1603.27
672.35	936.21
672.49	636.63
672.63	421.30
672.77	273.84
672.91	215.33
673.05	196.60
673.19	255.12
673.33	222.35
673.47	304.27
673.61	203.63
673.75	201.29
673.89	198.95
674.03	278.52
674.17	189.58
674.31	238.73
674.45	290.23
674.59	271.50
674.73	290.23
674.87	276.18
675.01	290.23
675.15	332.36
675.29	273.84
675.43	294.91
675.56	334.70
675.70	252.78
675.84	255.12
675.98	227.03
676.12	126.39
676.26	241.08
676.40	264.48
676.54	245.76
676.68	140.43
676.82	217.67
676.96	245.76
677.10	245.76
677.23	238.73
677.37	201.29
677.51	257.46
677.65	259.80
677.79	201.29
677.93	283.20
678.07	161.50
678.21	250.44
678.34	177.88
678.48	191.92
678.62	224.69
678.76	201.29
678.90	210.65
679.04	241.08
679.18	168.52
679.31	241.08
679.45	224.69
679.59	161.50
679.73	276.18
679.87	147.45
680.00	273.84
680.14	248.10
680.28	182.56
680.42	191.92
680.56	187.24
680.70	205.97
680.83	212.99
680.97	198.95
681.11	121.71
681.25	222.35
681.39	131.07
681.52	208.31
681.66	170.86
681.80	166.18
681.94	203.63
682.07	215.33
682.21	215.33
682.35	133.41
682.49	105.32
682.62	140.43
682.76	159.16
682.90	175.54
683.04	175.54
683.17	203.63
683.31	182.56
683.45	201.29
683.59	205.97
683.72	231.71
683.86	222.35
684.00	231.71
684.13	191.92
684.27	208.31
684.41	175.54
684.55	201.29
684.68	212.99
684.82	175.54
684.96	114.69
685.09	175.54
685.23	175.54
685.37	248.10
685.50	177.88
685.64	168.52
685.78	135.75
685.91	198.95
686.05	201.29
686.19	173.20
686.32	210.65
686.46	147.45
686.60	196.60
686.73	280.86
686.87	308.95
687.01	236.39
687.14	227.03
687.28	259.80
687.42	173.20
687.55	187.24
687.69	236.39
687.82	135.75
687.96	203.63
688.10	191.92
688.23	168.52
688.37	189.58
688.50	112.35
688.64	191.92
688.78	234.05
688.91	257.46
689.05	170.86
689.18	145.11
689.32	220.01
689.46	187.24
689.59	210.65
689.73	266.82
689.86	177.88
690.00	234.05
690.13	210.65
690.27	196.60
690.41	234.05
690.54	114.69
690.68	210.65
690.81	210.65
690.95	182.56
691.08	194.26
691.22	177.88
691.35	248.10
691.49	180.22
691.62	196.60
691.76	189.58
691.89	201.29
692.03	220.01
692.16	142.77
692.30	318.31
692.43	641.31
692.57	2120.53
692.70	3978.91
692.84	5750.70
692.97	5380.89
693.11	3950.82
693.24	2864.82
693.38	2043.29
693.51	1359.85
693.65	903.45
693.78	631.94
693.92	414.27
694.05	344.06
694.19	243.42
694.32	243.42
694.45	255.12
694.59	191.92
694.72	147.45
694.86	156.82
694.99	173.20
695.13	264.48
695.26	194.26
695.39	210.65
695.53	189.58
695.66	180.22
695.80	166.18
695.93	88.94
696.07	222.35
696.20	346.40
696.33	379.17
696.47	521.94
696.60	430.66
696.73	383.85
696.87	383.85
697.00	238.73
697.14	257.46
697.27	318.31
697.40	259.80
697.54	215.33
697.67	163.84
697.80	208.31
697.94	159.16
698.07	198.95
698.21	184.90
698.34	231.71
698.47	168.52
698.61	91.28
698.74	163.84
698.87	177.88
699.01	194.26
699.14	189.58
699.27	224.69
699.40	259.80
699.54	147.45
699.67	180.22
699.80	187.24
699.94	189.58
700.07	166.18
700.20	138.09
700.34	222.35
700.47	189.58
700.60	198.95
700.73	234.05
700.87	245.76
701.00	245.76
701.13	191.92
701.26	154.48
701.40	241.08
701.53	224.69
701.66	224.69
701.79	234.05
701.93	257.46
702.06	407.25
702.19	416.62
702.32	482.15
702.46	491.51
702.59	514.92
702.72	903.45
702.85	2761.83
702.99	6263.27
703.12	9441.72
703.25	11548.20
703.38	9640.67
703.51	7833.77
703.65	6104.12
703.78	4489.15
703.91	2918.65
704.04	1764.76
704.17	1151.54
704.31	772.38
704.44	521.94
704.57	320.65
704.70	362.78
704.83	215.33
704.96	217.67
705.10	184.90
705.23	201.29
>>>>>End Processed Spectral Data<<<<<
