SpectraSuite Data File
++++++++++++++++++++++++++++++++++++
Date: Fri Oct 04 11:34:03 GMT-05:00 2013
User: price-jones
Dark Spectrum Present: No
Reference Spectrum Present: No
Number of Sampled Component Spectra: 1
Spectrometers: USB2+H05261
Integration Time (usec): 100000 (USB2+H05261)
Spectra Averaged: 1 (USB2+H05261)
Boxcar Smoothing: 0 (USB2+H05261)
Correct for Electrical Dark: No (USB2+H05261)
Strobe/Lamp Enabled: No (USB2+H05261)
Correct for Detector Non-linearity: No (USB2+H05261)
Correct for Stray Light: No (USB2+H05261)
Number of Pixels in Processed Spectrum: 2048
>>>>>Begin Processed Spectral Data<<<<<
365.73	95.96
365.92	95.96
366.12	95.96
366.32	32.77
366.52	39.79
366.72	81.92
366.91	0.00
367.11	7.02
367.31	0.00
367.51	25.75
367.70	0.00
367.90	16.38
368.10	0.00
368.30	0.00
368.49	0.00
368.69	0.00
368.89	28.09
369.09	0.00
369.28	35.11
369.48	25.75
369.68	0.00
369.87	0.00
370.07	4.68
370.27	91.28
370.47	84.26
370.66	65.54
370.86	86.60
371.06	112.35
371.25	182.56
371.45	56.17
371.65	102.98
371.84	93.62
372.04	133.41
372.24	93.62
372.44	177.88
372.63	196.60
372.83	159.16
373.03	135.75
373.22	100.64
373.42	138.09
373.62	72.56
373.81	159.16
374.01	203.63
374.21	149.79
374.40	86.60
374.60	149.79
374.79	51.49
374.99	154.48
375.19	117.03
375.38	133.41
375.58	152.13
375.78	234.05
375.97	110.01
376.17	140.43
376.37	147.45
376.56	124.05
376.76	175.54
376.95	121.71
377.15	98.30
377.35	117.03
377.54	168.52
377.74	102.98
377.93	77.24
378.13	119.37
378.33	194.26
378.52	81.92
378.72	102.98
378.91	220.01
379.11	140.43
379.31	117.03
379.50	142.77
379.70	180.22
379.89	173.20
380.09	88.94
380.28	81.92
380.48	147.45
380.68	145.11
380.87	105.32
381.07	189.58
381.26	191.92
381.46	170.86
381.65	182.56
381.85	119.37
382.04	154.48
382.24	117.03
382.43	145.11
382.63	154.48
382.83	124.05
383.02	152.13
383.22	147.45
383.41	112.35
383.61	163.84
383.80	95.96
384.00	142.77
384.19	173.20
384.39	121.71
384.58	107.66
384.78	142.77
384.97	81.92
385.17	112.35
385.36	212.99
385.56	112.35
385.75	98.30
385.95	98.30
386.14	159.16
386.34	166.18
386.53	117.03
386.72	154.48
386.92	173.20
387.11	252.78
387.31	182.56
387.50	105.32
387.70	161.50
387.89	131.07
388.09	102.98
388.28	189.58
388.48	191.92
388.67	196.60
388.86	159.16
389.06	152.13
389.25	238.73
389.45	187.24
389.64	121.71
389.84	189.58
390.03	182.56
390.22	175.54
390.42	100.64
390.61	105.32
390.81	95.96
391.00	117.03
391.19	215.33
391.39	145.11
391.58	182.56
391.78	170.86
391.97	149.79
392.16	142.77
392.36	175.54
392.55	166.18
392.75	53.83
392.94	133.41
393.13	112.35
393.33	102.98
393.52	117.03
393.71	117.03
393.91	161.50
394.10	121.71
394.29	224.69
394.49	180.22
394.68	229.37
394.88	205.97
395.07	201.29
395.26	142.77
395.46	147.45
395.65	212.99
395.84	138.09
396.04	187.24
396.23	182.56
396.42	53.83
396.62	135.75
396.81	163.84
397.00	147.45
397.19	142.77
397.39	119.37
397.58	189.58
397.77	156.82
397.97	184.90
398.16	140.43
398.35	163.84
398.55	208.31
398.74	112.35
398.93	198.95
399.12	147.45
399.32	166.18
399.51	161.50
399.70	222.35
399.90	177.88
400.09	95.96
400.28	182.56
400.47	140.43
400.67	152.13
400.86	149.79
401.05	156.82
401.24	138.09
401.44	222.35
401.63	84.26
401.82	163.84
402.01	88.94
402.21	173.20
402.40	119.37
402.59	105.32
402.78	117.03
402.97	98.30
403.17	135.75
403.36	159.16
403.55	147.45
403.74	140.43
403.93	203.63
404.13	318.31
404.32	273.84
404.51	252.78
404.70	196.60
404.89	154.48
405.09	180.22
405.28	182.56
405.47	175.54
405.66	159.16
405.85	236.39
406.05	131.07
406.24	131.07
406.43	112.35
406.62	154.48
406.81	224.69
407.00	112.35
407.20	163.84
407.39	140.43
407.58	163.84
407.77	177.88
407.96	152.13
408.15	159.16
408.34	159.16
408.54	117.03
408.73	110.01
408.92	222.35
409.11	191.92
409.30	102.98
409.49	180.22
409.68	168.52
409.87	198.95
410.07	124.05
410.26	180.22
410.45	220.01
410.64	175.54
410.83	180.22
411.02	147.45
411.21	201.29
411.40	222.35
411.59	154.48
411.78	161.50
411.98	236.39
412.17	140.43
412.36	142.77
412.55	126.39
412.74	182.56
412.93	177.88
413.12	210.65
413.31	133.41
413.50	154.48
413.69	152.13
413.88	222.35
414.07	159.16
414.26	121.71
414.45	140.43
414.64	182.56
414.83	152.13
415.02	203.63
415.22	217.67
415.41	166.18
415.60	140.43
415.79	236.39
415.98	124.05
416.17	180.22
416.36	128.73
416.55	128.73
416.74	152.13
416.93	238.73
417.12	154.48
417.31	191.92
417.50	138.09
417.69	248.10
417.88	278.52
418.07	168.52
418.26	229.37
418.45	142.77
418.64	229.37
418.83	269.16
419.02	236.39
419.21	205.97
419.39	271.50
419.58	234.05
419.77	271.50
419.96	243.42
420.15	203.63
420.34	135.75
420.53	152.13
420.72	203.63
420.91	248.10
421.10	210.65
421.29	145.11
421.48	180.22
421.67	100.64
421.86	154.48
422.05	180.22
422.24	126.39
422.43	194.26
422.61	154.48
422.80	166.18
422.99	255.12
423.18	166.18
423.37	187.24
423.56	163.84
423.75	290.23
423.94	215.33
424.13	170.86
424.32	147.45
424.50	180.22
424.69	196.60
424.88	222.35
425.07	182.56
425.26	208.31
425.45	283.20
425.64	313.63
425.83	308.95
426.01	262.14
426.20	182.56
426.39	168.52
426.58	198.95
426.77	154.48
426.96	187.24
427.15	257.46
427.33	145.11
427.52	147.45
427.71	212.99
427.90	100.64
428.09	161.50
428.28	161.50
428.46	117.03
428.65	194.26
428.84	184.90
429.03	205.97
429.22	147.45
429.40	173.20
429.59	222.35
429.78	142.77
429.97	266.82
430.16	119.37
430.34	128.73
430.53	231.71
430.72	175.54
430.91	126.39
431.10	135.75
431.28	149.79
431.47	175.54
431.66	257.46
431.85	114.69
432.03	175.54
432.22	271.50
432.41	110.01
432.60	170.86
432.79	166.18
432.97	257.46
433.16	355.76
433.35	269.16
433.54	170.86
433.72	255.12
433.91	227.03
434.10	255.12
434.28	229.37
434.47	184.90
434.66	215.33
434.85	168.52
435.03	231.71
435.22	390.87
435.41	575.77
435.59	512.58
435.78	397.89
435.97	210.65
436.16	163.84
436.34	227.03
436.53	166.18
436.72	168.52
436.90	152.13
437.09	234.05
437.28	168.52
437.46	201.29
437.65	205.97
437.84	227.03
438.02	149.79
438.21	210.65
438.40	107.66
438.58	140.43
438.77	215.33
438.96	173.20
439.14	138.09
439.33	252.78
439.52	161.50
439.70	191.92
439.89	203.63
440.08	154.48
440.26	203.63
440.45	264.48
440.63	203.63
440.82	163.84
441.01	210.65
441.19	135.75
441.38	227.03
441.57	248.10
441.75	229.37
441.94	236.39
442.12	198.95
442.31	168.52
442.50	159.16
442.68	205.97
442.87	119.37
443.05	198.95
443.24	229.37
443.43	124.05
443.61	241.08
443.80	159.16
443.98	194.26
444.17	170.86
444.35	243.42
444.54	126.39
444.73	184.90
444.91	215.33
445.10	194.26
445.28	156.82
445.47	229.37
445.65	128.73
445.84	208.31
446.02	187.24
446.21	168.52
446.39	248.10
446.58	217.67
446.77	198.95
446.95	210.65
447.14	168.52
447.32	224.69
447.51	224.69
447.69	159.16
447.88	156.82
448.06	191.92
448.25	154.48
448.43	208.31
448.62	215.33
448.80	166.18
448.99	187.24
449.17	110.01
449.36	147.45
449.54	234.05
449.73	163.84
449.91	245.76
450.10	266.82
450.28	189.58
450.46	248.10
450.65	259.80
450.83	203.63
451.02	212.99
451.20	159.16
451.39	236.39
451.57	166.18
451.76	184.90
451.94	173.20
452.13	212.99
452.31	217.67
452.49	201.29
452.68	140.43
452.86	238.73
453.05	203.63
453.23	205.97
453.42	175.54
453.60	208.31
453.78	212.99
453.97	154.48
454.15	170.86
454.34	210.65
454.52	154.48
454.70	210.65
454.89	252.78
455.07	147.45
455.26	229.37
455.44	255.12
455.62	245.76
455.81	201.29
455.99	149.79
456.17	203.63
456.36	147.45
456.54	182.56
456.73	217.67
456.91	182.56
457.09	201.29
457.28	306.61
457.46	196.60
457.64	217.67
457.83	170.86
458.01	152.13
458.19	276.18
458.38	126.39
458.56	175.54
458.74	231.71
458.93	166.18
459.11	224.69
459.29	238.73
459.48	220.01
459.66	259.80
459.84	271.50
460.03	222.35
460.21	224.69
460.39	145.11
460.57	220.01
460.76	196.60
460.94	182.56
461.12	205.97
461.31	231.71
461.49	220.01
461.67	191.92
461.85	215.33
462.04	196.60
462.22	683.44
462.40	264.48
462.59	159.16
462.77	222.35
462.95	189.58
463.13	198.95
463.32	212.99
463.50	119.37
463.68	208.31
463.86	131.07
464.05	201.29
464.23	264.48
464.41	236.39
464.59	238.73
464.78	159.16
464.96	212.99
465.14	196.60
465.32	161.50
465.50	161.50
465.69	234.05
465.87	210.65
466.05	236.39
466.23	140.43
466.41	259.80
466.60	248.10
466.78	229.37
466.96	227.03
467.14	222.35
467.32	222.35
467.51	154.48
467.69	189.58
467.87	252.78
468.05	170.86
468.23	243.42
468.41	194.26
468.60	182.56
468.78	196.60
468.96	222.35
469.14	166.18
469.32	231.71
469.50	198.95
469.69	194.26
469.87	145.11
470.05	203.63
470.23	222.35
470.41	201.29
470.59	168.52
470.77	159.16
470.95	180.22
471.14	227.03
471.32	196.60
471.50	241.08
471.68	166.18
471.86	184.90
472.04	215.33
472.22	201.29
472.40	166.18
472.58	236.39
472.77	252.78
472.95	194.26
473.13	189.58
473.31	224.69
473.49	205.97
473.67	161.50
473.85	252.78
474.03	173.20
474.21	215.33
474.39	236.39
474.57	205.97
474.75	208.31
474.93	257.46
475.12	74.90
475.30	168.52
475.48	217.67
475.66	187.24
475.84	184.90
476.02	194.26
476.20	184.90
476.38	147.45
476.56	248.10
476.74	198.95
476.92	198.95
477.10	170.86
477.28	264.48
477.46	264.48
477.64	184.90
477.82	173.20
478.00	224.69
478.18	262.14
478.36	238.73
478.54	229.37
478.72	205.97
478.90	252.78
479.08	276.18
479.26	149.79
479.44	175.54
479.62	227.03
479.80	184.90
479.98	196.60
480.16	210.65
480.34	210.65
480.52	266.82
480.70	231.71
480.88	147.45
481.06	210.65
481.24	259.80
481.41	212.99
481.59	220.01
481.77	266.82
481.95	215.33
482.13	290.23
482.31	250.44
482.49	273.84
482.67	238.73
482.85	194.26
483.03	222.35
483.21	201.29
483.39	203.63
483.57	220.01
483.74	278.52
483.92	196.60
484.10	248.10
484.28	262.14
484.46	313.63
484.64	245.76
484.82	287.89
485.00	161.50
485.18	229.37
485.35	212.99
485.53	119.37
485.71	351.08
485.89	264.48
486.07	163.84
486.25	390.87
486.43	278.52
486.61	245.76
486.78	215.33
486.96	266.82
487.14	234.05
487.32	241.08
487.50	294.91
487.68	227.03
487.85	269.16
488.03	224.69
488.21	243.42
488.39	269.16
488.57	280.86
488.75	248.10
488.92	540.66
489.10	248.10
489.28	224.69
489.46	198.95
489.64	189.58
489.81	135.75
489.99	276.18
490.17	292.57
490.35	365.12
490.53	278.52
490.70	222.35
490.88	196.60
491.06	280.86
491.24	252.78
491.41	241.08
491.59	259.80
491.77	196.60
491.95	182.56
492.13	283.20
492.30	238.73
492.48	262.14
492.66	243.42
492.84	217.67
493.01	283.20
493.19	306.61
493.37	285.55
493.54	222.35
493.72	262.14
493.90	262.14
494.08	222.35
494.25	224.69
494.43	313.63
494.61	255.12
494.79	201.29
494.96	287.89
495.14	259.80
495.32	255.12
495.49	210.65
495.67	191.92
495.85	170.86
496.02	243.42
496.20	269.16
496.38	271.50
496.55	210.65
496.73	255.12
496.91	215.33
497.09	259.80
497.26	224.69
497.44	262.14
497.62	222.35
497.79	234.05
497.97	327.68
498.14	351.08
498.32	243.42
498.50	278.52
498.67	154.48
498.85	231.71
499.03	269.16
499.20	262.14
499.38	182.56
499.56	255.12
499.73	245.76
499.91	259.80
500.08	194.26
500.26	243.42
500.44	231.71
500.61	212.99
500.79	189.58
500.97	266.82
501.14	259.80
501.32	227.03
501.49	231.71
501.67	236.39
501.84	259.80
502.02	231.71
502.20	250.44
502.37	252.78
502.55	231.71
502.72	262.14
502.90	231.71
503.07	304.27
503.25	306.61
503.43	255.12
503.60	243.42
503.78	325.33
503.95	236.39
504.13	236.39
504.30	294.91
504.48	276.18
504.65	290.23
504.83	236.39
505.01	248.10
505.18	252.78
505.36	227.03
505.53	210.65
505.71	271.50
505.88	266.82
506.06	257.46
506.23	166.18
506.41	236.39
506.58	210.65
506.76	252.78
506.93	241.08
507.11	220.01
507.28	292.57
507.46	234.05
507.63	234.05
507.81	252.78
507.98	292.57
508.16	278.52
508.33	205.97
508.50	262.14
508.68	212.99
508.85	280.86
509.03	269.16
509.20	236.39
509.38	294.91
509.55	297.25
509.73	290.23
509.90	224.69
510.08	224.69
510.25	243.42
510.42	234.05
510.60	229.37
510.77	304.27
510.95	266.82
511.12	313.63
511.30	280.86
511.47	280.86
511.64	311.29
511.82	217.67
511.99	276.18
512.17	273.84
512.34	236.39
512.51	259.80
512.69	271.50
512.86	262.14
513.04	224.69
513.21	229.37
513.38	224.69
513.56	212.99
513.73	182.56
513.90	201.29
514.08	229.37
514.25	285.55
514.43	290.23
514.60	224.69
514.77	334.70
514.95	276.18
515.12	220.01
515.29	311.29
515.47	276.18
515.64	231.71
515.81	250.44
515.99	266.82
516.16	231.71
516.33	306.61
516.51	224.69
516.68	180.22
516.85	177.88
517.03	243.42
517.20	245.76
517.37	308.95
517.54	306.61
517.72	278.52
517.89	252.78
518.06	215.33
518.24	383.85
518.41	369.80
518.58	276.18
518.75	184.90
518.93	306.61
519.10	306.61
519.27	250.44
519.45	273.84
519.62	299.59
519.79	276.18
519.96	287.89
520.14	271.50
520.31	301.93
520.48	234.05
520.65	280.86
520.83	276.18
521.00	243.42
521.17	262.14
521.34	203.63
521.52	266.82
521.69	304.27
521.86	252.78
522.03	278.52
522.20	388.53
522.38	285.55
522.55	255.12
522.72	353.42
522.89	243.42
523.07	170.86
523.24	184.90
523.41	264.48
523.58	283.20
523.75	287.89
523.92	283.20
524.10	348.74
524.27	285.55
524.44	266.82
524.61	280.86
524.78	191.92
524.96	273.84
525.13	203.63
525.30	224.69
525.47	313.63
525.64	259.80
525.81	278.52
525.98	280.86
526.16	271.50
526.33	198.95
526.50	264.48
526.67	217.67
526.84	266.82
527.01	250.44
527.18	208.31
527.36	266.82
527.53	248.10
527.70	290.23
527.87	301.93
528.04	297.25
528.21	231.71
528.38	257.46
528.55	290.23
528.72	306.61
528.89	276.18
529.07	236.39
529.24	245.76
529.41	294.91
529.58	318.31
529.75	337.04
529.92	337.04
530.09	332.36
530.26	262.14
530.43	290.23
530.60	318.31
530.77	250.44
530.94	280.86
531.11	262.14
531.28	264.48
531.46	222.35
531.63	318.31
531.80	245.76
531.97	248.10
532.14	299.59
532.31	341.72
532.48	308.95
532.65	402.57
532.82	400.23
532.99	451.72
533.16	346.40
533.33	315.97
533.50	341.72
533.67	304.27
533.84	393.21
534.01	472.79
534.18	411.93
534.35	330.02
534.52	337.04
534.69	397.89
534.86	252.78
535.03	238.73
535.20	269.16
535.37	327.68
535.54	362.78
535.71	325.33
535.88	285.55
536.05	269.16
536.22	360.44
536.38	234.05
536.55	294.91
536.72	306.61
536.89	245.76
537.06	276.18
537.23	227.03
537.40	358.10
537.57	330.02
537.74	355.76
537.91	381.51
538.08	287.89
538.25	334.70
538.42	292.57
538.59	297.25
538.75	292.57
538.92	283.20
539.09	409.59
539.26	409.59
539.43	564.07
539.60	1149.20
539.77	1701.57
539.94	1764.76
540.11	1238.14
540.28	854.30
540.44	706.84
540.61	557.05
540.78	482.15
540.95	550.03
541.12	613.22
541.29	543.00
541.46	601.52
541.62	571.09
541.79	622.58
541.96	568.75
542.13	557.05
542.30	580.45
542.47	545.34
542.63	554.71
542.80	456.40
542.97	568.75
543.14	545.34
543.31	531.30
543.48	470.45
543.64	477.47
543.81	559.39
543.98	535.98
544.15	465.77
544.32	505.56
544.48	545.34
544.65	465.77
544.82	512.58
544.99	500.87
545.16	561.73
545.32	505.56
545.49	791.10
545.66	971.32
545.83	1064.94
546.00	1020.47
546.16	772.38
546.33	606.20
546.50	524.28
546.67	447.04
546.83	451.72
547.00	498.53
547.17	381.51
547.34	407.25
547.50	339.38
547.67	407.25
547.84	365.12
548.00	456.40
548.17	416.62
548.34	444.70
548.51	456.40
548.67	390.87
548.84	397.89
549.01	386.19
549.18	390.87
549.34	393.21
549.51	388.53
549.68	423.64
549.84	409.59
550.01	355.76
550.18	498.53
550.34	374.49
550.51	421.30
550.68	362.78
550.84	311.29
551.01	351.08
551.18	341.72
551.34	344.06
551.51	325.33
551.68	304.27
551.84	400.23
552.01	353.42
552.18	404.91
552.34	348.74
552.51	348.74
552.68	322.99
552.84	229.37
553.01	306.61
553.18	269.16
553.34	362.78
553.51	304.27
553.67	297.25
553.84	341.72
554.01	304.27
554.17	365.12
554.34	262.14
554.51	285.55
554.67	287.89
554.84	283.20
555.00	196.60
555.17	308.95
555.33	299.59
555.50	271.50
555.67	276.18
555.83	388.53
556.00	327.68
556.16	414.27
556.33	278.52
556.50	175.54
556.66	372.15
556.83	243.42
556.99	241.08
557.16	159.16
557.32	262.14
557.49	280.86
557.65	294.91
557.82	294.91
557.98	315.97
558.15	189.58
558.32	180.22
558.48	266.82
558.65	215.33
558.81	252.78
558.98	252.78
559.14	227.03
559.31	252.78
559.47	283.20
559.64	238.73
559.80	229.37
559.97	262.14
560.13	283.20
560.30	245.76
560.46	276.18
560.63	205.97
560.79	292.57
560.96	292.57
561.12	301.93
561.29	257.46
561.45	313.63
561.61	280.86
561.78	341.72
561.94	294.91
562.11	248.10
562.27	222.35
562.44	205.97
562.60	238.73
562.77	285.55
562.93	337.04
563.10	238.73
563.26	332.36
563.42	320.65
563.59	341.72
563.75	271.50
563.92	290.23
564.08	252.78
564.24	229.37
564.41	344.06
564.57	271.50
564.74	227.03
564.90	285.55
565.07	252.78
565.23	367.46
565.39	353.42
565.56	372.15
565.72	227.03
565.88	283.20
566.05	224.69
566.21	280.86
566.38	294.91
566.54	383.85
566.70	287.89
566.87	311.29
567.03	229.37
567.19	299.59
567.36	255.12
567.52	224.69
567.68	355.76
567.85	250.44
568.01	229.37
568.17	292.57
568.34	250.44
568.50	255.12
568.66	187.24
568.83	358.10
568.99	215.33
569.15	320.65
569.32	231.71
569.48	259.80
569.64	229.37
569.81	191.92
569.97	334.70
570.13	269.16
570.30	292.57
570.46	266.82
570.62	234.05
570.78	280.86
570.95	234.05
571.11	332.36
571.27	315.97
571.43	278.52
571.60	325.33
571.76	215.33
571.92	297.25
572.09	259.80
572.25	290.23
572.41	252.78
572.57	208.31
572.74	280.86
572.90	287.89
573.06	337.04
573.22	231.71
573.38	278.52
573.55	287.89
573.71	248.10
573.87	306.61
574.03	262.14
574.20	311.29
574.36	379.17
574.52	369.80
574.68	414.27
574.84	353.42
575.01	313.63
575.17	337.04
575.33	315.97
575.49	313.63
575.65	283.20
575.82	330.02
575.98	638.97
576.14	767.70
576.30	854.30
576.46	709.18
576.62	608.54
576.79	540.66
576.95	489.17
577.11	346.40
577.27	365.12
577.43	390.87
577.59	433.00
577.75	285.55
577.92	285.55
578.08	334.70
578.24	229.37
578.40	411.93
578.56	402.57
578.72	531.30
578.88	491.51
579.04	397.89
579.21	381.51
579.37	351.08
579.53	411.93
579.69	379.17
579.85	330.02
580.01	416.62
580.17	477.47
580.33	526.62
580.49	433.00
580.65	409.59
580.82	369.80
580.98	346.40
581.14	421.30
581.30	468.11
581.46	437.68
581.62	753.65
581.78	741.95
581.94	655.35
582.10	545.34
582.26	535.98
582.42	449.38
582.58	470.45
582.74	479.81
582.90	500.87
583.06	550.03
583.22	543.00
583.38	589.82
583.54	559.39
583.70	748.97
583.86	765.36
584.02	889.40
584.18	1081.33
584.34	1296.66
584.50	3080.14
584.66	21553.99
584.82	55917.74
584.98	65535.00
585.14	63969.18
585.30	50405.78
585.46	31166.57
585.62	19229.84
585.78	8975.95
585.94	3571.66
586.10	1809.23
586.26	1114.10
586.42	938.55
586.58	851.96
586.74	739.61
586.90	667.05
587.06	732.59
587.22	662.37
587.38	655.35
587.54	1191.33
587.70	3508.46
587.86	5912.19
588.02	6916.28
588.18	4966.62
588.34	3211.22
588.49	2127.55
588.65	1238.14
588.81	730.25
588.97	393.21
589.13	397.89
589.29	414.27
589.45	383.85
589.61	374.49
589.77	444.70
589.93	521.94
590.08	545.34
590.24	524.28
590.40	435.34
590.56	505.56
590.72	425.98
590.88	365.12
591.04	360.44
591.20	395.55
591.35	477.47
591.51	372.15
591.67	395.55
591.83	353.42
591.99	379.17
592.15	440.02
592.31	346.40
592.46	468.11
592.62	348.74
592.78	416.62
592.94	433.00
593.10	444.70
593.26	435.34
593.41	477.47
593.57	409.59
593.73	667.05
593.89	2722.04
594.05	7246.30
594.20	11442.88
594.36	11276.70
594.52	7482.69
594.68	4613.20
594.84	3110.57
594.99	1820.94
595.15	833.23
595.31	608.54
595.47	454.06
595.62	395.55
595.78	351.08
595.94	388.53
596.10	423.64
596.25	433.00
596.41	376.83
596.57	353.42
596.73	397.89
596.88	491.51
597.04	1460.49
597.20	2338.20
597.36	2920.99
597.51	2256.28
597.67	1507.30
597.83	1181.97
597.99	718.54
598.14	533.64
598.30	444.70
598.46	456.40
598.61	433.00
598.77	423.64
598.93	358.10
599.09	383.85
599.24	322.99
599.40	337.04
599.56	353.42
599.71	294.91
599.87	313.63
600.03	315.97
600.18	360.44
600.34	360.44
600.50	320.65
600.65	276.18
600.81	339.38
600.97	355.76
601.12	325.33
601.28	416.62
601.44	339.38
601.59	320.65
601.75	252.78
601.91	273.84
602.06	337.04
602.22	440.02
602.37	716.20
602.53	1844.34
602.69	2885.88
602.84	3108.23
603.00	2183.72
603.16	1551.78
603.31	1111.75
603.47	828.55
603.62	491.51
603.78	433.00
603.94	325.33
604.09	365.12
604.25	332.36
604.40	376.83
604.56	322.99
604.71	322.99
604.87	322.99
605.03	262.14
605.18	353.42
605.34	346.40
605.49	376.83
605.65	425.98
605.80	337.04
605.96	360.44
606.12	341.72
606.27	444.70
606.43	383.85
606.58	458.74
606.74	877.70
606.89	3068.44
607.05	6963.09
607.20	9736.63
607.36	8173.15
607.51	5724.95
607.67	3499.10
607.82	2457.56
607.98	1460.49
608.13	814.51
608.29	620.24
608.44	585.13
608.60	594.50
608.75	578.11
608.91	1184.31
609.06	5055.56
609.22	12016.31
609.37	17097.61
609.53	15342.21
609.68	10370.91
609.84	6679.89
609.99	4629.58
610.15	2647.15
610.30	1439.43
610.46	1032.18
610.61	1036.86
610.76	1004.09
610.92	1153.88
611.07	1296.66
611.23	1301.34
611.38	1203.04
611.54	973.66
611.69	978.34
611.84	835.57
612.00	734.93
612.15	755.99
612.31	812.17
612.46	957.28
612.62	1025.15
612.77	1043.88
612.92	884.72
613.08	856.64
613.23	772.38
613.39	753.65
613.54	1020.47
613.69	4531.28
613.85	14637.71
614.00	25076.50
614.15	27269.58
614.31	19337.51
614.46	12688.04
614.62	8535.93
614.77	5275.57
614.92	2387.35
615.08	1277.93
615.23	847.27
615.38	645.99
615.54	615.56
615.69	1055.58
615.84	2810.98
616.00	5722.61
616.15	7197.15
616.30	5937.94
616.46	4318.29
616.61	2710.34
616.76	1987.11
616.92	1067.28
617.07	622.58
617.22	582.79
617.37	465.77
617.53	299.59
617.68	404.91
617.83	437.68
617.99	421.30
618.14	379.17
618.29	421.30
618.45	351.08
618.60	334.70
618.75	327.68
618.90	292.57
619.06	379.17
619.21	409.59
619.36	372.15
619.51	304.27
619.67	372.15
619.82	294.91
619.97	320.65
620.12	346.40
620.28	362.78
620.43	292.57
620.58	327.68
620.73	421.30
620.89	348.74
621.04	550.03
621.19	1502.62
621.34	2967.80
621.49	4117.00
621.65	3791.67
621.80	2703.32
621.95	1834.98
622.10	1338.79
622.25	889.40
622.41	578.11
622.56	390.87
622.71	346.40
622.86	428.32
623.01	376.83
623.16	330.02
623.32	198.95
623.47	280.86
623.62	339.38
623.77	311.29
623.92	360.44
624.07	245.76
624.23	330.02
624.38	325.33
624.53	351.08
624.68	404.91
624.83	365.12
624.98	269.16
625.13	330.02
625.29	325.33
625.44	313.63
625.59	407.25
625.74	500.87
625.89	596.84
626.04	2237.55
626.19	6853.09
626.34	11889.92
626.49	14181.31
626.65	10438.79
626.80	6932.67
626.95	4889.38
627.10	3005.25
627.25	1493.26
627.40	835.57
627.55	496.19
627.70	348.74
627.85	367.46
628.00	322.99
628.15	306.61
628.30	360.44
628.45	285.55
628.60	442.36
628.76	355.76
628.91	362.78
629.06	327.68
629.21	360.44
629.36	379.17
629.51	322.99
629.66	346.40
629.81	507.90
629.96	1366.87
630.11	2682.25
630.26	3566.98
630.41	3124.62
630.56	2520.76
630.71	1820.94
630.86	1331.76
631.01	882.38
631.16	599.18
631.31	510.24
631.46	428.32
631.61	353.42
631.76	325.33
631.91	365.12
632.06	320.65
632.21	365.12
632.36	313.63
632.51	451.72
632.66	390.87
632.81	1118.78
632.96	3810.39
633.10	7349.28
633.25	9420.66
633.40	7665.25
633.55	5432.38
633.70	3833.80
633.85	2555.86
634.00	1411.34
634.15	725.57
634.30	498.53
634.45	386.19
634.60	346.40
634.75	257.46
634.90	308.95
635.05	308.95
635.19	355.76
635.34	285.55
635.49	306.61
635.64	339.38
635.79	337.04
635.94	304.27
636.09	257.46
636.24	318.31
636.39	365.12
636.53	297.25
636.68	332.36
636.83	346.40
636.98	339.38
637.13	332.36
637.28	395.55
637.43	482.15
637.57	660.03
637.72	3084.83
637.87	9114.05
638.02	15896.92
638.17	17813.82
638.32	13481.49
638.46	8901.06
638.61	6141.57
638.76	3763.58
638.91	1858.39
639.06	973.66
639.20	760.67
639.35	664.71
639.50	978.34
639.65	4503.19
639.80	13706.18
639.94	24194.12
640.09	27803.22
640.24	20748.85
640.39	13832.57
640.54	9200.65
640.68	5668.78
640.83	2778.22
640.98	1310.70
641.13	786.42
641.27	582.79
641.42	468.11
641.57	418.96
641.72	376.83
641.86	306.61
642.01	344.06
642.16	358.10
642.31	297.25
642.45	334.70
642.60	285.55
642.75	266.82
642.90	238.73
643.04	255.12
643.19	236.39
643.34	273.84
643.48	283.20
643.63	231.71
643.78	262.14
643.93	292.57
644.07	266.82
644.22	262.14
644.37	346.40
644.51	297.25
644.66	273.84
644.81	292.57
644.95	315.97
645.10	208.31
645.25	203.63
645.39	337.04
645.54	191.92
645.69	341.72
645.83	222.35
645.98	311.29
646.13	344.06
646.27	315.97
646.42	248.10
646.57	224.69
646.71	236.39
646.86	308.95
647.00	280.86
647.15	278.52
647.30	236.39
647.44	292.57
647.59	203.63
647.74	208.31
647.88	259.80
648.03	276.18
648.17	339.38
648.32	259.80
648.47	252.78
648.61	259.80
648.76	266.82
648.90	299.59
649.05	308.95
649.20	241.08
649.34	266.82
649.49	269.16
649.63	393.21
649.78	355.76
649.92	500.87
650.07	1750.72
650.21	6033.90
650.36	11213.51
650.51	14623.67
650.65	11721.40
650.80	8252.73
650.94	5521.32
651.09	3314.20
651.23	1774.13
651.38	875.36
651.52	512.58
651.67	358.10
651.81	290.23
651.96	456.40
652.10	313.63
652.25	304.27
652.39	322.99
652.54	346.40
652.68	648.33
652.83	1881.79
652.97	3733.15
653.12	5144.50
653.26	4503.19
653.41	3297.81
653.55	2284.36
653.70	1490.92
653.84	833.23
653.99	517.26
654.13	414.27
654.27	273.84
654.42	332.36
654.56	301.93
654.71	262.14
654.85	189.58
655.00	210.65
655.14	229.37
655.29	236.39
655.43	280.86
655.57	264.48
655.72	168.52
655.86	269.16
656.01	269.16
656.15	177.88
656.30	257.46
656.44	205.97
656.58	227.03
656.73	220.01
656.87	107.66
657.01	182.56
657.16	290.23
657.30	252.78
657.45	266.82
657.59	215.33
657.73	224.69
657.88	241.08
658.02	297.25
658.16	285.55
658.31	241.08
658.45	231.71
658.60	238.73
658.74	294.91
658.88	264.48
659.03	292.57
659.17	332.36
659.31	833.23
659.46	2700.98
659.60	5170.24
659.74	6993.52
659.89	6296.04
660.03	4678.73
660.17	3087.17
660.32	1975.41
660.46	1235.80
660.60	601.52
660.74	517.26
660.89	330.02
661.03	290.23
661.17	269.16
661.32	156.82
661.46	262.14
661.60	280.86
661.74	262.14
661.89	351.08
662.03	273.84
662.17	212.99
662.31	191.92
662.46	208.31
662.60	191.92
662.74	196.60
662.88	264.48
663.03	135.75
663.17	255.12
663.31	177.88
663.45	280.86
663.60	276.18
663.74	189.58
663.88	184.90
664.02	285.55
664.17	208.31
664.31	243.42
664.45	271.50
664.59	222.35
664.73	236.39
664.88	243.42
665.02	248.10
665.16	194.26
665.30	212.99
665.44	280.86
665.59	278.52
665.73	292.57
665.87	173.20
666.01	198.95
666.15	250.44
666.29	306.61
666.44	285.55
666.58	341.72
666.72	269.16
666.86	273.84
667.00	433.00
667.14	454.06
667.28	1640.72
667.43	5043.85
667.57	9392.57
667.71	12306.54
667.85	10670.50
667.99	7808.03
668.13	5022.79
668.27	2902.26
668.41	1640.72
668.56	964.30
668.70	713.86
668.84	498.53
668.98	322.99
669.12	276.18
669.26	362.78
669.40	322.99
669.54	238.73
669.68	301.93
669.82	222.35
669.96	318.31
670.10	191.92
670.25	318.31
670.39	297.25
670.53	252.78
670.67	266.82
670.81	238.73
670.95	306.61
671.09	507.90
671.23	1921.58
671.37	4470.42
671.51	6867.13
671.65	7581.00
671.79	6076.03
671.93	4250.41
672.07	2588.63
672.21	1603.27
672.35	851.96
672.49	557.05
672.63	454.06
672.77	348.74
672.91	290.23
673.05	255.12
673.19	283.20
673.33	201.29
673.47	266.82
673.61	229.37
673.75	220.01
673.89	215.33
674.03	245.76
674.17	177.88
674.31	217.67
674.45	255.12
674.59	215.33
674.73	318.31
674.87	301.93
675.01	243.42
675.15	229.37
675.29	334.70
675.43	290.23
675.56	299.59
675.70	273.84
675.84	210.65
675.98	248.10
676.12	227.03
676.26	210.65
676.40	250.44
676.54	248.10
676.68	149.79
676.82	238.73
676.96	241.08
677.10	198.95
677.23	198.95
677.37	126.39
677.51	201.29
677.65	255.12
677.79	196.60
677.93	264.48
678.07	170.86
678.21	177.88
678.34	107.66
678.48	198.95
678.62	276.18
678.76	142.77
678.90	212.99
679.04	217.67
679.18	135.75
679.31	194.26
679.45	168.52
679.59	234.05
679.73	210.65
679.87	175.54
680.00	196.60
680.14	189.58
680.28	196.60
680.42	203.63
680.56	163.84
680.70	208.31
680.83	168.52
680.97	170.86
681.11	145.11
681.25	243.42
681.39	175.54
681.52	166.18
681.66	194.26
681.80	175.54
681.94	147.45
682.07	156.82
682.21	156.82
682.35	248.10
682.49	184.90
682.62	205.97
682.76	124.05
682.90	224.69
683.04	177.88
683.17	229.37
683.31	194.26
683.45	248.10
683.59	182.56
683.72	245.76
683.86	252.78
684.00	201.29
684.13	269.16
684.27	142.77
684.41	159.16
684.55	208.31
684.68	187.24
684.82	152.13
684.96	234.05
685.09	154.48
685.23	180.22
685.37	131.07
685.50	238.73
685.64	187.24
685.78	166.18
685.91	159.16
686.05	154.48
686.19	212.99
686.32	126.39
686.46	170.86
686.60	152.13
686.73	229.37
686.87	266.82
687.01	245.76
687.14	276.18
687.28	245.76
687.42	156.82
687.55	292.57
687.69	170.86
687.82	161.50
687.96	198.95
688.10	264.48
688.23	173.20
688.37	241.08
688.50	138.09
688.64	177.88
688.78	189.58
688.91	166.18
689.05	224.69
689.18	154.48
689.32	170.86
689.46	117.03
689.59	180.22
689.73	145.11
689.86	124.05
690.00	210.65
690.13	119.37
690.27	138.09
690.41	229.37
690.54	212.99
690.68	152.13
690.81	163.84
690.95	161.50
691.08	231.71
691.22	166.18
691.35	135.75
691.49	133.41
691.62	224.69
691.76	198.95
691.89	231.71
692.03	161.50
692.16	182.56
692.30	311.29
692.43	753.65
692.57	2026.90
692.70	3878.27
692.84	5359.83
692.97	5060.24
693.11	3576.34
693.24	2658.85
693.38	1806.89
693.51	1254.53
693.65	905.79
693.78	627.26
693.92	411.93
694.05	346.40
694.19	318.31
694.32	236.39
694.45	191.92
694.59	220.01
694.72	229.37
694.86	234.05
694.99	156.82
695.13	208.31
695.26	149.79
695.39	212.99
695.53	227.03
695.66	201.29
695.80	290.23
695.93	163.84
696.07	234.05
696.20	348.74
696.33	451.72
696.47	489.17
696.60	528.96
696.73	421.30
696.87	395.55
697.00	381.51
697.14	236.39
697.27	259.80
697.40	189.58
697.54	210.65
697.67	70.22
697.80	210.65
697.94	227.03
698.07	262.14
698.21	182.56
698.34	168.52
698.47	159.16
698.61	166.18
698.74	215.33
698.87	259.80
699.01	133.41
699.14	245.76
699.27	210.65
699.40	304.27
699.54	248.10
699.67	189.58
699.80	117.03
699.94	140.43
700.07	142.77
700.20	135.75
700.34	184.90
700.47	166.18
700.60	198.95
700.73	182.56
700.87	205.97
701.00	180.22
701.13	149.79
701.26	168.52
701.40	191.92
701.53	229.37
701.66	140.43
701.79	243.42
701.93	229.37
702.06	276.18
702.19	395.55
702.32	526.62
702.46	470.45
702.59	587.47
702.72	849.61
702.85	2614.38
702.99	6003.47
703.12	9034.47
703.25	10487.94
703.38	9025.11
703.51	7080.12
703.65	5741.33
703.78	3878.27
703.91	2661.19
704.04	1589.22
704.17	1043.88
704.31	692.80
704.44	449.38
704.57	388.53
704.70	273.84
704.83	318.31
704.96	234.05
705.10	294.91
705.23	238.73
>>>>>End Processed Spectral Data<<<<<
