SpectraSuite Data File
++++++++++++++++++++++++++++++++++++
Date: Fri Oct 04 11:33:49 GMT-05:00 2013
User: price-jones
Dark Spectrum Present: No
Reference Spectrum Present: No
Number of Sampled Component Spectra: 1
Spectrometers: USB2+H05261
Integration Time (usec): 100000 (USB2+H05261)
Spectra Averaged: 1 (USB2+H05261)
Boxcar Smoothing: 0 (USB2+H05261)
Correct for Electrical Dark: No (USB2+H05261)
Strobe/Lamp Enabled: No (USB2+H05261)
Correct for Detector Non-linearity: No (USB2+H05261)
Correct for Stray Light: No (USB2+H05261)
Number of Pixels in Processed Spectrum: 2048
>>>>>Begin Processed Spectral Data<<<<<
365.73	42.13
365.92	42.13
366.12	42.13
366.32	0.00
366.52	7.02
366.72	21.06
366.91	0.00
367.11	0.00
367.31	25.75
367.51	0.00
367.70	0.00
367.90	0.00
368.10	0.00
368.30	9.36
368.49	0.00
368.69	7.02
368.89	0.00
369.09	0.00
369.28	0.00
369.48	46.81
369.68	18.72
369.87	0.00
370.07	0.00
370.27	81.92
370.47	46.81
370.66	16.38
370.86	131.07
371.06	149.79
371.25	189.58
371.45	65.54
371.65	84.26
371.84	98.30
372.04	9.36
372.24	121.71
372.44	161.50
372.63	175.54
372.83	182.56
373.03	154.48
373.22	117.03
373.42	112.35
373.62	170.86
373.81	173.20
374.01	138.09
374.21	102.98
374.40	128.73
374.60	224.69
374.79	121.71
374.99	187.24
375.19	142.77
375.38	259.80
375.58	194.26
375.78	191.92
375.97	159.16
376.17	257.46
376.37	138.09
376.56	166.18
376.76	86.60
376.95	189.58
377.15	189.58
377.35	140.43
377.54	241.08
377.74	145.11
377.93	140.43
378.13	198.95
378.33	154.48
378.52	126.39
378.72	187.24
378.91	110.01
379.11	149.79
379.31	163.84
379.50	131.07
379.70	145.11
379.89	182.56
380.09	205.97
380.28	117.03
380.48	163.84
380.68	93.62
380.87	205.97
381.07	159.16
381.26	198.95
381.46	135.75
381.65	168.52
381.85	100.64
382.04	114.69
382.24	138.09
382.43	154.48
382.63	147.45
382.83	166.18
383.02	142.77
383.22	142.77
383.41	138.09
383.61	149.79
383.80	117.03
384.00	84.26
384.19	159.16
384.39	149.79
384.58	95.96
384.78	126.39
384.97	114.69
385.17	152.13
385.36	126.39
385.56	95.96
385.75	191.92
385.95	159.16
386.14	161.50
386.34	102.98
386.53	102.98
386.72	161.50
386.92	107.66
387.11	131.07
387.31	220.01
387.50	105.32
387.70	133.41
387.89	159.16
388.09	79.58
388.28	70.22
388.48	91.28
388.67	182.56
388.86	131.07
389.06	168.52
389.25	147.45
389.45	170.86
389.64	163.84
389.84	175.54
390.03	208.31
390.22	180.22
390.42	131.07
390.61	56.17
390.81	77.24
391.00	156.82
391.19	196.60
391.39	161.50
391.58	168.52
391.78	147.45
391.97	124.05
392.16	93.62
392.36	170.86
392.55	119.37
392.75	149.79
392.94	133.41
393.13	161.50
393.33	107.66
393.52	93.62
393.71	142.77
393.91	152.13
394.10	135.75
394.29	191.92
394.49	124.05
394.68	173.20
394.88	175.54
395.07	124.05
395.26	187.24
395.46	126.39
395.65	84.26
395.84	182.56
396.04	177.88
396.23	184.90
396.42	184.90
396.62	222.35
396.81	121.71
397.00	102.98
397.19	180.22
397.39	212.99
397.58	107.66
397.77	114.69
397.97	147.45
398.16	77.24
398.35	147.45
398.55	175.54
398.74	166.18
398.93	184.90
399.12	149.79
399.32	166.18
399.51	149.79
399.70	95.96
399.90	166.18
400.09	126.39
400.28	205.97
400.47	100.64
400.67	170.86
400.86	243.42
401.05	248.10
401.24	182.56
401.44	177.88
401.63	149.79
401.82	189.58
402.01	154.48
402.21	191.92
402.40	114.69
402.59	159.16
402.78	114.69
402.97	95.96
403.17	182.56
403.36	163.84
403.55	133.41
403.74	168.52
403.93	220.01
404.13	222.35
404.32	238.73
404.51	177.88
404.70	231.71
404.89	63.19
405.09	189.58
405.28	175.54
405.47	163.84
405.66	138.09
405.85	212.99
406.05	220.01
406.24	191.92
406.43	114.69
406.62	191.92
406.81	196.60
407.00	203.63
407.20	138.09
407.39	161.50
407.58	170.86
407.77	152.13
407.96	184.90
408.15	142.77
408.34	168.52
408.54	173.20
408.73	163.84
408.92	163.84
409.11	187.24
409.30	208.31
409.49	133.41
409.68	131.07
409.87	215.33
410.07	156.82
410.26	124.05
410.45	114.69
410.64	114.69
410.83	161.50
411.02	168.52
411.21	180.22
411.40	177.88
411.59	236.39
411.78	255.12
411.98	156.82
412.17	100.64
412.36	110.01
412.55	117.03
412.74	142.77
412.93	252.78
413.12	210.65
413.31	196.60
413.50	175.54
413.69	128.73
413.88	145.11
414.07	119.37
414.26	147.45
414.45	182.56
414.64	140.43
414.83	182.56
415.02	138.09
415.22	177.88
415.41	156.82
415.60	105.32
415.79	142.77
415.98	168.52
416.17	161.50
416.36	159.16
416.55	161.50
416.74	201.29
416.93	205.97
417.12	163.84
417.31	196.60
417.50	161.50
417.69	191.92
417.88	140.43
418.07	241.08
418.26	105.32
418.45	217.67
418.64	191.92
418.83	184.90
419.02	217.67
419.21	156.82
419.39	227.03
419.58	234.05
419.77	198.95
419.96	205.97
420.15	264.48
420.34	189.58
420.53	138.09
420.72	191.92
420.91	168.52
421.10	154.48
421.29	198.95
421.48	229.37
421.67	215.33
421.86	227.03
422.05	131.07
422.24	156.82
422.43	196.60
422.61	161.50
422.80	166.18
422.99	203.63
423.18	184.90
423.37	191.92
423.56	224.69
423.75	180.22
423.94	133.41
424.13	140.43
424.32	145.11
424.50	156.82
424.69	128.73
424.88	152.13
425.07	241.08
425.26	210.65
425.45	248.10
425.64	177.88
425.83	222.35
426.01	217.67
426.20	177.88
426.39	229.37
426.58	159.16
426.77	161.50
426.96	173.20
427.15	154.48
427.33	170.86
427.52	177.88
427.71	133.41
427.90	168.52
428.09	231.71
428.28	142.77
428.46	177.88
428.65	184.90
428.84	131.07
429.03	170.86
429.22	126.39
429.40	154.48
429.59	184.90
429.78	285.55
429.97	201.29
430.16	227.03
430.34	173.20
430.53	156.82
430.72	91.28
430.91	212.99
431.10	175.54
431.28	170.86
431.47	212.99
431.66	177.88
431.85	131.07
432.03	121.71
432.22	252.78
432.41	154.48
432.60	203.63
432.79	156.82
432.97	252.78
433.16	224.69
433.35	217.67
433.54	224.69
433.72	203.63
433.91	220.01
434.10	187.24
434.28	198.95
434.47	161.50
434.66	180.22
434.85	161.50
435.03	238.73
435.22	308.95
435.41	290.23
435.59	362.78
435.78	266.82
435.97	252.78
436.16	252.78
436.34	189.58
436.53	229.37
436.72	182.56
436.90	187.24
437.09	205.97
437.28	135.75
437.46	215.33
437.65	124.05
437.84	126.39
438.02	128.73
438.21	152.13
438.40	245.76
438.58	161.50
438.77	287.89
438.96	229.37
439.14	149.79
439.33	212.99
439.52	191.92
439.70	191.92
439.89	156.82
440.08	149.79
440.26	203.63
440.45	154.48
440.63	252.78
440.82	154.48
441.01	156.82
441.19	102.98
441.38	182.56
441.57	201.29
441.75	159.16
441.94	259.80
442.12	117.03
442.31	159.16
442.50	201.29
442.68	173.20
442.87	224.69
443.05	126.39
443.24	191.92
443.43	238.73
443.61	182.56
443.80	266.82
443.98	159.16
444.17	184.90
444.35	229.37
444.54	227.03
444.73	248.10
444.91	196.60
445.10	133.41
445.28	135.75
445.47	163.84
445.65	194.26
445.84	159.16
446.02	208.31
446.21	180.22
446.39	170.86
446.58	229.37
446.77	166.18
446.95	241.08
447.14	187.24
447.32	194.26
447.51	177.88
447.69	198.95
447.88	184.90
448.06	278.52
448.25	182.56
448.43	177.88
448.62	222.35
448.80	154.48
448.99	191.92
449.17	222.35
449.36	110.01
449.54	222.35
449.73	196.60
449.91	250.44
450.10	161.50
450.28	194.26
450.46	203.63
450.65	252.78
450.83	191.92
451.02	182.56
451.20	170.86
451.39	135.75
451.57	145.11
451.76	182.56
451.94	243.42
452.13	210.65
452.31	187.24
452.49	257.46
452.68	198.95
452.86	215.33
453.05	212.99
453.23	149.79
453.42	140.43
453.60	93.62
453.78	156.82
453.97	128.73
454.15	156.82
454.34	259.80
454.52	191.92
454.70	182.56
454.89	234.05
455.07	220.01
455.26	210.65
455.44	208.31
455.62	198.95
455.81	187.24
455.99	231.71
456.17	257.46
456.36	138.09
456.54	163.84
456.73	210.65
456.91	227.03
457.09	187.24
457.28	255.12
457.46	248.10
457.64	163.84
457.83	105.32
458.01	112.35
458.19	222.35
458.38	229.37
458.56	177.88
458.74	119.37
458.93	271.50
459.11	156.82
459.29	215.33
459.48	245.76
459.66	264.48
459.84	191.92
460.03	222.35
460.21	168.52
460.39	121.71
460.57	222.35
460.76	156.82
460.94	238.73
461.12	294.91
461.31	257.46
461.49	201.29
461.67	182.56
461.85	220.01
462.04	175.54
462.22	606.20
462.40	231.71
462.59	194.26
462.77	173.20
462.95	138.09
463.13	133.41
463.32	259.80
463.50	231.71
463.68	250.44
463.86	255.12
464.05	168.52
464.23	241.08
464.41	315.97
464.59	205.97
464.78	173.20
464.96	189.58
465.14	205.97
465.32	184.90
465.50	276.18
465.69	241.08
465.87	175.54
466.05	175.54
466.23	215.33
466.41	231.71
466.60	198.95
466.78	166.18
466.96	250.44
467.14	173.20
467.32	163.84
467.51	182.56
467.69	173.20
467.87	271.50
468.05	191.92
468.23	205.97
468.41	220.01
468.60	173.20
468.78	220.01
468.96	191.92
469.14	241.08
469.32	156.82
469.50	217.67
469.69	142.77
469.87	191.92
470.05	201.29
470.23	224.69
470.41	175.54
470.59	245.76
470.77	196.60
470.95	212.99
471.14	194.26
471.32	220.01
471.50	234.05
471.68	173.20
471.86	252.78
472.04	269.16
472.22	182.56
472.40	243.42
472.58	124.05
472.77	121.71
472.95	161.50
473.13	229.37
473.31	273.84
473.49	182.56
473.67	163.84
473.85	191.92
474.03	231.71
474.21	271.50
474.39	224.69
474.57	210.65
474.75	224.69
474.93	252.78
475.12	283.20
475.30	271.50
475.48	203.63
475.66	234.05
475.84	152.13
476.02	166.18
476.20	257.46
476.38	236.39
476.56	264.48
476.74	149.79
476.92	210.65
477.10	128.73
477.28	194.26
477.46	187.24
477.64	217.67
477.82	196.60
478.00	222.35
478.18	205.97
478.36	248.10
478.54	255.12
478.72	250.44
478.90	234.05
479.08	177.88
479.26	215.33
479.44	203.63
479.62	180.22
479.80	131.07
479.98	173.20
480.16	173.20
480.34	313.63
480.52	257.46
480.70	248.10
480.88	191.92
481.06	203.63
481.24	189.58
481.41	203.63
481.59	243.42
481.77	252.78
481.95	273.84
482.13	299.59
482.31	180.22
482.49	170.86
482.67	220.01
482.85	280.86
483.03	234.05
483.21	236.39
483.39	173.20
483.57	180.22
483.74	245.76
483.92	241.08
484.10	196.60
484.28	163.84
484.46	271.50
484.64	177.88
484.82	229.37
485.00	173.20
485.18	198.95
485.35	212.99
485.53	245.76
485.71	236.39
485.89	163.84
486.07	121.71
486.25	273.84
486.43	194.26
486.61	215.33
486.78	210.65
486.96	294.91
487.14	191.92
487.32	217.67
487.50	273.84
487.68	266.82
487.85	248.10
488.03	234.05
488.21	236.39
488.39	187.24
488.57	243.42
488.75	229.37
488.92	418.96
489.10	224.69
489.28	262.14
489.46	229.37
489.64	229.37
489.81	245.76
489.99	278.52
490.17	149.79
490.35	365.12
490.53	262.14
490.70	191.92
490.88	257.46
491.06	201.29
491.24	320.65
491.41	205.97
491.59	180.22
491.77	189.58
491.95	264.48
492.13	224.69
492.30	255.12
492.48	234.05
492.66	245.76
492.84	212.99
493.01	182.56
493.19	278.52
493.37	287.89
493.54	203.63
493.72	257.46
493.90	257.46
494.08	250.44
494.25	191.92
494.43	308.95
494.61	205.97
494.79	215.33
494.96	201.29
495.14	231.71
495.32	236.39
495.49	273.84
495.67	285.55
495.85	290.23
496.02	224.69
496.20	255.12
496.38	271.50
496.55	234.05
496.73	243.42
496.91	224.69
497.09	234.05
497.26	257.46
497.44	222.35
497.62	266.82
497.79	290.23
497.97	231.71
498.14	241.08
498.32	278.52
498.50	330.02
498.67	175.54
498.85	315.97
499.03	238.73
499.20	210.65
499.38	276.18
499.56	234.05
499.73	276.18
499.91	280.86
500.08	231.71
500.26	252.78
500.44	215.33
500.61	243.42
500.79	227.03
500.97	273.84
501.14	311.29
501.32	257.46
501.49	322.99
501.67	264.48
501.84	222.35
502.02	222.35
502.20	215.33
502.37	224.69
502.55	234.05
502.72	208.31
502.90	262.14
503.07	241.08
503.25	248.10
503.43	215.33
503.60	227.03
503.78	236.39
503.95	262.14
504.13	294.91
504.30	262.14
504.48	198.95
504.65	222.35
504.83	262.14
505.01	241.08
505.18	266.82
505.36	280.86
505.53	248.10
505.71	285.55
505.88	215.33
506.06	276.18
506.23	187.24
506.41	266.82
506.58	294.91
506.76	334.70
506.93	245.76
507.11	280.86
507.28	304.27
507.46	257.46
507.63	245.76
507.81	217.67
507.98	177.88
508.16	184.90
508.33	236.39
508.50	322.99
508.68	222.35
508.85	252.78
509.03	241.08
509.20	280.86
509.38	220.01
509.55	231.71
509.73	301.93
509.90	278.52
510.08	217.67
510.25	250.44
510.42	276.18
510.60	227.03
510.77	264.48
510.95	315.97
511.12	229.37
511.30	283.20
511.47	330.02
511.64	320.65
511.82	238.73
511.99	220.01
512.17	196.60
512.34	290.23
512.51	234.05
512.69	257.46
512.86	301.93
513.04	276.18
513.21	287.89
513.38	301.93
513.56	273.84
513.73	264.48
513.90	198.95
514.08	294.91
514.25	227.03
514.43	290.23
514.60	227.03
514.77	243.42
514.95	262.14
515.12	259.80
515.29	238.73
515.47	271.50
515.64	283.20
515.81	220.01
515.99	259.80
516.16	341.72
516.33	229.37
516.51	217.67
516.68	259.80
516.85	222.35
517.03	191.92
517.20	208.31
517.37	292.57
517.54	285.55
517.72	301.93
517.89	257.46
518.06	166.18
518.24	217.67
518.41	301.93
518.58	325.33
518.75	229.37
518.93	283.20
519.10	304.27
519.27	262.14
519.45	308.95
519.62	255.12
519.79	264.48
519.96	294.91
520.14	280.86
520.31	301.93
520.48	262.14
520.65	241.08
520.83	297.25
521.00	301.93
521.17	351.08
521.34	238.73
521.52	238.73
521.69	259.80
521.86	250.44
522.03	308.95
522.20	301.93
522.38	283.20
522.55	278.52
522.72	229.37
522.89	234.05
523.07	330.02
523.24	205.97
523.41	299.59
523.58	252.78
523.75	245.76
523.92	283.20
524.10	224.69
524.27	210.65
524.44	315.97
524.61	367.46
524.78	198.95
524.96	231.71
525.13	257.46
525.30	322.99
525.47	229.37
525.64	201.29
525.81	217.67
525.98	299.59
526.16	280.86
526.33	266.82
526.50	196.60
526.67	229.37
526.84	203.63
527.01	212.99
527.18	236.39
527.36	320.65
527.53	301.93
527.70	290.23
527.87	283.20
528.04	369.80
528.21	227.03
528.38	170.86
528.55	292.57
528.72	273.84
528.89	290.23
529.07	299.59
529.24	236.39
529.41	259.80
529.58	236.39
529.75	327.68
529.92	234.05
530.09	243.42
530.26	238.73
530.43	262.14
530.60	245.76
530.77	269.16
530.94	313.63
531.11	259.80
531.28	224.69
531.46	243.42
531.63	257.46
531.80	243.42
531.97	306.61
532.14	346.40
532.31	341.72
532.48	325.33
532.65	304.27
532.82	327.68
532.99	346.40
533.16	344.06
533.33	283.20
533.50	341.72
533.67	327.68
533.84	404.91
534.01	409.59
534.18	355.76
534.35	297.25
534.52	238.73
534.69	313.63
534.86	208.31
535.03	266.82
535.20	290.23
535.37	290.23
535.54	315.97
535.71	287.89
535.88	353.42
536.05	229.37
536.22	271.50
536.38	280.86
536.55	196.60
536.72	322.99
536.89	248.10
537.06	252.78
537.23	264.48
537.40	287.89
537.57	287.89
537.74	299.59
537.91	318.31
538.08	266.82
538.25	355.76
538.42	351.08
538.59	351.08
538.75	313.63
538.92	355.76
539.09	374.49
539.26	318.31
539.43	477.47
539.60	753.65
539.77	1146.86
539.94	1165.59
540.11	896.43
540.28	692.80
540.44	451.72
540.61	447.04
540.78	503.22
540.95	395.55
541.12	433.00
541.29	414.27
541.46	503.22
541.62	479.81
541.79	514.92
541.96	404.91
542.13	500.87
542.30	491.51
542.47	470.45
542.63	376.83
542.80	386.19
542.97	521.94
543.14	404.91
543.31	468.11
543.48	498.53
543.64	351.08
543.81	407.25
543.98	444.70
544.15	472.79
544.32	428.32
544.48	435.34
544.65	514.92
544.82	465.77
544.99	365.12
545.16	437.68
545.32	456.40
545.49	615.56
545.66	664.71
545.83	706.84
546.00	681.10
546.16	575.77
546.33	510.24
546.50	407.25
546.67	454.06
546.83	421.30
547.00	395.55
547.17	358.10
547.34	320.65
547.50	376.83
547.67	383.85
547.84	341.72
548.00	421.30
548.17	304.27
548.34	341.72
548.51	383.85
548.67	433.00
548.84	341.72
549.01	348.74
549.18	320.65
549.34	339.38
549.51	365.12
549.68	367.46
549.84	318.31
550.01	264.48
550.18	369.80
550.34	365.12
550.51	311.29
550.68	297.25
550.84	322.99
551.01	292.57
551.18	315.97
551.34	292.57
551.51	290.23
551.68	301.93
551.84	306.61
552.01	330.02
552.18	292.57
552.34	278.52
552.51	259.80
552.68	341.72
552.84	276.18
553.01	283.20
553.18	313.63
553.34	266.82
553.51	248.10
553.67	273.84
553.84	348.74
554.01	205.97
554.17	243.42
554.34	297.25
554.51	250.44
554.67	346.40
554.84	257.46
555.00	374.49
555.17	332.36
555.33	290.23
555.50	250.44
555.67	280.86
555.83	285.55
556.00	264.48
556.16	454.06
556.33	348.74
556.50	299.59
556.66	372.15
556.83	224.69
556.99	220.01
557.16	210.65
557.32	170.86
557.49	180.22
557.65	212.99
557.82	262.14
557.98	210.65
558.15	138.09
558.32	215.33
558.48	280.86
558.65	280.86
558.81	283.20
558.98	243.42
559.14	262.14
559.31	248.10
559.47	259.80
559.64	196.60
559.80	241.08
559.97	276.18
560.13	229.37
560.30	320.65
560.46	264.48
560.63	353.42
560.79	227.03
560.96	334.70
561.12	318.31
561.29	280.86
561.45	264.48
561.61	308.95
561.78	290.23
561.94	283.20
562.11	285.55
562.27	299.59
562.44	212.99
562.60	276.18
562.77	299.59
562.93	339.38
563.10	224.69
563.26	243.42
563.42	241.08
563.59	241.08
563.75	227.03
563.92	341.72
564.08	278.52
564.24	262.14
564.41	306.61
564.57	271.50
564.74	248.10
564.90	304.27
565.07	367.46
565.23	259.80
565.39	306.61
565.56	322.99
565.72	229.37
565.88	264.48
566.05	266.82
566.21	320.65
566.38	280.86
566.54	229.37
566.70	285.55
566.87	304.27
567.03	234.05
567.19	285.55
567.36	334.70
567.52	285.55
567.68	248.10
567.85	325.33
568.01	313.63
568.17	325.33
568.34	238.73
568.50	215.33
568.66	250.44
568.83	372.15
568.99	276.18
569.15	353.42
569.32	269.16
569.48	250.44
569.64	210.65
569.81	243.42
569.97	198.95
570.13	243.42
570.30	292.57
570.46	257.46
570.62	262.14
570.78	269.16
570.95	212.99
571.11	224.69
571.27	241.08
571.43	264.48
571.60	273.84
571.76	208.31
571.92	243.42
572.09	224.69
572.25	255.12
572.41	269.16
572.57	283.20
572.74	285.55
572.90	227.03
573.06	294.91
573.22	269.16
573.38	292.57
573.55	297.25
573.71	341.72
573.87	339.38
574.03	220.01
574.20	203.63
574.36	285.55
574.52	276.18
574.68	348.74
574.84	339.38
575.01	278.52
575.17	271.50
575.33	351.08
575.49	297.25
575.65	250.44
575.82	346.40
575.98	449.38
576.14	571.09
576.30	594.50
576.46	477.47
576.62	435.34
576.79	463.43
576.95	369.80
577.11	325.33
577.27	423.64
577.43	269.16
577.59	308.95
577.75	369.80
577.92	306.61
578.08	327.68
578.24	337.04
578.40	306.61
578.56	451.72
578.72	362.78
578.88	407.25
579.04	341.72
579.21	318.31
579.37	285.55
579.53	290.23
579.69	337.04
579.85	304.27
580.01	425.98
580.17	449.38
580.33	330.02
580.49	397.89
580.65	390.87
580.82	287.89
580.98	341.72
581.14	273.84
581.30	386.19
581.46	402.57
581.62	484.49
581.78	521.94
581.94	568.75
582.10	411.93
582.26	442.36
582.42	430.66
582.58	449.38
582.74	402.57
582.90	372.15
583.06	442.36
583.22	437.68
583.38	416.62
583.54	468.11
583.70	592.16
583.86	540.66
584.02	601.52
584.18	770.04
584.34	887.06
584.50	2017.54
584.66	14263.22
584.82	39246.10
584.98	55550.27
585.14	51311.56
585.30	33123.26
585.46	19672.20
585.62	12163.76
585.78	5561.11
585.94	2403.73
586.10	1242.82
586.26	772.38
586.42	781.74
586.58	631.94
586.74	491.51
586.90	575.77
587.06	538.32
587.22	512.58
587.38	554.71
587.54	814.51
587.70	2214.15
587.86	3932.10
588.02	4318.29
588.18	3215.90
588.34	2141.59
588.49	1446.45
588.65	887.06
588.81	599.18
588.97	402.57
589.13	353.42
589.29	388.53
589.45	367.46
589.61	397.89
589.77	374.49
589.93	416.62
590.08	456.40
590.24	411.93
590.40	322.99
590.56	468.11
590.72	257.46
590.88	365.12
591.04	383.85
591.20	320.65
591.35	386.19
591.51	353.42
591.67	355.76
591.83	348.74
591.99	381.51
592.15	390.87
592.31	367.46
592.46	383.85
592.62	320.65
592.78	318.31
592.94	358.10
593.10	344.06
593.26	393.21
593.41	301.93
593.57	381.51
593.73	557.05
593.89	1849.02
594.05	4571.07
594.20	7040.33
594.36	6967.77
594.52	4760.65
594.68	2986.52
594.84	2073.71
594.99	1158.57
595.15	624.92
595.31	433.00
595.47	409.59
595.62	346.40
595.78	306.61
595.94	266.82
596.10	379.17
596.25	344.06
596.41	386.19
596.57	276.18
596.73	280.86
596.88	463.43
597.04	940.90
597.20	1636.03
597.36	1837.32
597.51	1465.18
597.67	1050.90
597.83	737.27
597.99	559.39
598.14	400.23
598.30	299.59
598.46	330.02
598.61	362.78
598.77	360.44
598.93	269.16
599.09	339.38
599.24	294.91
599.40	397.89
599.56	311.29
599.71	341.72
599.87	339.38
600.03	341.72
600.18	297.25
600.34	255.12
600.50	238.73
600.65	250.44
600.81	318.31
600.97	299.59
601.12	280.86
601.28	266.82
601.44	322.99
601.59	320.65
601.75	299.59
601.91	245.76
602.06	271.50
602.22	381.51
602.37	528.96
602.53	1268.57
602.69	1811.57
602.84	2008.18
603.00	1507.30
603.16	976.00
603.31	760.67
603.47	578.11
603.62	351.08
603.78	301.93
603.94	306.61
604.09	276.18
604.25	252.78
604.40	234.05
604.56	351.08
604.71	292.57
604.87	308.95
605.03	297.25
605.18	294.91
605.34	308.95
605.49	330.02
605.65	322.99
605.80	339.38
605.96	294.91
606.12	266.82
606.27	372.15
606.43	325.33
606.58	365.12
606.74	667.05
606.89	2239.89
607.05	4627.24
607.20	6033.90
607.36	5097.69
607.51	3595.06
607.67	2497.35
607.82	1696.89
607.98	994.73
608.13	613.22
608.29	463.43
608.44	477.47
608.60	435.34
608.75	465.77
608.91	868.34
609.06	3637.19
609.22	7632.49
609.37	10162.61
609.53	9034.47
609.68	6331.15
609.84	4081.89
609.99	2864.82
610.15	1629.01
610.30	957.28
610.46	779.40
610.61	765.36
610.76	798.12
610.92	802.80
611.07	835.57
611.23	957.28
611.38	896.43
611.54	760.67
611.69	758.33
611.84	641.31
612.00	519.60
612.15	629.60
612.31	557.05
612.46	667.05
612.62	772.38
612.77	671.73
612.92	676.41
613.08	695.14
613.23	547.69
613.39	606.20
613.54	727.91
613.69	3213.56
613.85	9151.49
614.00	15644.14
614.15	17165.49
614.31	11950.78
614.46	8049.10
614.62	5383.23
614.77	3215.90
614.92	1692.21
615.08	812.17
615.23	650.67
615.38	482.15
615.54	414.27
615.69	669.39
615.84	1947.33
616.00	3468.67
616.15	4486.81
616.30	3714.43
616.46	2661.19
616.61	1746.04
616.76	1301.34
616.92	814.51
617.07	517.26
617.22	379.17
617.37	344.06
617.53	369.80
617.68	372.15
617.83	266.82
617.99	393.21
618.14	400.23
618.29	390.87
618.45	236.39
618.60	297.25
618.75	245.76
618.90	252.78
619.06	318.31
619.21	334.70
619.36	320.65
619.51	306.61
619.67	297.25
619.82	308.95
619.97	311.29
620.12	332.36
620.28	231.71
620.43	311.29
620.58	390.87
620.73	297.25
620.89	301.93
621.04	531.30
621.19	1207.72
621.34	2132.23
621.49	2623.74
621.65	2438.84
621.80	1748.38
621.95	1266.23
622.10	954.94
622.25	575.77
622.41	418.96
622.56	421.30
622.71	327.68
622.86	276.18
623.01	212.99
623.16	283.20
623.32	236.39
623.47	315.97
623.62	269.16
623.77	259.80
623.92	315.97
624.07	266.82
624.23	257.46
624.38	283.20
624.53	255.12
624.68	273.84
624.83	358.10
624.98	353.42
625.13	325.33
625.29	299.59
625.44	308.95
625.59	332.36
625.74	393.21
625.89	411.93
626.04	1654.76
626.19	4697.46
626.34	7887.61
626.49	9071.92
626.65	6628.40
626.80	4390.84
626.95	3063.76
627.10	1912.22
627.25	1060.26
627.40	664.71
627.55	393.21
627.70	407.25
627.85	360.44
628.00	299.59
628.15	313.63
628.30	273.84
628.45	313.63
628.60	297.25
628.76	273.84
628.91	330.02
629.06	334.70
629.21	297.25
629.36	358.10
629.51	285.55
629.66	306.61
629.81	390.87
629.96	901.11
630.11	1879.45
630.26	2293.72
630.41	2225.85
630.56	1591.56
630.71	1060.26
630.86	896.43
631.01	599.18
631.16	468.11
631.31	393.21
631.46	348.74
631.61	344.06
631.76	292.57
631.91	280.86
632.06	334.70
632.21	287.89
632.36	341.72
632.51	334.70
632.66	414.27
632.81	786.42
632.96	2457.56
633.10	4791.08
633.25	6207.10
633.40	4938.53
633.55	3609.11
633.70	2396.71
633.85	1659.44
634.00	877.70
634.15	573.43
634.30	379.17
634.45	264.48
634.60	238.73
634.75	236.39
634.90	271.50
635.05	245.76
635.19	259.80
635.34	313.63
635.49	280.86
635.64	252.78
635.79	257.46
635.94	287.89
636.09	327.68
636.24	320.65
636.39	292.57
636.53	304.27
636.68	294.91
636.83	280.86
636.98	348.74
637.13	301.93
637.28	273.84
637.43	353.42
637.57	571.09
637.72	2087.76
637.87	5973.05
638.02	9996.43
638.17	11377.34
638.32	8234.00
638.46	5628.99
638.61	3906.35
638.76	2448.20
638.91	1139.84
639.06	681.10
639.20	526.62
639.35	456.40
639.50	723.23
639.65	3028.65
639.80	9369.16
639.94	15096.46
640.09	17310.60
640.24	12901.03
640.39	8489.12
640.54	5914.53
640.68	3536.55
640.83	1755.40
640.98	854.30
641.13	470.45
641.27	365.12
641.42	372.15
641.57	379.17
641.72	283.20
641.86	304.27
642.01	262.14
642.16	290.23
642.31	308.95
642.45	301.93
642.60	325.33
642.75	231.71
642.90	241.08
643.04	245.76
643.19	250.44
643.34	205.97
643.48	252.78
643.63	262.14
643.78	238.73
643.93	205.97
644.07	182.56
644.22	224.69
644.37	161.50
644.51	297.25
644.66	273.84
644.81	271.50
644.95	376.83
645.10	175.54
645.25	271.50
645.39	201.29
645.54	222.35
645.69	257.46
645.83	180.22
645.98	325.33
646.13	241.08
646.27	236.39
646.42	252.78
646.57	175.54
646.71	201.29
646.86	262.14
647.00	234.05
647.15	308.95
647.30	266.82
647.44	313.63
647.59	252.78
647.74	203.63
647.88	224.69
648.03	227.03
648.17	191.92
648.32	166.18
648.47	245.76
648.61	318.31
648.76	297.25
648.90	227.03
649.05	278.52
649.20	194.26
649.34	170.86
649.49	117.03
649.63	229.37
649.78	241.08
649.92	393.21
650.07	1240.48
650.21	3911.04
650.36	7375.03
650.51	9069.58
650.65	7433.54
650.80	5282.59
650.94	3585.70
651.09	2197.76
651.23	1130.48
651.38	643.65
651.52	475.13
651.67	299.59
651.81	320.65
651.96	269.16
652.10	315.97
652.25	252.78
652.39	259.80
652.54	299.59
652.68	507.90
652.83	1378.58
652.97	2509.05
653.12	3220.58
653.26	3063.76
653.41	2235.21
653.55	1467.52
653.70	1036.86
653.84	662.37
653.99	409.59
654.13	231.71
654.27	250.44
654.42	271.50
654.56	208.31
654.71	292.57
654.85	184.90
655.00	217.67
655.14	262.14
655.29	177.88
655.43	238.73
655.57	245.76
655.72	154.48
655.86	149.79
656.01	208.31
656.15	208.31
656.30	238.73
656.44	189.58
656.58	177.88
656.73	161.50
656.87	184.90
657.01	271.50
657.16	285.55
657.30	241.08
657.45	245.76
657.59	259.80
657.73	182.56
657.88	217.67
658.02	287.89
658.16	145.11
658.31	156.82
658.45	238.73
658.60	222.35
658.74	252.78
658.88	175.54
659.03	297.25
659.17	259.80
659.31	624.92
659.46	1944.99
659.60	3452.29
659.74	4540.64
659.89	4138.07
660.03	3089.51
660.17	2057.33
660.32	1299.00
660.46	896.43
660.60	543.00
660.74	360.44
660.89	337.04
661.03	248.10
661.17	224.69
661.32	194.26
661.46	205.97
661.60	273.84
661.74	259.80
661.89	287.89
662.03	215.33
662.17	210.65
662.31	159.16
662.46	266.82
662.60	201.29
662.74	243.42
662.88	290.23
663.03	212.99
663.17	215.33
663.31	208.31
663.45	229.37
663.60	210.65
663.74	212.99
663.88	177.88
664.02	259.80
664.17	187.24
664.31	212.99
664.45	222.35
664.59	315.97
664.73	236.39
664.88	224.69
665.02	205.97
665.16	180.22
665.30	252.78
665.44	264.48
665.59	266.82
665.73	245.76
665.87	273.84
666.01	257.46
666.15	248.10
666.29	166.18
666.44	308.95
666.58	292.57
666.72	205.97
666.86	271.50
667.00	285.55
667.14	468.11
667.28	1240.48
667.43	3501.44
667.57	6120.50
667.71	7962.50
667.85	6953.73
667.99	4985.34
668.13	3243.98
668.27	1886.47
668.41	1121.12
668.56	720.88
668.70	547.69
668.84	315.97
668.98	276.18
669.12	252.78
669.26	278.52
669.40	297.25
669.54	243.42
669.68	238.73
669.82	177.88
669.96	201.29
670.10	196.60
670.25	252.78
670.39	215.33
670.53	294.91
670.67	313.63
670.81	231.71
670.95	297.25
671.09	402.57
671.23	1401.98
671.37	2923.33
671.51	4358.08
671.65	4861.29
671.79	3812.73
671.93	2679.91
672.07	1720.29
672.21	1086.01
672.35	636.63
672.49	416.62
672.63	297.25
672.77	283.20
672.91	278.52
673.05	222.35
673.19	198.95
673.33	273.84
673.47	255.12
673.61	159.16
673.75	224.69
673.89	173.20
674.03	255.12
674.17	205.97
674.31	166.18
674.45	217.67
674.59	262.14
674.73	243.42
674.87	212.99
675.01	318.31
675.15	269.16
675.29	175.54
675.43	201.29
675.56	245.76
675.70	266.82
675.84	215.33
675.98	201.29
676.12	201.29
676.26	175.54
676.40	156.82
676.54	135.75
676.68	271.50
676.82	241.08
676.96	145.11
677.10	220.01
677.23	245.76
677.37	170.86
677.51	198.95
677.65	180.22
677.79	252.78
677.93	222.35
678.07	124.05
678.21	177.88
678.34	161.50
678.48	215.33
678.62	248.10
678.76	145.11
678.90	166.18
679.04	217.67
679.18	222.35
679.31	128.73
679.45	180.22
679.59	114.69
679.73	212.99
679.87	189.58
680.00	189.58
680.14	154.48
680.28	187.24
680.42	159.16
680.56	264.48
680.70	180.22
680.83	152.13
680.97	236.39
681.11	194.26
681.25	255.12
681.39	252.78
681.52	227.03
681.66	243.42
681.80	283.20
681.94	126.39
682.07	222.35
682.21	177.88
682.35	135.75
682.49	205.97
682.62	163.84
682.76	98.30
682.90	217.67
683.04	224.69
683.17	184.90
683.31	159.16
683.45	147.45
683.59	205.97
683.72	243.42
683.86	189.58
684.00	147.45
684.13	187.24
684.27	124.05
684.41	201.29
684.55	159.16
684.68	124.05
684.82	177.88
684.96	252.78
685.09	259.80
685.23	173.20
685.37	180.22
685.50	135.75
685.64	250.44
685.78	203.63
685.91	196.60
686.05	227.03
686.19	180.22
686.32	149.79
686.46	224.69
686.60	163.84
686.73	259.80
686.87	245.76
687.01	252.78
687.14	173.20
687.28	163.84
687.42	243.42
687.55	285.55
687.69	255.12
687.82	220.01
687.96	194.26
688.10	238.73
688.23	140.43
688.37	259.80
688.50	215.33
688.64	198.95
688.78	161.50
688.91	142.77
689.05	154.48
689.18	145.11
689.32	166.18
689.46	194.26
689.59	205.97
689.73	234.05
689.86	156.82
690.00	236.39
690.13	168.52
690.27	173.20
690.41	161.50
690.54	252.78
690.68	229.37
690.81	177.88
690.95	161.50
691.08	208.31
691.22	102.98
691.35	107.66
691.49	128.73
691.62	201.29
691.76	121.71
691.89	198.95
692.03	191.92
692.16	173.20
692.30	229.37
692.43	477.47
692.57	1476.88
692.70	2712.68
692.84	3588.04
692.97	3300.16
693.11	2366.28
693.24	1839.66
693.38	1261.55
693.51	823.87
693.65	629.60
693.78	423.64
693.92	306.61
694.05	332.36
694.19	257.46
694.32	180.22
694.45	145.11
694.59	191.92
694.72	177.88
694.86	117.03
694.99	222.35
695.13	215.33
695.26	147.45
695.39	224.69
695.53	252.78
695.66	184.90
695.80	147.45
695.93	241.08
696.07	257.46
696.20	243.42
696.33	255.12
696.47	404.91
696.60	337.04
696.73	320.65
696.87	287.89
697.00	330.02
697.14	243.42
697.27	234.05
697.40	234.05
697.54	184.90
697.67	180.22
697.80	177.88
697.94	149.79
698.07	217.67
698.21	79.58
698.34	128.73
698.47	163.84
698.61	119.37
698.74	168.52
698.87	205.97
699.01	184.90
699.14	149.79
699.27	149.79
699.40	264.48
699.54	201.29
699.67	180.22
699.80	170.86
699.94	217.67
700.07	187.24
700.20	166.18
700.34	173.20
700.47	154.48
700.60	110.01
700.73	177.88
700.87	170.86
701.00	201.29
701.13	145.11
701.26	220.01
701.40	210.65
701.53	152.13
701.66	173.20
701.79	154.48
701.93	241.08
702.06	243.42
702.19	337.04
702.32	404.91
702.46	442.36
702.59	379.17
702.72	622.58
702.85	1708.59
702.99	3981.25
703.12	5991.77
703.25	6647.12
703.38	5565.79
703.51	4514.89
703.65	3466.33
703.78	2443.52
703.91	1666.46
704.04	1118.78
704.17	688.12
704.31	458.74
704.44	348.74
704.57	285.55
704.70	212.99
704.83	173.20
704.96	234.05
705.10	205.97
705.23	184.90
>>>>>End Processed Spectral Data<<<<<
