SpectraSuite Data File
++++++++++++++++++++++++++++++++++++
Date: Fri Oct 04 11:34:03 GMT-05:00 2013
User: price-jones
Dark Spectrum Present: No
Reference Spectrum Present: No
Number of Sampled Component Spectra: 1
Spectrometers: USB2+H05261
Integration Time (usec): 100000 (USB2+H05261)
Spectra Averaged: 1 (USB2+H05261)
Boxcar Smoothing: 0 (USB2+H05261)
Correct for Electrical Dark: No (USB2+H05261)
Strobe/Lamp Enabled: No (USB2+H05261)
Correct for Detector Non-linearity: No (USB2+H05261)
Correct for Stray Light: No (USB2+H05261)
Number of Pixels in Processed Spectrum: 2048
>>>>>Begin Processed Spectral Data<<<<<
365.73	121.71
365.92	121.71
366.12	121.71
366.32	18.72
366.52	0.00
366.72	42.13
366.91	0.00
367.11	0.00
367.31	0.00
367.51	0.00
367.70	18.72
367.90	30.43
368.10	0.00
368.30	0.00
368.49	0.00
368.69	0.00
368.89	0.00
369.09	0.00
369.28	0.00
369.48	0.00
369.68	0.00
369.87	77.24
370.07	42.13
370.27	9.36
370.47	105.32
370.66	60.85
370.86	70.22
371.06	91.28
371.25	149.79
371.45	119.37
371.65	154.48
371.84	117.03
372.04	112.35
372.24	128.73
372.44	124.05
372.63	173.20
372.83	154.48
373.03	196.60
373.22	126.39
373.42	119.37
373.62	133.41
373.81	145.11
374.01	210.65
374.21	156.82
374.40	149.79
374.60	175.54
374.79	266.82
374.99	205.97
375.19	74.90
375.38	191.92
375.58	182.56
375.78	212.99
375.97	182.56
376.17	257.46
376.37	133.41
376.56	145.11
376.76	142.77
376.95	107.66
377.15	152.13
377.35	110.01
377.54	170.86
377.74	161.50
377.93	168.52
378.13	177.88
378.33	154.48
378.52	145.11
378.72	124.05
378.91	91.28
379.11	49.15
379.31	79.58
379.50	65.54
379.70	175.54
379.89	98.30
380.09	159.16
380.28	74.90
380.48	49.15
380.68	124.05
380.87	91.28
381.07	180.22
381.26	156.82
381.46	154.48
381.65	168.52
381.85	79.58
382.04	126.39
382.24	102.98
382.43	133.41
382.63	156.82
382.83	142.77
383.02	191.92
383.22	180.22
383.41	112.35
383.61	98.30
383.80	65.54
384.00	133.41
384.19	147.45
384.39	166.18
384.58	163.84
384.78	191.92
384.97	140.43
385.17	154.48
385.36	147.45
385.56	114.69
385.75	121.71
385.95	156.82
386.14	149.79
386.34	142.77
386.53	163.84
386.72	149.79
386.92	156.82
387.11	152.13
387.31	142.77
387.50	159.16
387.70	124.05
387.89	212.99
388.09	140.43
388.28	128.73
388.48	168.52
388.67	147.45
388.86	166.18
389.06	168.52
389.25	147.45
389.45	161.50
389.64	88.94
389.84	168.52
390.03	142.77
390.22	140.43
390.42	131.07
390.61	98.30
390.81	229.37
391.00	161.50
391.19	156.82
391.39	170.86
391.58	168.52
391.78	100.64
391.97	77.24
392.16	77.24
392.36	140.43
392.55	166.18
392.75	67.88
392.94	91.28
393.13	203.63
393.33	140.43
393.52	124.05
393.71	140.43
393.91	182.56
394.10	102.98
394.29	102.98
394.49	229.37
394.68	161.50
394.88	180.22
395.07	117.03
395.26	98.30
395.46	149.79
395.65	212.99
395.84	72.56
396.04	145.11
396.23	121.71
396.42	124.05
396.62	131.07
396.81	208.31
397.00	252.78
397.19	161.50
397.39	140.43
397.58	194.26
397.77	105.32
397.97	189.58
398.16	114.69
398.35	119.37
398.55	119.37
398.74	147.45
398.93	187.24
399.12	161.50
399.32	163.84
399.51	189.58
399.70	107.66
399.90	138.09
400.09	142.77
400.28	142.77
400.47	102.98
400.67	201.29
400.86	159.16
401.05	187.24
401.24	205.97
401.44	140.43
401.63	161.50
401.82	182.56
402.01	140.43
402.21	170.86
402.40	110.01
402.59	121.71
402.78	70.22
402.97	121.71
403.17	163.84
403.36	121.71
403.55	135.75
403.74	147.45
403.93	201.29
404.13	285.55
404.32	180.22
404.51	248.10
404.70	163.84
404.89	152.13
405.09	241.08
405.28	201.29
405.47	138.09
405.66	126.39
405.85	182.56
406.05	142.77
406.24	175.54
406.43	100.64
406.62	196.60
406.81	163.84
407.00	182.56
407.20	166.18
407.39	182.56
407.58	175.54
407.77	133.41
407.96	138.09
408.15	175.54
408.34	224.69
408.54	161.50
408.73	189.58
408.92	98.30
409.11	196.60
409.30	140.43
409.49	156.82
409.68	154.48
409.87	124.05
410.07	203.63
410.26	177.88
410.45	112.35
410.64	119.37
410.83	187.24
411.02	145.11
411.21	248.10
411.40	163.84
411.59	133.41
411.78	177.88
411.98	107.66
412.17	126.39
412.36	175.54
412.55	124.05
412.74	205.97
412.93	224.69
413.12	198.95
413.31	161.50
413.50	203.63
413.69	110.01
413.88	187.24
414.07	91.28
414.26	93.62
414.45	110.01
414.64	147.45
414.83	189.58
415.02	180.22
415.22	156.82
415.41	180.22
415.60	205.97
415.79	149.79
415.98	205.97
416.17	180.22
416.36	149.79
416.55	133.41
416.74	191.92
416.93	215.33
417.12	182.56
417.31	215.33
417.50	145.11
417.69	273.84
417.88	234.05
418.07	191.92
418.26	210.65
418.45	161.50
418.64	238.73
418.83	292.57
419.02	201.29
419.21	196.60
419.39	217.67
419.58	159.16
419.77	231.71
419.96	208.31
420.15	161.50
420.34	182.56
420.53	145.11
420.72	222.35
420.91	142.77
421.10	124.05
421.29	147.45
421.48	208.31
421.67	245.76
421.86	110.01
422.05	191.92
422.24	205.97
422.43	227.03
422.61	215.33
422.80	140.43
422.99	110.01
423.18	142.77
423.37	159.16
423.56	215.33
423.75	203.63
423.94	128.73
424.13	168.52
424.32	105.32
424.50	187.24
424.69	229.37
424.88	276.18
425.07	163.84
425.26	238.73
425.45	238.73
425.64	283.20
425.83	278.52
426.01	173.20
426.20	201.29
426.39	184.90
426.58	220.01
426.77	163.84
426.96	177.88
427.15	271.50
427.33	170.86
427.52	224.69
427.71	191.92
427.90	194.26
428.09	163.84
428.28	159.16
428.46	208.31
428.65	154.48
428.84	124.05
429.03	168.52
429.22	196.60
429.40	163.84
429.59	191.92
429.78	217.67
429.97	205.97
430.16	147.45
430.34	173.20
430.53	194.26
430.72	133.41
430.91	215.33
431.10	142.77
431.28	177.88
431.47	224.69
431.66	147.45
431.85	154.48
432.03	156.82
432.22	210.65
432.41	210.65
432.60	189.58
432.79	262.14
432.97	358.10
433.16	248.10
433.35	283.20
433.54	231.71
433.72	161.50
433.91	234.05
434.10	212.99
434.28	210.65
434.47	210.65
434.66	257.46
434.85	210.65
435.03	236.39
435.22	322.99
435.41	531.30
435.59	479.81
435.78	372.15
435.97	280.86
436.16	238.73
436.34	220.01
436.53	212.99
436.72	175.54
436.90	198.95
437.09	259.80
437.28	210.65
437.46	166.18
437.65	159.16
437.84	182.56
438.02	142.77
438.21	220.01
438.40	161.50
438.58	138.09
438.77	180.22
438.96	243.42
439.14	180.22
439.33	220.01
439.52	250.44
439.70	152.13
439.89	234.05
440.08	149.79
440.26	110.01
440.45	208.31
440.63	131.07
440.82	133.41
441.01	184.90
441.19	175.54
441.38	168.52
441.57	170.86
441.75	191.92
441.94	180.22
442.12	222.35
442.31	191.92
442.50	184.90
442.68	163.84
442.87	283.20
443.05	156.82
443.24	149.79
443.43	210.65
443.61	182.56
443.80	184.90
443.98	168.52
444.17	117.03
444.35	182.56
444.54	152.13
444.73	117.03
444.91	140.43
445.10	173.20
445.28	187.24
445.47	198.95
445.65	182.56
445.84	215.33
446.02	229.37
446.21	159.16
446.39	163.84
446.58	191.92
446.77	173.20
446.95	180.22
447.14	217.67
447.32	187.24
447.51	205.97
447.69	135.75
447.88	196.60
448.06	299.59
448.25	149.79
448.43	191.92
448.62	194.26
448.80	156.82
448.99	177.88
449.17	173.20
449.36	135.75
449.54	212.99
449.73	198.95
449.91	227.03
450.10	145.11
450.28	168.52
450.46	166.18
450.65	257.46
450.83	166.18
451.02	166.18
451.20	227.03
451.39	255.12
451.57	182.56
451.76	170.86
451.94	210.65
452.13	229.37
452.31	215.33
452.49	170.86
452.68	128.73
452.86	170.86
453.05	205.97
453.23	198.95
453.42	149.79
453.60	234.05
453.78	215.33
453.97	208.31
454.15	163.84
454.34	210.65
454.52	196.60
454.70	135.75
454.89	166.18
455.07	170.86
455.26	205.97
455.44	222.35
455.62	194.26
455.81	194.26
455.99	262.14
456.17	248.10
456.36	304.27
456.54	210.65
456.73	152.13
456.91	138.09
457.09	170.86
457.28	217.67
457.46	229.37
457.64	248.10
457.83	159.16
458.01	112.35
458.19	212.99
458.38	147.45
458.56	191.92
458.74	170.86
458.93	170.86
459.11	161.50
459.29	149.79
459.48	203.63
459.66	229.37
459.84	212.99
460.03	184.90
460.21	117.03
460.39	224.69
460.57	201.29
460.76	189.58
460.94	191.92
461.12	224.69
461.31	201.29
461.49	138.09
461.67	166.18
461.85	224.69
462.04	201.29
462.22	650.67
462.40	236.39
462.59	259.80
462.77	229.37
462.95	156.82
463.13	184.90
463.32	238.73
463.50	173.20
463.68	220.01
463.86	203.63
464.05	170.86
464.23	208.31
464.41	241.08
464.59	170.86
464.78	147.45
464.96	248.10
465.14	189.58
465.32	212.99
465.50	201.29
465.69	236.39
465.87	222.35
466.05	175.54
466.23	191.92
466.41	140.43
466.60	166.18
466.78	147.45
466.96	163.84
467.14	229.37
467.32	166.18
467.51	243.42
467.69	203.63
467.87	243.42
468.05	168.52
468.23	280.86
468.41	259.80
468.60	215.33
468.78	140.43
468.96	187.24
469.14	227.03
469.32	243.42
469.50	161.50
469.69	269.16
469.87	227.03
470.05	198.95
470.23	191.92
470.41	182.56
470.59	180.22
470.77	161.50
470.95	187.24
471.14	220.01
471.32	294.91
471.50	215.33
471.68	196.60
471.86	145.11
472.04	135.75
472.22	163.84
472.40	191.92
472.58	196.60
472.77	191.92
472.95	234.05
473.13	229.37
473.31	248.10
473.49	224.69
473.67	105.32
473.85	285.55
474.03	264.48
474.21	145.11
474.39	234.05
474.57	205.97
474.75	203.63
474.93	212.99
475.12	220.01
475.30	224.69
475.48	142.77
475.66	152.13
475.84	208.31
476.02	156.82
476.20	189.58
476.38	224.69
476.56	320.65
476.74	231.71
476.92	117.03
477.10	175.54
477.28	205.97
477.46	189.58
477.64	182.56
477.82	198.95
478.00	222.35
478.18	273.84
478.36	245.76
478.54	203.63
478.72	175.54
478.90	203.63
479.08	280.86
479.26	163.84
479.44	236.39
479.62	243.42
479.80	131.07
479.98	142.77
480.16	222.35
480.34	224.69
480.52	252.78
480.70	191.92
480.88	194.26
481.06	241.08
481.24	229.37
481.41	248.10
481.59	241.08
481.77	229.37
481.95	184.90
482.13	191.92
482.31	266.82
482.49	173.20
482.67	227.03
482.85	231.71
483.03	273.84
483.21	208.31
483.39	299.59
483.57	189.58
483.74	243.42
483.92	238.73
484.10	255.12
484.28	273.84
484.46	294.91
484.64	220.01
484.82	238.73
485.00	320.65
485.18	304.27
485.35	243.42
485.53	215.33
485.71	276.18
485.89	187.24
486.07	278.52
486.25	285.55
486.43	301.93
486.61	243.42
486.78	273.84
486.96	210.65
487.14	250.44
487.32	241.08
487.50	243.42
487.68	297.25
487.85	208.31
488.03	290.23
488.21	264.48
488.39	278.52
488.57	273.84
488.75	269.16
488.92	528.96
489.10	250.44
489.28	215.33
489.46	322.99
489.64	292.57
489.81	292.57
489.99	252.78
490.17	248.10
490.35	318.31
490.53	273.84
490.70	252.78
490.88	215.33
491.06	220.01
491.24	259.80
491.41	252.78
491.59	259.80
491.77	301.93
491.95	238.73
492.13	278.52
492.30	241.08
492.48	250.44
492.66	332.36
492.84	252.78
493.01	203.63
493.19	245.76
493.37	301.93
493.54	248.10
493.72	234.05
493.90	294.91
494.08	236.39
494.25	259.80
494.43	273.84
494.61	224.69
494.79	191.92
494.96	224.69
495.14	234.05
495.32	236.39
495.49	255.12
495.67	245.76
495.85	208.31
496.02	220.01
496.20	252.78
496.38	297.25
496.55	297.25
496.73	299.59
496.91	299.59
497.09	360.44
497.26	301.93
497.44	325.33
497.62	283.20
497.79	262.14
497.97	224.69
498.14	292.57
498.32	236.39
498.50	255.12
498.67	271.50
498.85	278.52
499.03	212.99
499.20	332.36
499.38	224.69
499.56	236.39
499.73	287.89
499.91	308.95
500.08	290.23
500.26	304.27
500.44	243.42
500.61	297.25
500.79	262.14
500.97	264.48
501.14	301.93
501.32	227.03
501.49	285.55
501.67	273.84
501.84	259.80
502.02	276.18
502.20	287.89
502.37	280.86
502.55	236.39
502.72	231.71
502.90	262.14
503.07	306.61
503.25	287.89
503.43	287.89
503.60	255.12
503.78	283.20
503.95	264.48
504.13	212.99
504.30	264.48
504.48	212.99
504.65	297.25
504.83	245.76
505.01	301.93
505.18	248.10
505.36	250.44
505.53	234.05
505.71	194.26
505.88	264.48
506.06	255.12
506.23	121.71
506.41	297.25
506.58	255.12
506.76	287.89
506.93	294.91
507.11	234.05
507.28	236.39
507.46	257.46
507.63	278.52
507.81	306.61
507.98	358.10
508.16	283.20
508.33	299.59
508.50	315.97
508.68	191.92
508.85	271.50
509.03	259.80
509.20	163.84
509.38	290.23
509.55	273.84
509.73	311.29
509.90	304.27
510.08	180.22
510.25	397.89
510.42	313.63
510.60	266.82
510.77	236.39
510.95	229.37
511.12	243.42
511.30	362.78
511.47	297.25
511.64	271.50
511.82	259.80
511.99	227.03
512.17	238.73
512.34	304.27
512.51	208.31
512.69	266.82
512.86	241.08
513.04	259.80
513.21	344.06
513.38	315.97
513.56	276.18
513.73	290.23
513.90	276.18
514.08	287.89
514.25	271.50
514.43	222.35
514.60	241.08
514.77	252.78
514.95	294.91
515.12	166.18
515.29	210.65
515.47	231.71
515.64	217.67
515.81	301.93
515.99	285.55
516.16	292.57
516.33	322.99
516.51	306.61
516.68	245.76
516.85	294.91
517.03	198.95
517.20	257.46
517.37	278.52
517.54	276.18
517.72	194.26
517.89	346.40
518.06	236.39
518.24	264.48
518.41	348.74
518.58	196.60
518.75	236.39
518.93	245.76
519.10	255.12
519.27	250.44
519.45	280.86
519.62	294.91
519.79	308.95
519.96	210.65
520.14	273.84
520.31	341.72
520.48	238.73
520.65	248.10
520.83	252.78
521.00	327.68
521.17	220.01
521.34	299.59
521.52	271.50
521.69	255.12
521.86	311.29
522.03	330.02
522.20	367.46
522.38	278.52
522.55	346.40
522.72	262.14
522.89	217.67
523.07	290.23
523.24	285.55
523.41	250.44
523.58	315.97
523.75	198.95
523.92	252.78
524.10	273.84
524.27	243.42
524.44	238.73
524.61	318.31
524.78	208.31
524.96	332.36
525.13	301.93
525.30	341.72
525.47	332.36
525.64	306.61
525.81	299.59
525.98	299.59
526.16	285.55
526.33	332.36
526.50	241.08
526.67	229.37
526.84	278.52
527.01	269.16
527.18	273.84
527.36	236.39
527.53	297.25
527.70	351.08
527.87	264.48
528.04	290.23
528.21	266.82
528.38	287.89
528.55	266.82
528.72	372.15
528.89	318.31
529.07	236.39
529.24	266.82
529.41	306.61
529.58	337.04
529.75	292.57
529.92	304.27
530.09	290.23
530.26	322.99
530.43	294.91
530.60	294.91
530.77	285.55
530.94	322.99
531.11	294.91
531.28	273.84
531.46	245.76
531.63	278.52
531.80	315.97
531.97	234.05
532.14	285.55
532.31	287.89
532.48	287.89
532.65	383.85
532.82	418.96
532.99	381.51
533.16	367.46
533.33	339.38
533.50	339.38
533.67	379.17
533.84	477.47
534.01	566.41
534.18	440.02
534.35	428.32
534.52	386.19
534.69	322.99
534.86	339.38
535.03	245.76
535.20	327.68
535.37	301.93
535.54	332.36
535.71	332.36
535.88	315.97
536.05	241.08
536.22	266.82
536.38	332.36
536.55	234.05
536.72	344.06
536.89	365.12
537.06	262.14
537.23	299.59
537.40	292.57
537.57	273.84
537.74	311.29
537.91	308.95
538.08	304.27
538.25	304.27
538.42	418.96
538.59	325.33
538.75	231.71
538.92	365.12
539.09	367.46
539.26	418.96
539.43	594.50
539.60	1135.16
539.77	1767.10
539.94	1687.53
540.11	1235.80
540.28	901.11
540.44	678.76
540.61	571.09
540.78	507.90
540.95	538.32
541.12	631.94
541.29	578.11
541.46	669.39
541.62	545.34
541.79	671.73
541.96	547.69
542.13	543.00
542.30	535.98
542.47	493.85
542.63	503.22
542.80	486.83
542.97	514.92
543.14	514.92
543.31	566.41
543.48	550.03
543.64	559.39
543.81	521.94
543.98	484.49
544.15	496.19
544.32	526.62
544.48	528.96
544.65	418.96
544.82	477.47
544.99	472.79
545.16	514.92
545.32	547.69
545.49	751.31
545.66	922.17
545.83	1090.69
546.00	926.85
546.16	765.36
546.33	568.75
546.50	503.22
546.67	540.66
546.83	418.96
547.00	468.11
547.17	444.70
547.34	379.17
547.50	404.91
547.67	470.45
547.84	388.53
548.00	449.38
548.17	428.32
548.34	449.38
548.51	475.13
548.67	442.36
548.84	348.74
549.01	437.68
549.18	348.74
549.34	390.87
549.51	322.99
549.68	341.72
549.84	360.44
550.01	351.08
550.18	447.04
550.34	437.68
550.51	315.97
550.68	379.17
550.84	400.23
551.01	299.59
551.18	337.04
551.34	236.39
551.51	327.68
551.68	339.38
551.84	367.46
552.01	334.70
552.18	283.20
552.34	358.10
552.51	341.72
552.68	337.04
552.84	327.68
553.01	304.27
553.18	299.59
553.34	269.16
553.51	346.40
553.67	259.80
553.84	355.76
554.01	322.99
554.17	269.16
554.34	264.48
554.51	315.97
554.67	304.27
554.84	292.57
555.00	304.27
555.17	320.65
555.33	346.40
555.50	271.50
555.67	379.17
555.83	334.70
556.00	313.63
556.16	463.43
556.33	297.25
556.50	304.27
556.66	241.08
556.83	227.03
556.99	269.16
557.16	276.18
557.32	276.18
557.49	194.26
557.65	278.52
557.82	301.93
557.98	311.29
558.15	241.08
558.32	203.63
558.48	290.23
558.65	285.55
558.81	287.89
558.98	252.78
559.14	294.91
559.31	306.61
559.47	283.20
559.64	231.71
559.80	224.69
559.97	264.48
560.13	243.42
560.30	252.78
560.46	243.42
560.63	337.04
560.79	348.74
560.96	327.68
561.12	222.35
561.29	311.29
561.45	262.14
561.61	252.78
561.78	280.86
561.94	252.78
562.11	266.82
562.27	290.23
562.44	299.59
562.60	229.37
562.77	285.55
562.93	280.86
563.10	273.84
563.26	262.14
563.42	280.86
563.59	299.59
563.75	301.93
563.92	241.08
564.08	290.23
564.24	297.25
564.41	341.72
564.57	224.69
564.74	224.69
564.90	269.16
565.07	313.63
565.23	290.23
565.39	322.99
565.56	344.06
565.72	306.61
565.88	285.55
566.05	259.80
566.21	365.12
566.38	292.57
566.54	266.82
566.70	271.50
566.87	231.71
567.03	276.18
567.19	308.95
567.36	271.50
567.52	262.14
567.68	332.36
567.85	318.31
568.01	259.80
568.17	220.01
568.34	269.16
568.50	257.46
568.66	255.12
568.83	318.31
568.99	231.71
569.15	360.44
569.32	229.37
569.48	301.93
569.64	301.93
569.81	273.84
569.97	280.86
570.13	311.29
570.30	269.16
570.46	257.46
570.62	231.71
570.78	304.27
570.95	294.91
571.11	355.76
571.27	330.02
571.43	292.57
571.60	294.91
571.76	257.46
571.92	245.76
572.09	252.78
572.25	315.97
572.41	231.71
572.57	297.25
572.74	308.95
572.90	187.24
573.06	262.14
573.22	308.95
573.38	285.55
573.55	322.99
573.71	297.25
573.87	238.73
574.03	257.46
574.20	283.20
574.36	322.99
574.52	351.08
574.68	425.98
574.84	327.68
575.01	306.61
575.17	351.08
575.33	259.80
575.49	306.61
575.65	362.78
575.82	299.59
575.98	608.54
576.14	681.10
576.30	751.31
576.46	688.12
576.62	636.63
576.79	557.05
576.95	528.96
577.11	454.06
577.27	367.46
577.43	393.21
577.59	400.23
577.75	346.40
577.92	292.57
578.08	259.80
578.24	304.27
578.40	418.96
578.56	381.51
578.72	463.43
578.88	477.47
579.04	479.81
579.21	414.27
579.37	351.08
579.53	379.17
579.69	397.89
579.85	449.38
580.01	496.19
580.17	414.27
580.33	444.70
580.49	463.43
580.65	393.21
580.82	411.93
580.98	397.89
581.14	447.04
581.30	477.47
581.46	517.26
581.62	631.94
581.78	669.39
581.94	709.18
582.10	540.66
582.26	500.87
582.42	589.82
582.58	535.98
582.74	484.49
582.90	519.60
583.06	514.92
583.22	500.87
583.38	655.35
583.54	601.52
583.70	758.33
583.86	770.04
584.02	849.61
584.18	1004.09
584.34	1343.47
584.50	3185.47
584.66	22141.47
584.82	56818.84
584.98	65535.00
585.14	64362.39
585.30	51365.40
585.46	31470.84
585.62	19695.61
585.78	9121.07
585.94	3529.53
586.10	1729.66
586.26	1188.99
586.42	985.37
586.58	763.01
586.74	739.61
586.90	727.91
587.06	812.17
587.22	723.23
587.38	662.37
587.54	1228.78
587.70	3527.19
587.86	6019.86
588.02	7019.27
588.18	4983.00
588.34	3215.90
588.49	2057.33
588.65	1383.26
588.81	739.61
588.97	531.30
589.13	444.70
589.29	425.98
589.45	411.93
589.61	367.46
589.77	507.90
589.93	475.13
590.08	503.22
590.24	580.45
590.40	493.85
590.56	463.43
590.72	440.02
590.88	421.30
591.04	444.70
591.20	390.87
591.35	425.98
591.51	430.66
591.67	430.66
591.83	369.80
591.99	257.46
592.15	411.93
592.31	411.93
592.46	425.98
592.62	367.46
592.78	430.66
592.94	397.89
593.10	461.09
593.26	440.02
593.41	470.45
593.57	503.22
593.73	575.77
593.89	2750.13
594.05	7534.18
594.20	11887.58
594.36	11323.51
594.52	7592.70
594.68	4739.58
594.84	3197.17
594.99	1820.94
595.15	912.81
595.31	596.84
595.47	531.30
595.62	337.04
595.78	374.49
595.94	435.34
596.10	447.04
596.25	465.77
596.41	472.79
596.57	421.30
596.73	362.78
596.88	561.73
597.04	1362.19
597.20	2558.21
597.36	3007.59
597.51	2260.96
597.67	1549.43
597.83	1116.44
597.99	791.10
598.14	510.24
598.30	472.79
598.46	498.53
598.61	461.09
598.77	383.85
598.93	411.93
599.09	341.72
599.24	430.66
599.40	421.30
599.56	355.76
599.71	353.42
599.87	393.21
600.03	283.20
600.18	358.10
600.34	322.99
600.50	341.72
600.65	238.73
600.81	271.50
600.97	276.18
601.12	264.48
601.28	353.42
601.44	334.70
601.59	280.86
601.75	308.95
601.91	351.08
602.06	320.65
602.22	386.19
602.37	840.25
602.53	1727.32
602.69	2862.48
602.84	3033.33
603.00	2214.15
603.16	1472.20
603.31	1097.71
603.47	835.57
603.62	601.52
603.78	437.68
603.94	332.36
604.09	360.44
604.25	294.91
604.40	290.23
604.56	325.33
604.71	334.70
604.87	407.25
605.03	271.50
605.18	315.97
605.34	337.04
605.49	332.36
605.65	372.15
605.80	285.55
605.96	341.72
606.12	400.23
606.27	397.89
606.43	411.93
606.58	477.47
606.74	858.98
606.89	3302.50
607.05	7382.05
607.20	10190.69
607.36	8336.99
607.51	5727.29
607.67	3674.64
607.82	2499.69
607.98	1427.73
608.13	821.53
608.29	543.00
608.44	589.82
608.60	521.94
608.75	650.67
608.91	1177.29
609.06	5191.31
609.22	12409.52
609.37	17654.66
609.53	15496.69
609.68	10373.25
609.84	6806.28
609.99	4746.61
610.15	2766.51
610.30	1554.12
610.46	1027.50
610.61	1076.65
610.76	1146.86
610.92	1174.95
611.07	1324.74
611.23	1352.83
611.38	1235.80
611.54	1104.73
611.69	1006.43
611.84	915.15
612.00	748.97
612.15	739.61
612.31	896.43
612.46	875.36
612.62	990.05
612.77	1078.99
612.92	840.25
613.08	840.25
613.23	706.84
613.39	779.40
613.54	973.66
613.69	4793.42
613.85	15063.69
614.00	25415.88
614.15	28018.55
614.31	19360.91
614.46	12989.97
614.62	8631.90
614.77	5345.78
614.92	2443.52
615.08	1291.98
615.23	884.72
615.38	697.48
615.54	641.31
615.69	929.19
615.84	2953.76
616.00	5701.54
616.15	7379.71
616.30	5940.28
616.46	4196.58
616.61	2738.43
616.76	2071.37
616.92	1210.06
617.07	655.35
617.22	489.17
617.37	435.34
617.53	440.02
617.68	409.59
617.83	390.87
617.99	456.40
618.14	411.93
618.29	416.62
618.45	299.59
618.60	334.70
618.75	294.91
618.90	341.72
619.06	294.91
619.21	301.93
619.36	351.08
619.51	311.29
619.67	278.52
619.82	299.59
619.97	313.63
620.12	320.65
620.28	411.93
620.43	341.72
620.58	430.66
620.73	414.27
620.89	381.51
621.04	454.06
621.19	1610.29
621.34	3225.26
621.49	4306.59
621.65	3957.85
621.80	2700.98
621.95	1980.09
622.10	1378.58
622.25	842.59
622.41	524.28
622.56	365.12
622.71	346.40
622.86	407.25
623.01	320.65
623.16	320.65
623.32	407.25
623.47	236.39
623.62	280.86
623.77	390.87
623.92	294.91
624.07	348.74
624.23	334.70
624.38	241.08
624.53	337.04
624.68	337.04
624.83	425.98
624.98	341.72
625.13	358.10
625.29	379.17
625.44	365.12
625.59	383.85
625.74	414.27
625.89	606.20
626.04	2286.70
626.19	7000.54
626.34	12428.24
626.49	14616.65
626.65	10780.51
626.80	7304.81
626.95	4884.70
627.10	3059.08
627.25	1533.05
627.40	765.36
627.55	557.05
627.70	367.46
627.85	442.36
628.00	304.27
628.15	271.50
628.30	269.16
628.45	299.59
628.60	337.04
628.76	374.49
628.91	355.76
629.06	365.12
629.21	327.68
629.36	358.10
629.51	290.23
629.66	301.93
629.81	512.58
629.96	1434.75
630.11	2689.28
630.26	3691.02
630.41	3330.58
630.56	2417.77
630.71	1694.55
630.86	1324.74
631.01	835.57
631.16	550.03
631.31	381.51
631.46	369.80
631.61	381.51
631.76	414.27
631.91	365.12
632.06	388.53
632.21	334.70
632.36	320.65
632.51	386.19
632.66	433.00
632.81	1191.33
632.96	3943.80
633.10	7637.17
633.25	9696.84
633.40	7768.24
633.55	5486.22
633.70	3630.17
633.85	2597.99
634.00	1448.79
634.15	751.31
634.30	535.98
634.45	341.72
634.60	332.36
634.75	318.31
634.90	266.82
635.05	318.31
635.19	299.59
635.34	325.33
635.49	264.48
635.64	402.57
635.79	257.46
635.94	322.99
636.09	315.97
636.24	355.76
636.39	339.38
636.53	337.04
636.68	257.46
636.83	358.10
636.98	383.85
637.13	322.99
637.28	409.59
637.43	528.96
637.57	711.52
637.72	3152.70
637.87	9446.40
638.02	16215.23
638.17	18087.66
638.32	13495.53
638.46	9036.81
638.61	6157.95
638.76	3889.97
638.91	1872.43
639.06	1039.20
639.20	748.97
639.35	627.26
639.50	961.96
639.65	4521.92
639.80	14253.86
639.94	24608.39
640.09	28105.15
640.24	20922.05
640.39	13752.99
640.54	9261.50
640.68	5753.04
640.83	2773.53
640.98	1235.80
641.13	781.74
641.27	521.94
641.42	521.94
641.57	414.27
641.72	407.25
641.86	418.96
642.01	269.16
642.16	355.76
642.31	308.95
642.45	344.06
642.60	322.99
642.75	301.93
642.90	322.99
643.04	243.42
643.19	259.80
643.34	257.46
643.48	238.73
643.63	332.36
643.78	341.72
643.93	285.55
644.07	262.14
644.22	234.05
644.37	234.05
644.51	290.23
644.66	341.72
644.81	259.80
644.95	306.61
645.10	306.61
645.25	290.23
645.39	287.89
645.54	231.71
645.69	278.52
645.83	229.37
645.98	271.50
646.13	252.78
646.27	276.18
646.42	236.39
646.57	236.39
646.71	301.93
646.86	280.86
647.00	198.95
647.15	292.57
647.30	203.63
647.44	248.10
647.59	301.93
647.74	278.52
647.88	264.48
648.03	224.69
648.17	245.76
648.32	245.76
648.47	245.76
648.61	269.16
648.76	208.31
648.90	198.95
649.05	234.05
649.20	308.95
649.34	311.29
649.49	273.84
649.63	397.89
649.78	290.23
649.92	489.17
650.07	1823.28
650.21	6099.44
650.36	11234.57
650.51	14303.01
650.65	11817.36
650.80	8262.09
650.94	5614.95
651.09	3386.76
651.23	1863.07
651.38	1008.77
651.52	575.77
651.67	372.15
651.81	369.80
651.96	344.06
652.10	325.33
652.25	276.18
652.39	362.78
652.54	313.63
652.68	655.35
652.83	1970.73
652.97	3653.58
653.12	5298.97
653.26	4521.92
653.41	3260.37
653.55	2359.26
653.70	1551.78
653.84	910.47
653.99	500.87
654.13	311.29
654.27	248.10
654.42	287.89
654.56	224.69
654.71	252.78
654.85	220.01
655.00	201.29
655.14	301.93
655.29	301.93
655.43	236.39
655.57	308.95
655.72	189.58
655.86	229.37
656.01	294.91
656.15	252.78
656.30	210.65
656.44	168.52
656.58	227.03
656.73	156.82
656.87	187.24
657.01	191.92
657.16	255.12
657.30	250.44
657.45	283.20
657.59	271.50
657.73	166.18
657.88	290.23
658.02	264.48
658.16	273.84
658.31	215.33
658.45	166.18
658.60	220.01
658.74	276.18
658.88	220.01
659.03	320.65
659.17	325.33
659.31	880.04
659.46	2785.24
659.60	5427.70
659.74	6949.05
659.89	6399.02
660.03	4842.57
660.17	3281.43
660.32	2062.01
660.46	1165.59
660.60	711.52
660.74	416.62
660.89	362.78
661.03	262.14
661.17	304.27
661.32	262.14
661.46	330.02
661.60	203.63
661.74	238.73
661.89	273.84
662.03	245.76
662.17	264.48
662.31	175.54
662.46	184.90
662.60	250.44
662.74	180.22
662.88	250.44
663.03	269.16
663.17	170.86
663.31	283.20
663.45	271.50
663.60	196.60
663.74	264.48
663.88	196.60
664.02	182.56
664.17	234.05
664.31	236.39
664.45	238.73
664.59	259.80
664.73	248.10
664.88	308.95
665.02	308.95
665.16	299.59
665.30	311.29
665.44	348.74
665.59	231.71
665.73	196.60
665.87	229.37
666.01	273.84
666.15	182.56
666.29	290.23
666.44	227.03
666.58	308.95
666.72	332.36
666.86	337.04
667.00	292.57
667.14	526.62
667.28	1659.44
667.43	5289.61
667.57	9495.55
667.71	12636.55
667.85	10733.70
667.99	8042.08
668.13	4915.12
668.27	2972.48
668.41	1720.29
668.56	971.32
668.70	683.44
668.84	444.70
668.98	411.93
669.12	355.76
669.26	400.23
669.40	322.99
669.54	269.16
669.68	269.16
669.82	257.46
669.96	271.50
670.10	236.39
670.25	283.20
670.39	133.41
670.53	259.80
670.67	266.82
670.81	250.44
670.95	294.91
671.09	566.41
671.23	2101.80
671.37	4526.60
671.51	6953.73
671.65	7868.88
671.79	6179.01
671.93	4369.78
672.07	2586.29
672.21	1474.54
672.35	826.21
672.49	514.92
672.63	444.70
672.77	348.74
672.91	278.52
673.05	189.58
673.19	208.31
673.33	245.76
673.47	273.84
673.61	280.86
673.75	177.88
673.89	231.71
674.03	170.86
674.17	248.10
674.31	238.73
674.45	154.48
674.59	189.58
674.73	269.16
674.87	299.59
675.01	341.72
675.15	283.20
675.29	271.50
675.43	351.08
675.56	322.99
675.70	294.91
675.84	236.39
675.98	208.31
676.12	215.33
676.26	203.63
676.40	205.97
676.54	159.16
676.68	227.03
676.82	201.29
676.96	159.16
677.10	238.73
677.23	220.01
677.37	208.31
677.51	201.29
677.65	198.95
677.79	248.10
677.93	177.88
678.07	205.97
678.21	241.08
678.34	177.88
678.48	166.18
678.62	182.56
678.76	196.60
678.90	252.78
679.04	152.13
679.18	110.01
679.31	234.05
679.45	149.79
679.59	170.86
679.73	166.18
679.87	138.09
680.00	177.88
680.14	224.69
680.28	170.86
680.42	147.45
680.56	168.52
680.70	86.60
680.83	222.35
680.97	184.90
681.11	177.88
681.25	222.35
681.39	126.39
681.52	110.01
681.66	149.79
681.80	177.88
681.94	74.90
682.07	156.82
682.21	133.41
682.35	112.35
682.49	182.56
682.62	198.95
682.76	124.05
682.90	138.09
683.04	220.01
683.17	198.95
683.31	173.20
683.45	231.71
683.59	266.82
683.72	187.24
683.86	210.65
684.00	182.56
684.13	208.31
684.27	234.05
684.41	135.75
684.55	196.60
684.68	142.77
684.82	163.84
684.96	243.42
685.09	229.37
685.23	51.49
685.37	224.69
685.50	168.52
685.64	208.31
685.78	234.05
685.91	198.95
686.05	203.63
686.19	208.31
686.32	222.35
686.46	184.90
686.60	159.16
686.73	229.37
686.87	283.20
687.01	243.42
687.14	191.92
687.28	231.71
687.42	229.37
687.55	196.60
687.69	271.50
687.82	156.82
687.96	227.03
688.10	229.37
688.23	208.31
688.37	241.08
688.50	266.82
688.64	175.54
688.78	159.16
688.91	205.97
689.05	140.43
689.18	168.52
689.32	203.63
689.46	217.67
689.59	159.16
689.73	182.56
689.86	149.79
690.00	236.39
690.13	128.73
690.27	119.37
690.41	147.45
690.54	231.71
690.68	175.54
690.81	234.05
690.95	180.22
691.08	245.76
691.22	229.37
691.35	196.60
691.49	196.60
691.62	187.24
691.76	182.56
691.89	177.88
692.03	149.79
692.16	191.92
692.30	299.59
692.43	718.54
692.57	2134.57
692.70	3974.23
692.84	5186.63
692.97	4954.91
693.11	3714.43
693.24	2628.42
693.38	1902.86
693.51	1287.29
693.65	882.38
693.78	575.77
693.92	397.89
694.05	259.80
694.19	191.92
694.32	196.60
694.45	203.63
694.59	227.03
694.72	175.54
694.86	175.54
694.99	189.58
695.13	121.71
695.26	194.26
695.39	205.97
695.53	212.99
695.66	236.39
695.80	163.84
695.93	154.48
696.07	229.37
696.20	334.70
696.33	437.68
696.47	564.07
696.60	496.19
696.73	454.06
696.87	301.93
697.00	308.95
697.14	196.60
697.27	203.63
697.40	280.86
697.54	170.86
697.67	93.62
697.80	173.20
697.94	205.97
698.07	196.60
698.21	229.37
698.34	184.90
698.47	184.90
698.61	205.97
698.74	161.50
698.87	215.33
699.01	161.50
699.14	194.26
699.27	177.88
699.40	231.71
699.54	154.48
699.67	201.29
699.80	93.62
699.94	124.05
700.07	198.95
700.20	191.92
700.34	128.73
700.47	156.82
700.60	159.16
700.73	154.48
700.87	255.12
701.00	154.48
701.13	152.13
701.26	220.01
701.40	236.39
701.53	189.58
701.66	189.58
701.79	248.10
701.93	250.44
702.06	353.42
702.19	337.04
702.32	486.83
702.46	470.45
702.59	479.81
702.72	912.81
702.85	2750.13
702.99	6190.72
703.12	9357.46
703.25	10448.15
703.38	8950.21
703.51	7265.02
703.65	5645.37
703.78	3829.12
703.91	2590.97
704.04	1685.19
704.17	1006.43
704.31	732.59
704.44	428.32
704.57	348.74
704.70	262.14
704.83	276.18
704.96	184.90
705.10	278.52
705.23	208.31
>>>>>End Processed Spectral Data<<<<<
