SpectraSuite Data File
++++++++++++++++++++++++++++++++++++
Date: Fri Oct 04 11:33:54 GMT-05:00 2013
User: price-jones
Dark Spectrum Present: No
Reference Spectrum Present: No
Number of Sampled Component Spectra: 1
Spectrometers: USB2+H05261
Integration Time (usec): 100000 (USB2+H05261)
Spectra Averaged: 1 (USB2+H05261)
Boxcar Smoothing: 0 (USB2+H05261)
Correct for Electrical Dark: No (USB2+H05261)
Strobe/Lamp Enabled: No (USB2+H05261)
Correct for Detector Non-linearity: No (USB2+H05261)
Correct for Stray Light: No (USB2+H05261)
Number of Pixels in Processed Spectrum: 2048
>>>>>Begin Processed Spectral Data<<<<<
365.73	67.88
365.92	67.88
366.12	67.88
366.32	0.00
366.52	0.00
366.72	37.45
366.91	0.00
367.11	0.00
367.31	0.00
367.51	0.00
367.70	0.00
367.90	44.47
368.10	4.68
368.30	42.13
368.49	0.00
368.69	0.00
368.89	0.00
369.09	0.00
369.28	0.00
369.48	0.00
369.68	18.72
369.87	11.70
370.07	0.00
370.27	51.49
370.47	28.09
370.66	86.60
370.86	105.32
371.06	117.03
371.25	93.62
371.45	72.56
371.65	93.62
371.84	58.51
372.04	77.24
372.24	159.16
372.44	107.66
372.63	112.35
372.83	107.66
373.03	81.92
373.22	154.48
373.42	119.37
373.62	135.75
373.81	145.11
374.01	191.92
374.21	259.80
374.40	227.03
374.60	212.99
374.79	145.11
374.99	159.16
375.19	98.30
375.38	175.54
375.58	124.05
375.78	217.67
375.97	154.48
376.17	243.42
376.37	105.32
376.56	86.60
376.76	191.92
376.95	173.20
377.15	140.43
377.35	138.09
377.54	175.54
377.74	28.09
377.93	135.75
378.13	166.18
378.33	189.58
378.52	187.24
378.72	145.11
378.91	102.98
379.11	180.22
379.31	180.22
379.50	152.13
379.70	203.63
379.89	201.29
380.09	128.73
380.28	128.73
380.48	128.73
380.68	91.28
380.87	117.03
381.07	126.39
381.26	184.90
381.46	128.73
381.65	145.11
381.85	154.48
382.04	159.16
382.24	107.66
382.43	56.17
382.63	95.96
382.83	163.84
383.02	184.90
383.22	177.88
383.41	149.79
383.61	196.60
383.80	117.03
384.00	175.54
384.19	124.05
384.39	79.58
384.58	98.30
384.78	105.32
384.97	93.62
385.17	107.66
385.36	138.09
385.56	175.54
385.75	133.41
385.95	149.79
386.14	128.73
386.34	156.82
386.53	142.77
386.72	145.11
386.92	135.75
387.11	124.05
387.31	159.16
387.50	49.15
387.70	203.63
387.89	91.28
388.09	124.05
388.28	53.83
388.48	133.41
388.67	149.79
388.86	140.43
389.06	79.58
389.25	147.45
389.45	156.82
389.64	107.66
389.84	128.73
390.03	203.63
390.22	161.50
390.42	100.64
390.61	170.86
390.81	110.01
391.00	91.28
391.19	201.29
391.39	93.62
391.58	180.22
391.78	163.84
391.97	67.88
392.16	161.50
392.36	128.73
392.55	140.43
392.75	138.09
392.94	138.09
393.13	184.90
393.33	107.66
393.52	161.50
393.71	170.86
393.91	98.30
394.10	74.90
394.29	170.86
394.49	208.31
394.68	208.31
394.88	128.73
395.07	198.95
395.26	128.73
395.46	119.37
395.65	156.82
395.84	170.86
396.04	198.95
396.23	112.35
396.42	114.69
396.62	67.88
396.81	133.41
397.00	131.07
397.19	147.45
397.39	131.07
397.58	154.48
397.77	198.95
397.97	140.43
398.16	121.71
398.35	119.37
398.55	93.62
398.74	182.56
398.93	117.03
399.12	170.86
399.32	217.67
399.51	142.77
399.70	114.69
399.90	161.50
400.09	152.13
400.28	95.96
400.47	91.28
400.67	105.32
400.86	138.09
401.05	110.01
401.24	126.39
401.44	217.67
401.63	173.20
401.82	196.60
402.01	91.28
402.21	142.77
402.40	212.99
402.59	119.37
402.78	161.50
402.97	98.30
403.17	166.18
403.36	198.95
403.55	159.16
403.74	229.37
403.93	163.84
404.13	264.48
404.32	308.95
404.51	175.54
404.70	121.71
404.89	140.43
405.09	278.52
405.28	177.88
405.47	159.16
405.66	88.94
405.85	241.08
406.05	201.29
406.24	163.84
406.43	177.88
406.62	128.73
406.81	117.03
407.00	173.20
407.20	102.98
407.39	180.22
407.58	191.92
407.77	180.22
407.96	271.50
408.15	210.65
408.34	72.56
408.54	142.77
408.73	131.07
408.92	173.20
409.11	149.79
409.30	166.18
409.49	177.88
409.68	156.82
409.87	152.13
410.07	140.43
410.26	107.66
410.45	112.35
410.64	189.58
410.83	93.62
411.02	170.86
411.21	177.88
411.40	175.54
411.59	107.66
411.78	140.43
411.98	131.07
412.17	170.86
412.36	117.03
412.55	117.03
412.74	168.52
412.93	114.69
413.12	142.77
413.31	159.16
413.50	140.43
413.69	182.56
413.88	173.20
414.07	194.26
414.26	191.92
414.45	81.92
414.64	142.77
414.83	124.05
415.02	201.29
415.22	234.05
415.41	201.29
415.60	154.48
415.79	203.63
415.98	210.65
416.17	191.92
416.36	140.43
416.55	117.03
416.74	201.29
416.93	182.56
417.12	205.97
417.31	180.22
417.50	194.26
417.69	229.37
417.88	182.56
418.07	102.98
418.26	238.73
418.45	201.29
418.64	208.31
418.83	189.58
419.02	210.65
419.21	203.63
419.39	191.92
419.58	182.56
419.77	180.22
419.96	276.18
420.15	187.24
420.34	149.79
420.53	224.69
420.72	224.69
420.91	147.45
421.10	243.42
421.29	142.77
421.48	147.45
421.67	81.92
421.86	102.98
422.05	154.48
422.24	154.48
422.43	166.18
422.61	154.48
422.80	208.31
422.99	212.99
423.18	180.22
423.37	187.24
423.56	149.79
423.75	145.11
423.94	110.01
424.13	100.64
424.32	121.71
424.50	170.86
424.69	227.03
424.88	229.37
425.07	152.13
425.26	154.48
425.45	250.44
425.64	273.84
425.83	201.29
426.01	250.44
426.20	184.90
426.39	212.99
426.58	182.56
426.77	205.97
426.96	215.33
427.15	234.05
427.33	154.48
427.52	191.92
427.71	152.13
427.90	229.37
428.09	175.54
428.28	163.84
428.46	138.09
428.65	184.90
428.84	175.54
429.03	177.88
429.22	210.65
429.40	184.90
429.59	140.43
429.78	266.82
429.97	198.95
430.16	140.43
430.34	177.88
430.53	161.50
430.72	184.90
430.91	203.63
431.10	180.22
431.28	177.88
431.47	175.54
431.66	184.90
431.85	133.41
432.03	255.12
432.22	283.20
432.41	135.75
432.60	196.60
432.79	147.45
432.97	222.35
433.16	229.37
433.35	201.29
433.54	241.08
433.72	196.60
433.91	212.99
434.10	180.22
434.28	212.99
434.47	224.69
434.66	224.69
434.85	196.60
435.03	273.84
435.22	330.02
435.41	341.72
435.59	395.55
435.78	276.18
435.97	205.97
436.16	180.22
436.34	149.79
436.53	140.43
436.72	304.27
436.90	117.03
437.09	210.65
437.28	126.39
437.46	229.37
437.65	173.20
437.84	135.75
438.02	201.29
438.21	138.09
438.40	112.35
438.58	189.58
438.77	93.62
438.96	182.56
439.14	154.48
439.33	243.42
439.52	166.18
439.70	198.95
439.89	248.10
440.08	189.58
440.26	210.65
440.45	166.18
440.63	201.29
440.82	255.12
441.01	189.58
441.19	201.29
441.38	208.31
441.57	217.67
441.75	131.07
441.94	140.43
442.12	203.63
442.31	194.26
442.50	166.18
442.68	161.50
442.87	159.16
443.05	173.20
443.24	227.03
443.43	231.71
443.61	170.86
443.80	184.90
443.98	198.95
444.17	140.43
444.35	201.29
444.54	182.56
444.73	196.60
444.91	140.43
445.10	166.18
445.28	208.31
445.47	163.84
445.65	191.92
445.84	196.60
446.02	241.08
446.21	168.52
446.39	236.39
446.58	161.50
446.77	191.92
446.95	152.13
447.14	227.03
447.32	212.99
447.51	182.56
447.69	147.45
447.88	163.84
448.06	262.14
448.25	173.20
448.43	131.07
448.62	180.22
448.80	159.16
448.99	252.78
449.17	229.37
449.36	189.58
449.54	182.56
449.73	124.05
449.91	224.69
450.10	184.90
450.28	198.95
450.46	198.95
450.65	255.12
450.83	208.31
451.02	191.92
451.20	220.01
451.39	114.69
451.57	203.63
451.76	161.50
451.94	252.78
452.13	184.90
452.31	196.60
452.49	131.07
452.68	168.52
452.86	238.73
453.05	203.63
453.23	184.90
453.42	152.13
453.60	189.58
453.78	159.16
453.97	154.48
454.15	187.24
454.34	131.07
454.52	252.78
454.70	224.69
454.89	241.08
455.07	189.58
455.26	184.90
455.44	227.03
455.62	252.78
455.81	147.45
455.99	205.97
456.17	189.58
456.36	229.37
456.54	81.92
456.73	182.56
456.91	142.77
457.09	264.48
457.28	212.99
457.46	252.78
457.64	131.07
457.83	271.50
458.01	238.73
458.19	163.84
458.38	234.05
458.56	236.39
458.74	126.39
458.93	196.60
459.11	184.90
459.29	210.65
459.48	147.45
459.66	285.55
459.84	173.20
460.03	241.08
460.21	250.44
460.39	173.20
460.57	173.20
460.76	238.73
460.94	154.48
461.12	229.37
461.31	175.54
461.49	245.76
461.67	138.09
461.85	234.05
462.04	196.60
462.22	608.54
462.40	196.60
462.59	250.44
462.77	149.79
462.95	222.35
463.13	212.99
463.32	227.03
463.50	210.65
463.68	177.88
463.86	159.16
464.05	212.99
464.23	220.01
464.41	196.60
464.59	210.65
464.78	191.92
464.96	187.24
465.14	222.35
465.32	248.10
465.50	236.39
465.69	273.84
465.87	210.65
466.05	177.88
466.23	105.32
466.41	208.31
466.60	191.92
466.78	135.75
466.96	189.58
467.14	227.03
467.32	208.31
467.51	138.09
467.69	241.08
467.87	262.14
468.05	227.03
468.23	262.14
468.41	180.22
468.60	227.03
468.78	198.95
468.96	273.84
469.14	194.26
469.32	184.90
469.50	227.03
469.69	184.90
469.87	208.31
470.05	196.60
470.23	168.52
470.41	194.26
470.59	236.39
470.77	182.56
470.95	191.92
471.14	241.08
471.32	238.73
471.50	208.31
471.68	166.18
471.86	210.65
472.04	182.56
472.22	243.42
472.40	227.03
472.58	220.01
472.77	194.26
472.95	182.56
473.13	194.26
473.31	248.10
473.49	191.92
473.67	245.76
473.85	269.16
474.03	198.95
474.21	163.84
474.39	264.48
474.57	248.10
474.75	161.50
474.93	184.90
475.12	241.08
475.30	191.92
475.48	194.26
475.66	241.08
475.84	170.86
476.02	173.20
476.20	215.33
476.38	287.89
476.56	276.18
476.74	119.37
476.92	198.95
477.10	175.54
477.28	231.71
477.46	205.97
477.64	121.71
477.82	222.35
478.00	124.05
478.18	238.73
478.36	215.33
478.54	88.94
478.72	126.39
478.90	203.63
479.08	255.12
479.26	201.29
479.44	332.36
479.62	210.65
479.80	262.14
479.98	161.50
480.16	168.52
480.34	276.18
480.52	224.69
480.70	238.73
480.88	168.52
481.06	217.67
481.24	196.60
481.41	231.71
481.59	205.97
481.77	161.50
481.95	177.88
482.13	182.56
482.31	250.44
482.49	220.01
482.67	313.63
482.85	318.31
483.03	243.42
483.21	224.69
483.39	170.86
483.57	201.29
483.74	276.18
483.92	224.69
484.10	212.99
484.28	297.25
484.46	276.18
484.64	332.36
484.82	166.18
485.00	241.08
485.18	245.76
485.35	236.39
485.53	152.13
485.71	222.35
485.89	205.97
486.07	257.46
486.25	313.63
486.43	273.84
486.61	175.54
486.78	191.92
486.96	245.76
487.14	138.09
487.32	234.05
487.50	259.80
487.68	227.03
487.85	255.12
488.03	318.31
488.21	264.48
488.39	266.82
488.57	271.50
488.75	287.89
488.92	454.06
489.10	262.14
489.28	276.18
489.46	236.39
489.64	163.84
489.81	234.05
489.99	131.07
490.17	301.93
490.35	388.53
490.53	271.50
490.70	257.46
490.88	273.84
491.06	248.10
491.24	245.76
491.41	259.80
491.59	257.46
491.77	234.05
491.95	217.67
492.13	217.67
492.30	264.48
492.48	252.78
492.66	297.25
492.84	269.16
493.01	245.76
493.19	299.59
493.37	308.95
493.54	241.08
493.72	266.82
493.90	273.84
494.08	259.80
494.25	227.03
494.43	313.63
494.61	250.44
494.79	252.78
494.96	198.95
495.14	231.71
495.32	266.82
495.49	262.14
495.67	234.05
495.85	252.78
496.02	210.65
496.20	252.78
496.38	266.82
496.55	264.48
496.73	231.71
496.91	238.73
497.09	201.29
497.26	229.37
497.44	308.95
497.62	290.23
497.79	311.29
497.97	224.69
498.14	358.10
498.32	283.20
498.50	297.25
498.67	290.23
498.85	325.33
499.03	297.25
499.20	297.25
499.38	210.65
499.56	315.97
499.73	297.25
499.91	229.37
500.08	280.86
500.26	224.69
500.44	215.33
500.61	229.37
500.79	273.84
500.97	278.52
501.14	287.89
501.32	266.82
501.49	318.31
501.67	229.37
501.84	276.18
502.02	234.05
502.20	297.25
502.37	271.50
502.55	229.37
502.72	248.10
502.90	231.71
503.07	301.93
503.25	266.82
503.43	210.65
503.60	231.71
503.78	229.37
503.95	231.71
504.13	236.39
504.30	327.68
504.48	334.70
504.65	238.73
504.83	304.27
505.01	205.97
505.18	292.57
505.36	184.90
505.53	264.48
505.71	222.35
505.88	208.31
506.06	220.01
506.23	257.46
506.41	262.14
506.58	266.82
506.76	201.29
506.93	191.92
507.11	266.82
507.28	194.26
507.46	243.42
507.63	318.31
507.81	203.63
507.98	276.18
508.16	208.31
508.33	271.50
508.50	191.92
508.68	191.92
508.85	271.50
509.03	217.67
509.20	182.56
509.38	248.10
509.55	222.35
509.73	351.08
509.90	236.39
510.08	294.91
510.25	301.93
510.42	308.95
510.60	243.42
510.77	257.46
510.95	297.25
511.12	276.18
511.30	386.19
511.47	290.23
511.64	374.49
511.82	259.80
511.99	280.86
512.17	210.65
512.34	330.02
512.51	217.67
512.69	278.52
512.86	301.93
513.04	245.76
513.21	327.68
513.38	271.50
513.56	210.65
513.73	222.35
513.90	224.69
514.08	301.93
514.25	283.20
514.43	306.61
514.60	292.57
514.77	243.42
514.95	255.12
515.12	227.03
515.29	231.71
515.47	276.18
515.64	220.01
515.81	271.50
515.99	304.27
516.16	229.37
516.33	271.50
516.51	271.50
516.68	220.01
516.85	248.10
517.03	245.76
517.20	301.93
517.37	229.37
517.54	290.23
517.72	229.37
517.89	236.39
518.06	238.73
518.24	287.89
518.41	285.55
518.58	231.71
518.75	271.50
518.93	294.91
519.10	255.12
519.27	276.18
519.45	245.76
519.62	248.10
519.79	301.93
519.96	301.93
520.14	285.55
520.31	292.57
520.48	299.59
520.65	383.85
520.83	222.35
521.00	318.31
521.17	236.39
521.34	238.73
521.52	262.14
521.69	318.31
521.86	243.42
522.03	215.33
522.20	306.61
522.38	285.55
522.55	259.80
522.72	273.84
522.89	313.63
523.07	250.44
523.24	241.08
523.41	187.24
523.58	259.80
523.75	257.46
523.92	252.78
524.10	245.76
524.27	184.90
524.44	229.37
524.61	313.63
524.78	220.01
524.96	306.61
525.13	266.82
525.30	294.91
525.47	332.36
525.64	285.55
525.81	283.20
525.98	341.72
526.16	287.89
526.33	210.65
526.50	262.14
526.67	276.18
526.84	217.67
527.01	191.92
527.18	306.61
527.36	259.80
527.53	283.20
527.70	334.70
527.87	351.08
528.04	238.73
528.21	285.55
528.38	285.55
528.55	379.17
528.72	421.30
528.89	344.06
529.07	238.73
529.24	283.20
529.41	327.68
529.58	269.16
529.75	315.97
529.92	322.99
530.09	318.31
530.26	311.29
530.43	280.86
530.60	255.12
530.77	337.04
530.94	285.55
531.11	234.05
531.28	287.89
531.46	278.52
531.63	290.23
531.80	299.59
531.97	327.68
532.14	341.72
532.31	238.73
532.48	276.18
532.65	397.89
532.82	393.21
532.99	393.21
533.16	280.86
533.33	341.72
533.50	259.80
533.67	308.95
533.84	346.40
534.01	461.09
534.18	437.68
534.35	311.29
534.52	344.06
534.69	365.12
534.86	224.69
535.03	266.82
535.20	285.55
535.37	362.78
535.54	257.46
535.71	308.95
535.88	271.50
536.05	301.93
536.22	311.29
536.38	294.91
536.55	365.12
536.72	381.51
536.89	292.57
537.06	355.76
537.23	276.18
537.40	262.14
537.57	332.36
537.74	360.44
537.91	271.50
538.08	372.15
538.25	313.63
538.42	334.70
538.59	376.83
538.75	294.91
538.92	332.36
539.09	421.30
539.26	374.49
539.43	402.57
539.60	807.48
539.77	1238.14
539.94	1336.45
540.11	983.02
540.28	732.59
540.44	655.35
540.61	402.57
540.78	369.80
540.95	491.51
541.12	580.45
541.29	454.06
541.46	538.32
541.62	528.96
541.79	573.43
541.96	507.90
542.13	550.03
542.30	498.53
542.47	512.58
542.63	451.72
542.80	500.87
542.97	482.15
543.14	440.02
543.31	454.06
543.48	435.34
543.64	477.47
543.81	514.92
543.98	496.19
544.15	458.74
544.32	461.09
544.48	461.09
544.65	414.27
544.82	489.17
544.99	433.00
545.16	507.90
545.32	475.13
545.49	763.01
545.66	849.61
545.83	901.11
546.00	835.57
546.16	653.01
546.33	571.09
546.50	400.23
546.67	456.40
546.83	440.02
547.00	395.55
547.17	351.08
547.34	367.46
547.50	470.45
547.67	400.23
547.84	355.76
548.00	430.66
548.17	353.42
548.34	393.21
548.51	397.89
548.67	404.91
548.84	360.44
549.01	351.08
549.18	360.44
549.34	346.40
549.51	400.23
549.68	402.57
549.84	379.17
550.01	278.52
550.18	447.04
550.34	362.78
550.51	358.10
550.68	346.40
550.84	304.27
551.01	327.68
551.18	334.70
551.34	320.65
551.51	306.61
551.68	330.02
551.84	297.25
552.01	313.63
552.18	304.27
552.34	360.44
552.51	301.93
552.68	285.55
552.84	330.02
553.01	337.04
553.18	334.70
553.34	273.84
553.51	245.76
553.67	372.15
553.84	337.04
554.01	292.57
554.17	369.80
554.34	285.55
554.51	255.12
554.67	304.27
554.84	320.65
555.00	330.02
555.17	339.38
555.33	269.16
555.50	231.71
555.67	425.98
555.83	374.49
556.00	365.12
556.16	395.55
556.33	290.23
556.50	245.76
556.66	311.29
556.83	285.55
556.99	257.46
557.16	308.95
557.32	341.72
557.49	306.61
557.65	320.65
557.82	287.89
557.98	306.61
558.15	222.35
558.32	243.42
558.48	297.25
558.65	262.14
558.81	283.20
558.98	280.86
559.14	224.69
559.31	287.89
559.47	348.74
559.64	241.08
559.80	320.65
559.97	252.78
560.13	386.19
560.30	241.08
560.46	266.82
560.63	294.91
560.79	238.73
560.96	313.63
561.12	229.37
561.29	297.25
561.45	273.84
561.61	208.31
561.78	390.87
561.94	182.56
562.11	271.50
562.27	229.37
562.44	332.36
562.60	245.76
562.77	198.95
562.93	299.59
563.10	257.46
563.26	243.42
563.42	238.73
563.59	266.82
563.75	196.60
563.92	287.89
564.08	283.20
564.24	257.46
564.41	266.82
564.57	259.80
564.74	351.08
564.90	320.65
565.07	262.14
565.23	301.93
565.39	166.18
565.56	285.55
565.72	264.48
565.88	196.60
566.05	255.12
566.21	234.05
566.38	266.82
566.54	238.73
566.70	297.25
566.87	231.71
567.03	198.95
567.19	287.89
567.36	259.80
567.52	278.52
567.68	313.63
567.85	280.86
568.01	252.78
568.17	250.44
568.34	322.99
568.50	313.63
568.66	285.55
568.83	344.06
568.99	280.86
569.15	299.59
569.32	255.12
569.48	182.56
569.64	271.50
569.81	264.48
569.97	259.80
570.13	217.67
570.30	292.57
570.46	250.44
570.62	266.82
570.78	262.14
570.95	229.37
571.11	325.33
571.27	318.31
571.43	177.88
571.60	320.65
571.76	280.86
571.92	301.93
572.09	269.16
572.25	313.63
572.41	210.65
572.57	290.23
572.74	360.44
572.90	339.38
573.06	292.57
573.22	238.73
573.38	308.95
573.55	337.04
573.71	243.42
573.87	304.27
574.03	311.29
574.20	294.91
574.36	355.76
574.52	337.04
574.68	388.53
574.84	346.40
575.01	301.93
575.17	353.42
575.33	351.08
575.49	283.20
575.65	334.70
575.82	344.06
575.98	519.60
576.14	629.60
576.30	711.52
576.46	617.90
576.62	528.96
576.79	498.53
576.95	435.34
577.11	397.89
577.27	322.99
577.43	365.12
577.59	390.87
577.75	283.20
577.92	252.78
578.08	236.39
578.24	255.12
578.40	388.53
578.56	383.85
578.72	425.98
578.88	437.68
579.04	330.02
579.21	266.82
579.37	294.91
579.53	346.40
579.69	418.96
579.85	332.36
580.01	428.32
580.17	409.59
580.33	416.62
580.49	437.68
580.65	468.11
580.82	379.17
580.98	341.72
581.14	287.89
581.30	337.04
581.46	458.74
581.62	489.17
581.78	582.79
581.94	648.33
582.10	519.60
582.26	526.62
582.42	393.21
582.58	465.77
582.74	512.58
582.90	521.94
583.06	507.90
583.22	407.25
583.38	535.98
583.54	517.26
583.70	627.26
583.86	624.92
584.02	653.01
584.18	779.40
584.34	884.72
584.50	2026.90
584.66	12540.59
584.82	38389.47
584.98	57797.19
585.14	57544.41
585.30	39351.43
585.46	21954.22
585.62	13755.33
585.78	6576.91
585.94	2619.06
586.10	1327.08
586.26	863.66
586.42	795.78
586.58	615.56
586.74	557.05
586.90	543.00
587.06	648.33
587.22	568.75
587.38	479.81
587.54	835.57
587.70	2326.49
587.86	4208.28
588.02	5528.35
588.18	3756.56
588.34	2328.83
588.49	1549.43
588.65	940.90
588.81	545.34
588.97	369.80
589.13	407.25
589.29	374.49
589.45	311.29
589.61	287.89
589.77	369.80
589.93	407.25
590.08	372.15
590.24	421.30
590.40	395.55
590.56	437.68
590.72	339.38
590.88	447.04
591.04	402.57
591.20	360.44
591.35	381.51
591.51	297.25
591.67	337.04
591.83	379.17
591.99	393.21
592.15	433.00
592.31	360.44
592.46	409.59
592.62	400.23
592.78	358.10
592.94	369.80
593.10	346.40
593.26	358.10
593.41	437.68
593.57	346.40
593.73	505.56
593.89	1797.53
594.05	4732.56
594.20	7812.71
594.36	8648.28
594.52	5717.93
594.68	3328.24
594.84	2235.21
594.99	1245.16
595.15	699.82
595.31	514.92
595.47	449.38
595.62	355.76
595.78	320.65
595.94	374.49
596.10	423.64
596.25	433.00
596.41	386.19
596.57	358.10
596.73	304.27
596.88	498.53
597.04	1011.11
597.20	1652.42
597.36	2324.15
597.51	1820.94
597.67	1228.78
597.83	844.93
597.99	660.03
598.14	390.87
598.30	355.76
598.46	292.57
598.61	414.27
598.77	315.97
598.93	362.78
599.09	339.38
599.24	346.40
599.40	400.23
599.56	262.14
599.71	339.38
599.87	285.55
600.03	285.55
600.18	379.17
600.34	308.95
600.50	241.08
600.65	271.50
600.81	334.70
600.97	294.91
601.12	259.80
601.28	388.53
601.44	330.02
601.59	322.99
601.75	306.61
601.91	276.18
602.06	280.86
602.22	337.04
602.37	566.41
602.53	1259.21
602.69	2270.32
602.84	2506.71
603.00	1785.83
603.16	1135.16
603.31	910.47
603.47	664.71
603.62	386.19
603.78	428.32
603.94	365.12
604.09	311.29
604.25	327.68
604.40	365.12
604.56	283.20
604.71	346.40
604.87	313.63
605.03	320.65
605.18	358.10
605.34	388.53
605.49	351.08
605.65	402.57
605.80	355.76
605.96	332.36
606.12	379.17
606.27	458.74
606.43	351.08
606.58	491.51
606.74	657.69
606.89	2090.10
607.05	4685.75
607.20	7492.05
607.36	6352.21
607.51	4376.80
607.67	2705.66
607.82	1806.89
607.98	1067.28
608.13	629.60
608.29	444.70
608.44	533.64
608.60	491.51
608.75	500.87
608.91	758.33
609.06	3241.64
609.22	7655.89
609.37	12690.38
609.53	11899.28
609.68	7751.85
609.84	4732.56
609.99	3325.90
610.15	1921.58
610.30	1100.05
610.46	898.77
610.61	819.19
610.76	943.24
610.92	999.41
611.07	1067.28
611.23	1025.15
611.38	1004.09
611.54	856.64
611.69	784.08
611.84	758.33
612.00	610.88
612.15	645.99
612.31	676.41
612.46	741.95
612.62	814.51
612.77	828.55
612.92	706.84
613.08	657.69
613.23	603.86
613.39	641.31
613.54	725.57
613.69	2890.56
613.85	8711.47
614.00	16470.35
614.15	20161.37
614.31	14354.51
614.46	9104.68
614.62	5865.38
614.77	3714.43
614.92	1832.64
615.08	1013.45
615.23	713.86
615.38	528.96
615.54	425.98
615.69	751.31
615.84	1916.90
616.00	3698.05
616.15	5699.20
616.30	4554.68
616.46	3087.17
616.61	1928.60
616.76	1310.70
616.92	840.25
617.07	596.84
617.22	447.04
617.37	388.53
617.53	390.87
617.68	376.83
617.83	369.80
617.99	362.78
618.14	325.33
618.29	297.25
618.45	348.74
618.60	266.82
618.75	367.46
618.90	271.50
619.06	346.40
619.21	339.38
619.36	294.91
619.51	276.18
619.67	313.63
619.82	269.16
619.97	334.70
620.12	304.27
620.28	308.95
620.43	339.38
620.58	231.71
620.73	390.87
620.89	360.44
621.04	421.30
621.19	1090.69
621.34	2029.24
621.49	3300.16
621.65	2956.10
621.80	2183.72
621.95	1474.54
622.10	1046.22
622.25	589.82
622.41	355.76
622.56	330.02
622.71	313.63
622.86	351.08
623.01	278.52
623.16	320.65
623.32	271.50
623.47	344.06
623.62	285.55
623.77	320.65
623.92	294.91
624.07	287.89
624.23	306.61
624.38	280.86
624.53	341.72
624.68	381.51
624.83	301.93
624.98	283.20
625.13	308.95
625.29	264.48
625.44	381.51
625.59	376.83
625.74	346.40
625.89	547.69
626.04	1591.56
626.19	4491.49
626.34	8329.97
626.49	11049.67
626.65	7939.10
626.80	5153.86
626.95	3337.60
627.10	2146.27
627.25	1111.75
627.40	554.71
627.55	454.06
627.70	407.25
627.85	341.72
628.00	397.89
628.15	273.84
628.30	306.61
628.45	283.20
628.60	397.89
628.76	362.78
628.91	306.61
629.06	318.31
629.21	351.08
629.36	337.04
629.51	273.84
629.66	463.43
629.81	421.30
629.96	999.41
630.11	1762.42
630.26	2635.44
630.41	2506.71
630.56	1942.64
630.71	1294.32
630.86	973.66
631.01	697.48
631.16	477.47
631.31	337.04
631.46	332.36
631.61	280.86
631.76	327.68
631.91	238.73
632.06	322.99
632.21	283.20
632.36	264.48
632.51	409.59
632.66	325.33
632.81	816.85
632.96	2551.18
633.10	4997.04
633.25	7119.91
633.40	6120.50
633.55	4184.88
633.70	2794.60
633.85	1827.96
634.00	1055.58
634.15	575.77
634.30	348.74
634.45	374.49
634.60	297.25
634.75	299.59
634.90	271.50
635.05	266.82
635.19	332.36
635.34	285.55
635.49	278.52
635.64	224.69
635.79	292.57
635.94	252.78
636.09	224.69
636.24	376.83
636.39	320.65
636.53	297.25
636.68	252.78
636.83	231.71
636.98	220.01
637.13	362.78
637.28	360.44
637.43	353.42
637.57	540.66
637.72	1921.58
637.87	5713.25
638.02	10794.55
638.17	14024.49
638.32	9916.85
638.46	6511.37
638.61	4444.68
638.76	2700.98
638.91	1392.62
639.06	784.08
639.20	545.34
639.35	484.49
639.50	720.88
639.65	2780.56
639.80	8402.52
639.94	16102.89
640.09	20444.58
640.24	14710.27
640.39	9401.93
640.54	6249.23
640.68	3815.07
640.83	1930.94
640.98	912.81
641.13	519.60
641.27	388.53
641.42	325.33
641.57	365.12
641.72	252.78
641.86	306.61
642.01	311.29
642.16	395.55
642.31	271.50
642.45	341.72
642.60	372.15
642.75	217.67
642.90	245.76
643.04	234.05
643.19	234.05
643.34	264.48
643.48	234.05
643.63	217.67
643.78	292.57
643.93	322.99
644.07	313.63
644.22	243.42
644.37	231.71
644.51	224.69
644.66	299.59
644.81	266.82
644.95	259.80
645.10	163.84
645.25	227.03
645.39	287.89
645.54	203.63
645.69	269.16
645.83	189.58
645.98	229.37
646.13	313.63
646.27	245.76
646.42	259.80
646.57	262.14
646.71	203.63
646.86	266.82
647.00	236.39
647.15	318.31
647.30	255.12
647.44	170.86
647.59	287.89
647.74	236.39
647.88	236.39
648.03	227.03
648.17	248.10
648.32	159.16
648.47	184.90
648.61	234.05
648.76	227.03
648.90	191.92
649.05	231.71
649.20	201.29
649.34	241.08
649.49	243.42
649.63	220.01
649.78	245.76
649.92	369.80
650.07	1163.25
650.21	3702.73
650.36	7265.02
650.51	10090.05
650.65	8353.37
650.80	6153.27
650.94	3997.64
651.09	2530.12
651.23	1462.83
651.38	732.59
651.52	489.17
651.67	400.23
651.81	337.04
651.96	334.70
652.10	311.29
652.25	330.02
652.39	285.55
652.54	383.85
652.68	470.45
652.83	1179.63
652.97	2518.42
653.12	3794.01
653.26	3550.59
653.41	2551.18
653.55	1743.70
653.70	1135.16
653.84	648.33
653.99	435.34
654.13	313.63
654.27	287.89
654.42	266.82
654.56	217.67
654.71	227.03
654.85	217.67
655.00	234.05
655.14	205.97
655.29	145.11
655.43	234.05
655.57	145.11
655.72	180.22
655.86	208.31
656.01	184.90
656.15	227.03
656.30	337.04
656.44	119.37
656.58	229.37
656.73	205.97
656.87	194.26
657.01	231.71
657.16	351.08
657.30	196.60
657.45	290.23
657.59	234.05
657.73	264.48
657.88	269.16
658.02	311.29
658.16	229.37
658.31	250.44
658.45	313.63
658.60	182.56
658.74	252.78
658.88	222.35
659.03	222.35
659.17	255.12
659.31	589.82
659.46	1792.85
659.60	3637.19
659.74	5418.34
659.89	4737.24
660.03	3541.23
660.17	2441.18
660.32	1556.46
660.46	873.02
660.60	550.03
660.74	418.96
660.89	320.65
661.03	198.95
661.17	285.55
661.32	217.67
661.46	205.97
661.60	304.27
661.74	259.80
661.89	262.14
662.03	224.69
662.17	255.12
662.31	224.69
662.46	264.48
662.60	133.41
662.74	215.33
662.88	234.05
663.03	212.99
663.17	241.08
663.31	196.60
663.45	173.20
663.60	194.26
663.74	198.95
663.88	177.88
664.02	262.14
664.17	196.60
664.31	180.22
664.45	241.08
664.59	248.10
664.73	262.14
664.88	238.73
665.02	147.45
665.16	220.01
665.30	297.25
665.44	250.44
665.59	330.02
665.73	280.86
665.87	187.24
666.01	215.33
666.15	255.12
666.29	238.73
666.44	234.05
666.58	264.48
666.72	280.86
666.86	220.01
667.00	346.40
667.14	407.25
667.28	1130.48
667.43	3398.46
667.57	6319.45
667.71	9139.79
667.85	8325.29
667.99	5858.36
668.13	3796.35
668.27	2237.55
668.41	1350.49
668.56	828.55
668.70	535.98
668.84	325.33
668.98	369.80
669.12	184.90
669.26	203.63
669.40	252.78
669.54	227.03
669.68	327.68
669.82	208.31
669.96	215.33
670.10	168.52
670.25	184.90
670.39	266.82
670.53	243.42
670.67	220.01
670.81	203.63
670.95	269.16
671.09	383.85
671.23	1345.81
671.37	2920.99
671.51	4990.02
671.65	6279.66
671.79	4524.26
671.93	3180.79
672.07	2043.29
672.21	1203.04
672.35	753.65
672.49	503.22
672.63	367.46
672.77	283.20
672.91	248.10
673.05	259.80
673.19	252.78
673.33	231.71
673.47	250.44
673.61	196.60
673.75	241.08
673.89	201.29
674.03	266.82
674.17	173.20
674.31	187.24
674.45	170.86
674.59	189.58
674.73	229.37
674.87	266.82
675.01	227.03
675.15	290.23
675.29	280.86
675.43	259.80
675.56	299.59
675.70	224.69
675.84	156.82
675.98	173.20
676.12	184.90
676.26	182.56
676.40	194.26
676.54	184.90
676.68	159.16
676.82	222.35
676.96	175.54
677.10	222.35
677.23	152.13
677.37	276.18
677.51	187.24
677.65	217.67
677.79	142.77
677.93	147.45
678.07	227.03
678.21	100.64
678.34	227.03
678.48	217.67
678.62	168.52
678.76	170.86
678.90	212.99
679.04	161.50
679.18	177.88
679.31	112.35
679.45	135.75
679.59	154.48
679.73	189.58
679.87	152.13
680.00	177.88
680.14	93.62
680.28	203.63
680.42	175.54
680.56	147.45
680.70	177.88
680.83	152.13
680.97	203.63
681.11	212.99
681.25	117.03
681.39	177.88
681.52	189.58
681.66	163.84
681.80	257.46
681.94	238.73
682.07	217.67
682.21	203.63
682.35	203.63
682.49	168.52
682.62	266.82
682.76	173.20
682.90	191.92
683.04	255.12
683.17	166.18
683.31	177.88
683.45	212.99
683.59	271.50
683.72	227.03
683.86	234.05
684.00	114.69
684.13	222.35
684.27	95.96
684.41	173.20
684.55	250.44
684.68	168.52
684.82	175.54
684.96	124.05
685.09	248.10
685.23	156.82
685.37	201.29
685.50	255.12
685.64	191.92
685.78	264.48
685.91	262.14
686.05	212.99
686.19	168.52
686.32	220.01
686.46	196.60
686.60	184.90
686.73	299.59
686.87	194.26
687.01	308.95
687.14	227.03
687.28	208.31
687.42	140.43
687.55	163.84
687.69	243.42
687.82	220.01
687.96	163.84
688.10	238.73
688.23	135.75
688.37	220.01
688.50	168.52
688.64	161.50
688.78	227.03
688.91	138.09
689.05	194.26
689.18	112.35
689.32	224.69
689.46	149.79
689.59	135.75
689.73	126.39
689.86	177.88
690.00	170.86
690.13	168.52
690.27	201.29
690.41	175.54
690.54	154.48
690.68	170.86
690.81	201.29
690.95	259.80
691.08	173.20
691.22	163.84
691.35	217.67
691.49	149.79
691.62	166.18
691.76	198.95
691.89	180.22
692.03	245.76
692.16	250.44
692.30	266.82
692.43	442.36
692.57	1378.58
692.70	2724.38
692.84	3950.82
692.97	3985.93
693.11	2918.65
693.24	2150.95
693.38	1535.39
693.51	997.07
693.65	683.44
693.78	514.92
693.92	330.02
694.05	311.29
694.19	259.80
694.32	184.90
694.45	245.76
694.59	196.60
694.72	215.33
694.86	163.84
694.99	175.54
695.13	170.86
695.26	194.26
695.39	198.95
695.53	208.31
695.66	234.05
695.80	210.65
695.93	168.52
696.07	205.97
696.20	290.23
696.33	365.12
696.47	486.83
696.60	482.15
696.73	395.55
696.87	304.27
697.00	236.39
697.14	245.76
697.27	161.50
697.40	227.03
697.54	222.35
697.67	198.95
697.80	208.31
697.94	114.69
698.07	175.54
698.21	147.45
698.34	166.18
698.47	191.92
698.61	105.32
698.74	126.39
698.87	145.11
699.01	208.31
699.14	241.08
699.27	212.99
699.40	241.08
699.54	100.64
699.67	95.96
699.80	198.95
699.94	241.08
700.07	163.84
700.20	182.56
700.34	131.07
700.47	124.05
700.60	166.18
700.73	166.18
700.87	187.24
701.00	210.65
701.13	159.16
701.26	177.88
701.40	187.24
701.53	205.97
701.66	124.05
701.79	236.39
701.93	290.23
702.06	381.51
702.19	358.10
702.32	531.30
702.46	421.30
702.59	456.40
702.72	634.29
702.85	1806.89
702.99	4042.11
703.12	6583.93
703.25	8241.03
703.38	7019.27
703.51	5809.21
703.65	4561.70
703.78	3201.85
703.91	2108.82
704.04	1432.41
704.17	823.87
704.31	538.32
704.44	414.27
704.57	276.18
704.70	215.33
704.83	198.95
704.96	210.65
705.10	205.97
705.23	215.33
>>>>>End Processed Spectral Data<<<<<
