SpectraSuite Data File
++++++++++++++++++++++++++++++++++++
Date: Fri Oct 04 11:33:54 GMT-05:00 2013
User: price-jones
Dark Spectrum Present: No
Reference Spectrum Present: No
Number of Sampled Component Spectra: 1
Spectrometers: USB2+H05261
Integration Time (usec): 100000 (USB2+H05261)
Spectra Averaged: 1 (USB2+H05261)
Boxcar Smoothing: 0 (USB2+H05261)
Correct for Electrical Dark: No (USB2+H05261)
Strobe/Lamp Enabled: No (USB2+H05261)
Correct for Detector Non-linearity: No (USB2+H05261)
Correct for Stray Light: No (USB2+H05261)
Number of Pixels in Processed Spectrum: 2048
>>>>>Begin Processed Spectral Data<<<<<
365.73	86.60
365.92	86.60
366.12	86.60
366.32	0.00
366.52	0.00
366.72	51.49
366.91	0.00
367.11	0.00
367.31	0.00
367.51	0.00
367.70	0.00
367.90	7.02
368.10	0.00
368.30	0.00
368.49	0.00
368.69	0.00
368.89	7.02
369.09	0.00
369.28	0.00
369.48	0.00
369.68	28.09
369.87	7.02
370.07	0.00
370.27	42.13
370.47	58.51
370.66	72.56
370.86	4.68
371.06	65.54
371.25	131.07
371.45	124.05
371.65	140.43
371.84	142.77
372.04	95.96
372.24	86.60
372.44	28.09
372.63	117.03
372.83	198.95
373.03	177.88
373.22	124.05
373.42	210.65
373.62	161.50
373.81	107.66
374.01	112.35
374.21	154.48
374.40	154.48
374.60	163.84
374.79	161.50
374.99	173.20
375.19	114.69
375.38	138.09
375.58	168.52
375.78	182.56
375.97	175.54
376.17	222.35
376.37	79.58
376.56	140.43
376.76	152.13
376.95	102.98
377.15	166.18
377.35	107.66
377.54	187.24
377.74	175.54
377.93	175.54
378.13	173.20
378.33	170.86
378.52	131.07
378.72	229.37
378.91	196.60
379.11	124.05
379.31	88.94
379.50	107.66
379.70	177.88
379.89	133.41
380.09	124.05
380.28	124.05
380.48	142.77
380.68	194.26
380.87	114.69
381.07	133.41
381.26	182.56
381.46	100.64
381.65	140.43
381.85	163.84
382.04	196.60
382.24	182.56
382.43	156.82
382.63	135.75
382.83	126.39
383.02	163.84
383.22	184.90
383.41	147.45
383.61	107.66
383.80	168.52
384.00	156.82
384.19	95.96
384.39	112.35
384.58	194.26
384.78	131.07
384.97	133.41
385.17	114.69
385.36	145.11
385.56	131.07
385.75	98.30
385.95	126.39
386.14	166.18
386.34	166.18
386.53	140.43
386.72	105.32
386.92	194.26
387.11	210.65
387.31	119.37
387.50	107.66
387.70	138.09
387.89	88.94
388.09	126.39
388.28	173.20
388.48	102.98
388.67	124.05
388.86	154.48
389.06	145.11
389.25	142.77
389.45	112.35
389.64	100.64
389.84	166.18
390.03	170.86
390.22	114.69
390.42	140.43
390.61	189.58
390.81	154.48
391.00	156.82
391.19	133.41
391.39	147.45
391.58	135.75
391.78	152.13
391.97	133.41
392.16	70.22
392.36	212.99
392.55	145.11
392.75	131.07
392.94	93.62
393.13	177.88
393.33	149.79
393.52	135.75
393.71	159.16
393.91	159.16
394.10	126.39
394.29	175.54
394.49	180.22
394.68	212.99
394.88	170.86
395.07	222.35
395.26	182.56
395.46	93.62
395.65	163.84
395.84	117.03
396.04	236.39
396.23	175.54
396.42	119.37
396.62	98.30
396.81	152.13
397.00	138.09
397.19	140.43
397.39	102.98
397.58	196.60
397.77	133.41
397.97	159.16
398.16	166.18
398.35	196.60
398.55	145.11
398.74	114.69
398.93	154.48
399.12	49.15
399.32	147.45
399.51	142.77
399.70	191.92
399.90	114.69
400.09	147.45
400.28	194.26
400.47	95.96
400.67	168.52
400.86	74.90
401.05	161.50
401.24	175.54
401.44	187.24
401.63	184.90
401.82	170.86
402.01	46.81
402.21	205.97
402.40	234.05
402.59	156.82
402.78	184.90
402.97	161.50
403.17	138.09
403.36	194.26
403.55	133.41
403.74	187.24
403.93	182.56
404.13	222.35
404.32	252.78
404.51	156.82
404.70	234.05
404.89	184.90
405.09	191.92
405.28	149.79
405.47	159.16
405.66	126.39
405.85	175.54
406.05	112.35
406.24	168.52
406.43	217.67
406.62	187.24
406.81	184.90
407.00	173.20
407.20	154.48
407.39	140.43
407.58	142.77
407.77	173.20
407.96	161.50
408.15	166.18
408.34	147.45
408.54	126.39
408.73	217.67
408.92	152.13
409.11	187.24
409.30	168.52
409.49	142.77
409.68	163.84
409.87	168.52
410.07	124.05
410.26	210.65
410.45	133.41
410.64	135.75
410.83	159.16
411.02	194.26
411.21	161.50
411.40	187.24
411.59	154.48
411.78	81.92
411.98	166.18
412.17	91.28
412.36	173.20
412.55	168.52
412.74	166.18
412.93	280.86
413.12	227.03
413.31	189.58
413.50	156.82
413.69	189.58
413.88	227.03
414.07	184.90
414.26	201.29
414.45	180.22
414.64	189.58
414.83	224.69
415.02	163.84
415.22	182.56
415.41	194.26
415.60	117.03
415.79	194.26
415.98	187.24
416.17	161.50
416.36	161.50
416.55	117.03
416.74	140.43
416.93	194.26
417.12	147.45
417.31	124.05
417.50	201.29
417.69	245.76
417.88	266.82
418.07	238.73
418.26	229.37
418.45	210.65
418.64	252.78
418.83	259.80
419.02	210.65
419.21	234.05
419.39	229.37
419.58	252.78
419.77	205.97
419.96	220.01
420.15	182.56
420.34	128.73
420.53	149.79
420.72	159.16
420.91	184.90
421.10	180.22
421.29	196.60
421.48	159.16
421.67	203.63
421.86	175.54
422.05	147.45
422.24	173.20
422.43	156.82
422.61	196.60
422.80	152.13
422.99	159.16
423.18	170.86
423.37	163.84
423.56	170.86
423.75	191.92
423.94	121.71
424.13	77.24
424.32	79.58
424.50	184.90
424.69	173.20
424.88	184.90
425.07	198.95
425.26	208.31
425.45	187.24
425.64	280.86
425.83	224.69
426.01	231.71
426.20	243.42
426.39	220.01
426.58	119.37
426.77	128.73
426.96	283.20
427.15	220.01
427.33	215.33
427.52	156.82
427.71	184.90
427.90	147.45
428.09	161.50
428.28	177.88
428.46	184.90
428.65	177.88
428.84	140.43
429.03	215.33
429.22	126.39
429.40	135.75
429.59	131.07
429.78	234.05
429.97	72.56
430.16	135.75
430.34	227.03
430.53	180.22
430.72	121.71
430.91	198.95
431.10	131.07
431.28	177.88
431.47	255.12
431.66	191.92
431.85	166.18
432.03	198.95
432.22	119.37
432.41	102.98
432.60	196.60
432.79	313.63
432.97	283.20
433.16	304.27
433.35	266.82
433.54	177.88
433.72	147.45
433.91	243.42
434.10	264.48
434.28	241.08
434.47	234.05
434.66	215.33
434.85	220.01
435.03	184.90
435.22	287.89
435.41	388.53
435.59	388.53
435.78	315.97
435.97	220.01
436.16	187.24
436.34	140.43
436.53	177.88
436.72	238.73
436.90	208.31
437.09	180.22
437.28	163.84
437.46	194.26
437.65	121.71
437.84	248.10
438.02	203.63
438.21	175.54
438.40	140.43
438.58	189.58
438.77	196.60
438.96	161.50
439.14	231.71
439.33	278.52
439.52	131.07
439.70	184.90
439.89	140.43
440.08	222.35
440.26	152.13
440.45	170.86
440.63	201.29
440.82	177.88
441.01	234.05
441.19	149.79
441.38	159.16
441.57	159.16
441.75	212.99
441.94	201.29
442.12	140.43
442.31	184.90
442.50	135.75
442.68	194.26
442.87	156.82
443.05	131.07
443.24	149.79
443.43	234.05
443.61	191.92
443.80	131.07
443.98	177.88
444.17	145.11
444.35	189.58
444.54	128.73
444.73	149.79
444.91	292.57
445.10	191.92
445.28	224.69
445.47	156.82
445.65	210.65
445.84	220.01
446.02	142.77
446.21	189.58
446.39	236.39
446.58	222.35
446.77	154.48
446.95	194.26
447.14	180.22
447.32	208.31
447.51	205.97
447.69	133.41
447.88	234.05
448.06	229.37
448.25	187.24
448.43	121.71
448.62	177.88
448.80	152.13
448.99	229.37
449.17	180.22
449.36	243.42
449.54	180.22
449.73	142.77
449.91	203.63
450.10	212.99
450.28	248.10
450.46	208.31
450.65	234.05
450.83	191.92
451.02	217.67
451.20	241.08
451.39	217.67
451.57	187.24
451.76	154.48
451.94	194.26
452.13	283.20
452.31	117.03
452.49	220.01
452.68	196.60
452.86	152.13
453.05	285.55
453.23	191.92
453.42	166.18
453.60	212.99
453.78	234.05
453.97	159.16
454.15	187.24
454.34	114.69
454.52	152.13
454.70	255.12
454.89	241.08
455.07	142.77
455.26	149.79
455.44	126.39
455.62	110.01
455.81	138.09
455.99	243.42
456.17	292.57
456.36	259.80
456.54	156.82
456.73	210.65
456.91	173.20
457.09	231.71
457.28	271.50
457.46	201.29
457.64	259.80
457.83	140.43
458.01	191.92
458.19	217.67
458.38	173.20
458.56	243.42
458.74	198.95
458.93	177.88
459.11	205.97
459.29	175.54
459.48	131.07
459.66	145.11
459.84	149.79
460.03	259.80
460.21	142.77
460.39	184.90
460.57	133.41
460.76	147.45
460.94	212.99
461.12	304.27
461.31	175.54
461.49	220.01
461.67	131.07
461.85	234.05
462.04	170.86
462.22	660.03
462.40	170.86
462.59	255.12
462.77	142.77
462.95	208.31
463.13	159.16
463.32	161.50
463.50	271.50
463.68	241.08
463.86	215.33
464.05	208.31
464.23	259.80
464.41	152.13
464.59	147.45
464.78	168.52
464.96	273.84
465.14	196.60
465.32	140.43
465.50	163.84
465.69	276.18
465.87	128.73
466.05	121.71
466.23	196.60
466.41	177.88
466.60	236.39
466.78	191.92
466.96	285.55
467.14	217.67
467.32	191.92
467.51	142.77
467.69	187.24
467.87	215.33
468.05	243.42
468.23	238.73
468.41	252.78
468.60	159.16
468.78	201.29
468.96	215.33
469.14	168.52
469.32	149.79
469.50	161.50
469.69	177.88
469.87	220.01
470.05	182.56
470.23	243.42
470.41	189.58
470.59	173.20
470.77	212.99
470.95	161.50
471.14	215.33
471.32	163.84
471.50	222.35
471.68	159.16
471.86	180.22
472.04	180.22
472.22	238.73
472.40	177.88
472.58	140.43
472.77	229.37
472.95	182.56
473.13	234.05
473.31	212.99
473.49	152.13
473.67	107.66
473.85	231.71
474.03	201.29
474.21	175.54
474.39	191.92
474.57	168.52
474.75	182.56
474.93	191.92
475.12	255.12
475.30	196.60
475.48	166.18
475.66	170.86
475.84	203.63
476.02	201.29
476.20	231.71
476.38	145.11
476.56	252.78
476.74	191.92
476.92	163.84
477.10	198.95
477.28	173.20
477.46	210.65
477.64	222.35
477.82	152.13
478.00	248.10
478.18	187.24
478.36	175.54
478.54	191.92
478.72	264.48
478.90	194.26
479.08	224.69
479.26	191.92
479.44	262.14
479.62	236.39
479.80	236.39
479.98	241.08
480.16	306.61
480.34	287.89
480.52	191.92
480.70	222.35
480.88	238.73
481.06	243.42
481.24	224.69
481.41	184.90
481.59	182.56
481.77	243.42
481.95	241.08
482.13	220.01
482.31	170.86
482.49	241.08
482.67	280.86
482.85	255.12
483.03	299.59
483.21	245.76
483.39	212.99
483.57	210.65
483.74	320.65
483.92	243.42
484.10	243.42
484.28	229.37
484.46	308.95
484.64	191.92
484.82	175.54
485.00	248.10
485.18	187.24
485.35	215.33
485.53	248.10
485.71	255.12
485.89	201.29
486.07	220.01
486.25	180.22
486.43	264.48
486.61	306.61
486.78	271.50
486.96	177.88
487.14	238.73
487.32	231.71
487.50	198.95
487.68	280.86
487.85	170.86
488.03	259.80
488.21	250.44
488.39	276.18
488.57	264.48
488.75	194.26
488.92	496.19
489.10	285.55
489.28	248.10
489.46	145.11
489.64	222.35
489.81	245.76
489.99	208.31
490.17	236.39
490.35	320.65
490.53	276.18
490.70	224.69
490.88	222.35
491.06	297.25
491.24	376.83
491.41	250.44
491.59	280.86
491.77	227.03
491.95	229.37
492.13	278.52
492.30	189.58
492.48	196.60
492.66	227.03
492.84	229.37
493.01	255.12
493.19	227.03
493.37	304.27
493.54	278.52
493.72	229.37
493.90	280.86
494.08	177.88
494.25	271.50
494.43	297.25
494.61	231.71
494.79	210.65
494.96	212.99
495.14	201.29
495.32	294.91
495.49	280.86
495.67	294.91
495.85	229.37
496.02	257.46
496.20	273.84
496.38	250.44
496.55	276.18
496.73	280.86
496.91	266.82
497.09	245.76
497.26	255.12
497.44	320.65
497.62	297.25
497.79	220.01
497.97	269.16
498.14	304.27
498.32	283.20
498.50	196.60
498.67	184.90
498.85	255.12
499.03	224.69
499.20	292.57
499.38	255.12
499.56	238.73
499.73	332.36
499.91	327.68
500.08	273.84
500.26	257.46
500.44	241.08
500.61	234.05
500.79	248.10
500.97	248.10
501.14	266.82
501.32	266.82
501.49	273.84
501.67	262.14
501.84	257.46
502.02	245.76
502.20	280.86
502.37	236.39
502.55	259.80
502.72	208.31
502.90	245.76
503.07	301.93
503.25	290.23
503.43	231.71
503.60	341.72
503.78	294.91
503.95	337.04
504.13	210.65
504.30	287.89
504.48	276.18
504.65	367.46
504.83	285.55
505.01	215.33
505.18	245.76
505.36	250.44
505.53	180.22
505.71	322.99
505.88	322.99
506.06	306.61
506.23	276.18
506.41	259.80
506.58	280.86
506.76	229.37
506.93	241.08
507.11	290.23
507.28	273.84
507.46	229.37
507.63	224.69
507.81	280.86
507.98	262.14
508.16	262.14
508.33	280.86
508.50	245.76
508.68	189.58
508.85	285.55
509.03	229.37
509.20	180.22
509.38	245.76
509.55	308.95
509.73	297.25
509.90	283.20
510.08	238.73
510.25	266.82
510.42	180.22
510.60	220.01
510.77	245.76
510.95	301.93
511.12	322.99
511.30	297.25
511.47	320.65
511.64	280.86
511.82	262.14
511.99	273.84
512.17	315.97
512.34	208.31
512.51	259.80
512.69	201.29
512.86	330.02
513.04	304.27
513.21	266.82
513.38	301.93
513.56	250.44
513.73	198.95
513.90	227.03
514.08	276.18
514.25	327.68
514.43	217.67
514.60	264.48
514.77	304.27
514.95	294.91
515.12	322.99
515.29	227.03
515.47	283.20
515.64	292.57
515.81	269.16
515.99	297.25
516.16	217.67
516.33	243.42
516.51	248.10
516.68	182.56
516.85	231.71
517.03	243.42
517.20	252.78
517.37	337.04
517.54	252.78
517.72	273.84
517.89	241.08
518.06	198.95
518.24	325.33
518.41	292.57
518.58	278.52
518.75	306.61
518.93	294.91
519.10	280.86
519.27	374.49
519.45	250.44
519.62	280.86
519.79	250.44
519.96	276.18
520.14	259.80
520.31	280.86
520.48	322.99
520.65	355.76
520.83	292.57
521.00	285.55
521.17	308.95
521.34	224.69
521.52	257.46
521.69	255.12
521.86	290.23
522.03	320.65
522.20	257.46
522.38	182.56
522.55	264.48
522.72	222.35
522.89	215.33
523.07	320.65
523.24	222.35
523.41	184.90
523.58	236.39
523.75	283.20
523.92	231.71
524.10	257.46
524.27	255.12
524.44	257.46
524.61	257.46
524.78	224.69
524.96	259.80
525.13	290.23
525.30	344.06
525.47	334.70
525.64	285.55
525.81	287.89
525.98	283.20
526.16	170.86
526.33	238.73
526.50	212.99
526.67	159.16
526.84	276.18
527.01	182.56
527.18	201.29
527.36	308.95
527.53	212.99
527.70	252.78
527.87	276.18
528.04	313.63
528.21	315.97
528.38	297.25
528.55	245.76
528.72	299.59
528.89	301.93
529.07	248.10
529.24	306.61
529.41	327.68
529.58	283.20
529.75	217.67
529.92	222.35
530.09	273.84
530.26	238.73
530.43	262.14
530.60	308.95
530.77	262.14
530.94	294.91
531.11	236.39
531.28	283.20
531.46	315.97
531.63	257.46
531.80	341.72
531.97	297.25
532.14	252.78
532.31	255.12
532.48	308.95
532.65	379.17
532.82	423.64
532.99	496.19
533.16	425.98
533.33	404.91
533.50	299.59
533.67	393.21
533.84	440.02
534.01	435.34
534.18	369.80
534.35	346.40
534.52	238.73
534.69	425.98
534.86	278.52
535.03	238.73
535.20	278.52
535.37	318.31
535.54	313.63
535.71	250.44
535.88	372.15
536.05	308.95
536.22	297.25
536.38	297.25
536.55	264.48
536.72	280.86
536.89	299.59
537.06	341.72
537.23	330.02
537.40	369.80
537.57	360.44
537.74	278.52
537.91	318.31
538.08	358.10
538.25	322.99
538.42	334.70
538.59	306.61
538.75	346.40
538.92	320.65
539.09	332.36
539.26	367.46
539.43	559.39
539.60	1069.62
539.77	1764.76
539.94	2050.31
540.11	1296.66
540.28	807.48
540.44	699.82
540.61	456.40
540.78	416.62
540.95	470.45
541.12	561.73
541.29	444.70
541.46	524.28
541.62	500.87
541.79	477.47
541.96	484.49
542.13	430.66
542.30	475.13
542.47	505.56
542.63	505.56
542.80	454.06
542.97	477.47
543.14	470.45
543.31	425.98
543.48	505.56
543.64	533.64
543.81	493.85
543.98	416.62
544.15	449.38
544.32	465.77
544.48	484.49
544.65	400.23
544.82	440.02
544.99	475.13
545.16	543.00
545.32	465.77
545.49	688.12
545.66	847.27
545.83	922.17
546.00	847.27
546.16	681.10
546.33	582.79
546.50	470.45
546.67	533.64
546.83	468.11
547.00	416.62
547.17	337.04
547.34	376.83
547.50	348.74
547.67	341.72
547.84	322.99
548.00	344.06
548.17	362.78
548.34	362.78
548.51	369.80
548.67	381.51
548.84	348.74
549.01	365.12
549.18	294.91
549.34	386.19
549.51	248.10
549.68	435.34
549.84	381.51
550.01	355.76
550.18	496.19
550.34	493.85
550.51	355.76
550.68	346.40
550.84	278.52
551.01	327.68
551.18	358.10
551.34	344.06
551.51	313.63
551.68	360.44
551.84	374.49
552.01	313.63
552.18	285.55
552.34	266.82
552.51	308.95
552.68	355.76
552.84	285.55
553.01	318.31
553.18	325.33
553.34	313.63
553.51	290.23
553.67	315.97
553.84	311.29
554.01	301.93
554.17	369.80
554.34	322.99
554.51	313.63
554.67	292.57
554.84	266.82
555.00	348.74
555.17	292.57
555.33	294.91
555.50	187.24
555.67	311.29
555.83	269.16
556.00	290.23
556.16	425.98
556.33	362.78
556.50	252.78
556.66	294.91
556.83	252.78
556.99	299.59
557.16	259.80
557.32	259.80
557.49	285.55
557.65	285.55
557.82	236.39
557.98	315.97
558.15	182.56
558.32	220.01
558.48	255.12
558.65	322.99
558.81	294.91
558.98	301.93
559.14	315.97
559.31	346.40
559.47	355.76
559.64	278.52
559.80	234.05
559.97	278.52
560.13	231.71
560.30	290.23
560.46	285.55
560.63	285.55
560.79	308.95
560.96	278.52
561.12	243.42
561.29	271.50
561.45	283.20
561.61	266.82
561.78	294.91
561.94	201.29
562.11	241.08
562.27	337.04
562.44	257.46
562.60	248.10
562.77	285.55
562.93	322.99
563.10	292.57
563.26	287.89
563.42	395.55
563.59	257.46
563.75	248.10
563.92	308.95
564.08	236.39
564.24	241.08
564.41	269.16
564.57	248.10
564.74	344.06
564.90	248.10
565.07	273.84
565.23	294.91
565.39	337.04
565.56	264.48
565.72	311.29
565.88	304.27
566.05	255.12
566.21	315.97
566.38	255.12
566.54	248.10
566.70	217.67
566.87	252.78
567.03	308.95
567.19	252.78
567.36	264.48
567.52	238.73
567.68	292.57
567.85	262.14
568.01	271.50
568.17	266.82
568.34	292.57
568.50	297.25
568.66	248.10
568.83	320.65
568.99	252.78
569.15	252.78
569.32	212.99
569.48	245.76
569.64	285.55
569.81	278.52
569.97	198.95
570.13	273.84
570.30	182.56
570.46	243.42
570.62	220.01
570.78	175.54
570.95	238.73
571.11	259.80
571.27	348.74
571.43	299.59
571.60	287.89
571.76	243.42
571.92	297.25
572.09	241.08
572.25	217.67
572.41	269.16
572.57	236.39
572.74	334.70
572.90	222.35
573.06	264.48
573.22	198.95
573.38	273.84
573.55	269.16
573.71	283.20
573.87	334.70
574.03	217.67
574.20	231.71
574.36	311.29
574.52	297.25
574.68	383.85
574.84	299.59
575.01	266.82
575.17	278.52
575.33	131.07
575.49	332.36
575.65	369.80
575.82	390.87
575.98	589.82
576.14	678.76
576.30	912.81
576.46	772.38
576.62	615.56
576.79	578.11
576.95	447.04
577.11	341.72
577.27	264.48
577.43	304.27
577.59	358.10
577.75	294.91
577.92	386.19
578.08	344.06
578.24	327.68
578.40	332.36
578.56	482.15
578.72	451.72
578.88	400.23
579.04	400.23
579.21	297.25
579.37	362.78
579.53	395.55
579.69	376.83
579.85	341.72
580.01	470.45
580.17	393.21
580.33	512.58
580.49	411.93
580.65	465.77
580.82	402.57
580.98	372.15
581.14	423.64
581.30	535.98
581.46	552.37
581.62	648.33
581.78	704.50
581.94	697.48
582.10	580.45
582.26	521.94
582.42	514.92
582.58	526.62
582.74	517.26
582.90	617.90
583.06	603.86
583.22	547.69
583.38	608.54
583.54	575.77
583.70	798.12
583.86	770.04
584.02	805.14
584.18	1034.52
584.34	1355.17
584.50	3152.70
584.66	21376.11
584.82	56406.91
584.98	65535.00
585.14	65535.00
585.30	56156.47
585.46	33996.28
585.62	20711.40
585.78	9734.29
585.94	3901.67
586.10	1916.90
586.26	1165.59
586.42	992.39
586.58	795.78
586.74	774.72
586.90	727.91
587.06	751.31
587.22	660.03
587.38	648.33
587.54	1240.48
587.70	3454.63
587.86	6312.42
588.02	7850.16
588.18	5523.66
588.34	3473.36
588.49	2328.83
588.65	1453.47
588.81	772.38
588.97	559.39
589.13	390.87
589.29	444.70
589.45	369.80
589.61	397.89
589.77	418.96
589.93	561.73
590.08	535.98
590.24	512.58
590.40	517.26
590.56	512.58
590.72	390.87
590.88	458.74
591.04	503.22
591.20	425.98
591.35	416.62
591.51	320.65
591.67	360.44
591.83	339.38
591.99	433.00
592.15	409.59
592.31	390.87
592.46	355.76
592.62	421.30
592.78	367.46
592.94	433.00
593.10	386.19
593.26	444.70
593.41	477.47
593.57	447.04
593.73	599.18
593.89	2675.23
594.05	7368.01
594.20	12416.54
594.36	12723.15
594.52	8367.42
594.68	4943.21
594.84	3251.00
594.99	1905.20
595.15	966.64
595.31	514.92
595.47	489.17
595.62	372.15
595.78	414.27
595.94	456.40
596.10	397.89
596.25	407.25
596.41	456.40
596.57	360.44
596.73	348.74
596.88	638.97
597.04	1547.09
597.20	2586.29
597.36	3363.35
597.51	2469.27
597.67	1664.12
597.83	1158.57
597.99	828.55
598.14	491.51
598.30	486.83
598.46	409.59
598.61	482.15
598.77	397.89
598.93	395.55
599.09	465.77
599.24	418.96
599.40	334.70
599.56	332.36
599.71	395.55
599.87	301.93
600.03	418.96
600.18	376.83
600.34	355.76
600.50	271.50
600.65	322.99
600.81	304.27
600.97	304.27
601.12	311.29
601.28	325.33
601.44	320.65
601.59	332.36
601.75	348.74
601.91	238.73
602.06	287.89
602.22	400.23
602.37	730.25
602.53	1795.19
602.69	3023.97
602.84	3323.56
603.00	2565.23
603.16	1685.19
603.31	1153.88
603.47	823.87
603.62	538.32
603.78	404.91
603.94	341.72
604.09	311.29
604.25	341.72
604.40	290.23
604.56	308.95
604.71	299.59
604.87	332.36
605.03	425.98
605.18	358.10
605.34	346.40
605.49	315.97
605.65	353.42
605.80	308.95
605.96	318.31
606.12	313.63
606.27	301.93
606.43	444.70
606.58	507.90
606.74	882.38
606.89	3251.00
607.05	7372.69
607.20	11002.86
607.36	9394.91
607.51	6338.17
607.67	3918.06
607.82	2609.70
607.98	1579.86
608.13	835.57
608.29	580.45
608.44	512.58
608.60	528.96
608.75	575.77
608.91	1188.99
609.06	5036.83
609.22	12437.61
609.37	19028.56
609.53	17642.96
609.68	11414.79
609.84	7066.08
609.99	4727.88
610.15	2693.96
610.30	1394.96
610.46	1074.31
610.61	943.24
610.76	919.83
610.92	1050.90
611.07	973.66
611.23	1076.65
611.38	1006.43
611.54	884.72
611.69	816.85
611.84	739.61
612.00	681.10
612.15	702.16
612.31	760.67
612.46	870.68
612.62	1067.28
612.77	1004.09
612.92	842.59
613.08	760.67
613.23	653.01
613.39	765.36
613.54	994.73
613.69	4358.08
613.85	14176.62
614.00	26597.85
614.15	31477.86
614.31	21853.58
614.46	13774.05
614.62	9195.96
614.77	5483.88
614.92	2565.23
615.08	1287.29
615.23	905.79
615.38	645.99
615.54	571.09
615.69	983.02
615.84	2775.88
616.00	5701.54
616.15	8030.38
616.30	6733.72
616.46	4521.92
616.61	2986.52
616.76	2029.24
616.92	1233.46
617.07	664.71
617.22	526.62
617.37	468.11
617.53	430.66
617.68	374.49
617.83	379.17
617.99	423.64
618.14	435.34
618.29	386.19
618.45	379.17
618.60	374.49
618.75	327.68
618.90	290.23
619.06	255.12
619.21	358.10
619.36	397.89
619.51	292.57
619.67	332.36
619.82	294.91
619.97	290.23
620.12	311.29
620.28	348.74
620.43	362.78
620.58	320.65
620.73	383.85
620.89	447.04
621.04	601.52
621.19	1549.43
621.34	3112.91
621.49	4582.77
621.65	4276.16
621.80	2897.58
621.95	1916.90
622.10	1359.85
622.25	837.91
622.41	636.63
622.56	404.91
622.71	301.93
622.86	353.42
623.01	322.99
623.16	353.42
623.32	292.57
623.47	259.80
623.62	301.93
623.77	297.25
623.92	301.93
624.07	327.68
624.23	334.70
624.38	297.25
624.53	327.68
624.68	379.17
624.83	386.19
624.98	325.33
625.13	313.63
625.29	440.02
625.44	341.72
625.59	428.32
625.74	449.38
625.89	648.33
626.04	2291.38
626.19	6913.94
626.34	12784.01
626.49	16231.62
626.65	11800.98
626.80	7974.21
626.95	5179.61
627.10	3169.09
627.25	1717.95
627.40	774.72
627.55	526.62
627.70	367.46
627.85	322.99
628.00	369.80
628.15	383.85
628.30	297.25
628.45	287.89
628.60	318.31
628.76	257.46
628.91	344.06
629.06	311.29
629.21	285.55
629.36	341.72
629.51	308.95
629.66	397.89
629.81	503.22
629.96	1322.40
630.11	2698.64
630.26	3967.21
630.41	3943.80
630.56	2686.94
630.71	1827.96
630.86	1406.66
631.01	828.55
631.16	538.32
631.31	503.22
631.46	428.32
631.61	320.65
631.76	355.76
631.91	330.02
632.06	341.72
632.21	337.04
632.36	332.36
632.51	449.38
632.66	416.62
632.81	1210.06
632.96	3714.43
633.10	7740.15
633.25	10684.55
633.40	8964.25
633.55	6050.28
633.70	3918.06
633.85	2576.93
634.00	1521.35
634.15	788.76
634.30	535.98
634.45	393.21
634.60	304.27
634.75	362.78
634.90	318.31
635.05	325.33
635.19	334.70
635.34	425.98
635.49	339.38
635.64	294.91
635.79	325.33
635.94	304.27
636.09	325.33
636.24	322.99
636.39	273.84
636.53	304.27
636.68	351.08
636.83	334.70
636.98	362.78
637.13	386.19
637.28	416.62
637.43	489.17
637.57	720.88
637.72	2960.78
637.87	9200.65
638.02	16971.22
638.17	21341.00
638.32	15110.50
638.46	9870.04
638.61	6602.65
638.76	4142.75
638.91	2146.27
639.06	1088.35
639.20	774.72
639.35	681.10
639.50	1039.20
639.65	4545.32
639.80	13912.14
639.94	25771.64
640.09	32004.49
640.24	23468.55
640.39	15133.90
640.54	10008.13
640.68	5902.83
640.83	2913.97
640.98	1256.87
641.13	814.51
641.27	557.05
641.42	470.45
641.57	444.70
641.72	404.91
641.86	402.57
642.01	330.02
642.16	383.85
642.31	280.86
642.45	315.97
642.60	290.23
642.75	266.82
642.90	334.70
643.04	238.73
643.19	194.26
643.34	257.46
643.48	292.57
643.63	290.23
643.78	306.61
643.93	287.89
644.07	245.76
644.22	278.52
644.37	224.69
644.51	285.55
644.66	252.78
644.81	205.97
644.95	248.10
645.10	243.42
645.25	203.63
645.39	292.57
645.54	255.12
645.69	271.50
645.83	229.37
645.98	358.10
646.13	248.10
646.27	208.31
646.42	203.63
646.57	234.05
646.71	301.93
646.86	266.82
647.00	294.91
647.15	264.48
647.30	266.82
647.44	287.89
647.59	212.99
647.74	238.73
647.88	215.33
648.03	322.99
648.17	234.05
648.32	262.14
648.47	210.65
648.61	189.58
648.76	217.67
648.90	229.37
649.05	191.92
649.20	255.12
649.34	262.14
649.49	250.44
649.63	229.37
649.78	351.08
649.92	524.28
650.07	1734.34
650.21	6090.07
650.36	12105.25
650.51	15800.96
650.65	13212.32
650.80	9385.55
650.94	5865.38
651.09	3653.58
651.23	1902.86
651.38	1022.81
651.52	601.52
651.67	433.00
651.81	351.08
651.96	287.89
652.10	308.95
652.25	220.01
652.39	362.78
652.54	355.76
652.68	653.01
652.83	1891.15
652.97	3934.44
653.12	5687.50
653.26	5383.23
653.41	3742.52
653.55	2551.18
653.70	1713.27
653.84	976.00
653.99	606.20
654.13	360.44
654.27	297.25
654.42	231.71
654.56	250.44
654.71	234.05
654.85	203.63
655.00	238.73
655.14	205.97
655.29	215.33
655.43	276.18
655.57	257.46
655.72	241.08
655.86	248.10
656.01	262.14
656.15	227.03
656.30	248.10
656.44	227.03
656.58	241.08
656.73	210.65
656.87	236.39
657.01	147.45
657.16	238.73
657.30	276.18
657.45	315.97
657.59	271.50
657.73	222.35
657.88	257.46
658.02	280.86
658.16	234.05
658.31	257.46
658.45	262.14
658.60	276.18
658.74	224.69
658.88	269.16
659.03	299.59
659.17	393.21
659.31	877.70
659.46	2745.45
659.60	5554.09
659.74	7999.95
659.89	7246.30
660.03	5217.05
660.17	3485.06
660.32	2176.70
660.46	1301.34
660.60	746.63
660.74	479.81
660.89	360.44
661.03	257.46
661.17	238.73
661.32	180.22
661.46	262.14
661.60	236.39
661.74	245.76
661.89	344.06
662.03	271.50
662.17	248.10
662.31	276.18
662.46	234.05
662.60	266.82
662.74	210.65
662.88	224.69
663.03	229.37
663.17	182.56
663.31	201.29
663.45	227.03
663.60	243.42
663.74	215.33
663.88	217.67
664.02	215.33
664.17	220.01
664.31	222.35
664.45	269.16
664.59	184.90
664.73	332.36
664.88	285.55
665.02	264.48
665.16	257.46
665.30	337.04
665.44	276.18
665.59	269.16
665.73	182.56
665.87	313.63
666.01	222.35
666.15	248.10
666.29	241.08
666.44	304.27
666.58	292.57
666.72	187.24
666.86	330.02
667.00	409.59
667.14	486.83
667.28	1657.10
667.43	5114.07
667.57	9989.41
667.71	14143.86
667.85	11964.82
667.99	8952.55
668.13	5582.18
668.27	3190.15
668.41	1844.34
668.56	1036.86
668.70	730.25
668.84	470.45
668.98	337.04
669.12	290.23
669.26	313.63
669.40	337.04
669.54	339.38
669.68	304.27
669.82	238.73
669.96	273.84
670.10	259.80
670.25	301.93
670.39	245.76
670.53	189.58
670.67	252.78
670.81	283.20
670.95	278.52
671.09	514.92
671.23	1909.88
671.37	4510.21
671.51	7545.89
671.65	8933.82
671.79	6883.52
671.93	4819.16
672.07	2970.14
672.21	1727.32
672.35	1032.18
672.49	662.37
672.63	477.47
672.77	360.44
672.91	315.97
673.05	222.35
673.19	278.52
673.33	220.01
673.47	290.23
673.61	262.14
673.75	159.16
673.89	220.01
674.03	220.01
674.17	217.67
674.31	222.35
674.45	217.67
674.59	196.60
674.73	273.84
674.87	292.57
675.01	264.48
675.15	280.86
675.29	379.17
675.43	320.65
675.56	334.70
675.70	187.24
675.84	196.60
675.98	163.84
676.12	262.14
676.26	187.24
676.40	149.79
676.54	229.37
676.68	255.12
676.82	210.65
676.96	285.55
677.10	170.86
677.23	180.22
677.37	245.76
677.51	189.58
677.65	292.57
677.79	201.29
677.93	182.56
678.07	152.13
678.21	220.01
678.34	168.52
678.48	95.96
678.62	205.97
678.76	189.58
678.90	180.22
679.04	177.88
679.18	124.05
679.31	149.79
679.45	152.13
679.59	224.69
679.73	280.86
679.87	182.56
680.00	135.75
680.14	198.95
680.28	276.18
680.42	222.35
680.56	182.56
680.70	177.88
680.83	156.82
680.97	187.24
681.11	203.63
681.25	161.50
681.39	147.45
681.52	212.99
681.66	208.31
681.80	159.16
681.94	170.86
682.07	159.16
682.21	238.73
682.35	93.62
682.49	175.54
682.62	166.18
682.76	180.22
682.90	182.56
683.04	231.71
683.17	259.80
683.31	156.82
683.45	191.92
683.59	138.09
683.72	255.12
683.86	135.75
684.00	140.43
684.13	250.44
684.27	175.54
684.41	236.39
684.55	187.24
684.68	145.11
684.82	180.22
684.96	173.20
685.09	224.69
685.23	182.56
685.37	152.13
685.50	203.63
685.64	194.26
685.78	140.43
685.91	177.88
686.05	166.18
686.19	208.31
686.32	212.99
686.46	121.71
686.60	177.88
686.73	227.03
686.87	294.91
687.01	212.99
687.14	292.57
687.28	313.63
687.42	205.97
687.55	210.65
687.69	255.12
687.82	203.63
687.96	201.29
688.10	264.48
688.23	248.10
688.37	168.52
688.50	208.31
688.64	201.29
688.78	222.35
688.91	224.69
689.05	224.69
689.18	170.86
689.32	220.01
689.46	126.39
689.59	234.05
689.73	231.71
689.86	140.43
690.00	149.79
690.13	93.62
690.27	182.56
690.41	154.48
690.54	189.58
690.68	177.88
690.81	189.58
690.95	177.88
691.08	149.79
691.22	95.96
691.35	175.54
691.49	147.45
691.62	236.39
691.76	222.35
691.89	194.26
692.03	152.13
692.16	159.16
692.30	292.57
692.43	720.88
692.57	2141.59
692.70	4049.13
692.84	5982.41
692.97	5680.48
693.11	4280.84
693.24	3021.63
693.38	2181.38
693.51	1432.41
693.65	978.34
693.78	657.69
693.92	390.87
694.05	290.23
694.19	252.78
694.32	201.29
694.45	255.12
694.59	154.48
694.72	161.50
694.86	114.69
694.99	198.95
695.13	100.64
695.26	205.97
695.39	156.82
695.53	241.08
695.66	229.37
695.80	294.91
695.93	170.86
696.07	203.63
696.20	332.36
696.33	545.34
696.47	610.88
696.60	498.53
696.73	484.49
696.87	390.87
697.00	379.17
697.14	322.99
697.27	241.08
697.40	245.76
697.54	177.88
697.67	212.99
697.80	245.76
697.94	212.99
698.07	138.09
698.21	194.26
698.34	159.16
698.47	182.56
698.61	156.82
698.74	201.29
698.87	210.65
699.01	189.58
699.14	236.39
699.27	184.90
699.40	271.50
699.54	173.20
699.67	210.65
699.80	180.22
699.94	222.35
700.07	210.65
700.20	201.29
700.34	180.22
700.47	217.67
700.60	203.63
700.73	163.84
700.87	227.03
701.00	215.33
701.13	191.92
701.26	177.88
701.40	201.29
701.53	257.46
701.66	229.37
701.79	201.29
701.93	198.95
702.06	393.21
702.19	468.11
702.32	545.34
702.46	624.92
702.59	545.34
702.72	821.53
702.85	2764.17
702.99	6064.33
703.12	9898.13
703.25	12278.45
703.38	10499.64
703.51	8381.46
703.65	6705.63
703.78	4561.70
703.91	3054.40
704.04	1886.47
704.17	1191.33
704.31	758.33
704.44	514.92
704.57	318.31
704.70	308.95
704.83	227.03
704.96	236.39
705.10	262.14
705.23	189.58
>>>>>End Processed Spectral Data<<<<<
