SpectraSuite Data File
++++++++++++++++++++++++++++++++++++
Date: Fri Oct 04 11:33:54 GMT-05:00 2013
User: price-jones
Dark Spectrum Present: No
Reference Spectrum Present: No
Number of Sampled Component Spectra: 1
Spectrometers: USB2+H05261
Integration Time (usec): 100000 (USB2+H05261)
Spectra Averaged: 1 (USB2+H05261)
Boxcar Smoothing: 0 (USB2+H05261)
Correct for Electrical Dark: No (USB2+H05261)
Strobe/Lamp Enabled: No (USB2+H05261)
Correct for Detector Non-linearity: No (USB2+H05261)
Correct for Stray Light: No (USB2+H05261)
Number of Pixels in Processed Spectrum: 2048
>>>>>Begin Processed Spectral Data<<<<<
365.73	110.01
365.92	110.01
366.12	110.01
366.32	0.00
366.52	0.00
366.72	0.00
366.91	0.00
367.11	0.00
367.31	4.68
367.51	0.00
367.70	18.72
367.90	0.00
368.10	0.00
368.30	11.70
368.49	0.00
368.69	0.00
368.89	0.00
369.09	0.00
369.28	0.00
369.48	0.00
369.68	0.00
369.87	0.00
370.07	0.00
370.27	79.58
370.47	74.90
370.66	60.85
370.86	100.64
371.06	67.88
371.25	147.45
371.45	74.90
371.65	128.73
371.84	88.94
372.04	163.84
372.24	65.54
372.44	44.47
372.63	124.05
372.83	170.86
373.03	133.41
373.22	154.48
373.42	140.43
373.62	154.48
373.81	147.45
374.01	140.43
374.21	196.60
374.40	126.39
374.60	220.01
374.79	95.96
374.99	156.82
375.19	156.82
375.38	147.45
375.58	105.32
375.78	217.67
375.97	182.56
376.17	170.86
376.37	177.88
376.56	194.26
376.76	140.43
376.95	166.18
377.15	191.92
377.35	156.82
377.54	166.18
377.74	112.35
377.93	145.11
378.13	126.39
378.33	58.51
378.52	100.64
378.72	175.54
378.91	154.48
379.11	114.69
379.31	128.73
379.50	105.32
379.70	135.75
379.89	147.45
380.09	147.45
380.28	51.49
380.48	140.43
380.68	126.39
380.87	147.45
381.07	180.22
381.26	114.69
381.46	191.92
381.65	119.37
381.85	135.75
382.04	187.24
382.24	184.90
382.43	63.19
382.63	152.13
382.83	149.79
383.02	189.58
383.22	147.45
383.41	95.96
383.61	182.56
383.80	159.16
384.00	100.64
384.19	142.77
384.39	152.13
384.58	124.05
384.78	184.90
384.97	184.90
385.17	142.77
385.36	161.50
385.56	177.88
385.75	138.09
385.95	126.39
386.14	67.88
386.34	163.84
386.53	93.62
386.72	98.30
386.92	191.92
387.11	131.07
387.31	121.71
387.50	39.79
387.70	114.69
387.89	145.11
388.09	145.11
388.28	168.52
388.48	131.07
388.67	177.88
388.86	119.37
389.06	79.58
389.25	189.58
389.45	145.11
389.64	140.43
389.84	110.01
390.03	140.43
390.22	117.03
390.42	133.41
390.61	110.01
390.81	154.48
391.00	131.07
391.19	177.88
391.39	159.16
391.58	210.65
391.78	241.08
391.97	229.37
392.16	107.66
392.36	184.90
392.55	227.03
392.75	105.32
392.94	147.45
393.13	156.82
393.33	112.35
393.52	107.66
393.71	159.16
393.91	140.43
394.10	102.98
394.29	243.42
394.49	145.11
394.68	217.67
394.88	236.39
395.07	184.90
395.26	152.13
395.46	210.65
395.65	196.60
395.84	173.20
396.04	154.48
396.23	170.86
396.42	145.11
396.62	147.45
396.81	175.54
397.00	177.88
397.19	163.84
397.39	74.90
397.58	112.35
397.77	138.09
397.97	208.31
398.16	241.08
398.35	198.95
398.55	114.69
398.74	173.20
398.93	196.60
399.12	159.16
399.32	79.58
399.51	161.50
399.70	187.24
399.90	159.16
400.09	210.65
400.28	180.22
400.47	163.84
400.67	152.13
400.86	121.71
401.05	212.99
401.24	65.54
401.44	156.82
401.63	191.92
401.82	126.39
402.01	112.35
402.21	154.48
402.40	147.45
402.59	182.56
402.78	161.50
402.97	84.26
403.17	170.86
403.36	166.18
403.55	140.43
403.74	102.98
403.93	203.63
404.13	241.08
404.32	184.90
404.51	208.31
404.70	205.97
404.89	161.50
405.09	191.92
405.28	112.35
405.47	133.41
405.66	168.52
405.85	177.88
406.05	175.54
406.24	112.35
406.43	159.16
406.62	145.11
406.81	236.39
407.00	177.88
407.20	175.54
407.39	210.65
407.58	170.86
407.77	191.92
407.96	196.60
408.15	170.86
408.34	166.18
408.54	182.56
408.73	140.43
408.92	159.16
409.11	187.24
409.30	222.35
409.49	135.75
409.68	124.05
409.87	105.32
410.07	161.50
410.26	184.90
410.45	198.95
410.64	198.95
410.83	152.13
411.02	117.03
411.21	149.79
411.40	201.29
411.59	208.31
411.78	194.26
411.98	147.45
412.17	175.54
412.36	142.77
412.55	102.98
412.74	128.73
412.93	180.22
413.12	182.56
413.31	191.92
413.50	234.05
413.69	198.95
413.88	156.82
414.07	156.82
414.26	215.33
414.45	170.86
414.64	175.54
414.83	201.29
415.02	128.73
415.22	135.75
415.41	215.33
415.60	128.73
415.79	145.11
415.98	198.95
416.17	210.65
416.36	224.69
416.55	112.35
416.74	224.69
416.93	184.90
417.12	128.73
417.31	128.73
417.50	224.69
417.69	252.78
417.88	215.33
418.07	189.58
418.26	271.50
418.45	149.79
418.64	227.03
418.83	280.86
419.02	212.99
419.21	252.78
419.39	229.37
419.58	161.50
419.77	208.31
419.96	252.78
420.15	170.86
420.34	194.26
420.53	161.50
420.72	227.03
420.91	163.84
421.10	163.84
421.29	154.48
421.48	203.63
421.67	121.71
421.86	145.11
422.05	250.44
422.24	98.30
422.43	135.75
422.61	121.71
422.80	173.20
422.99	114.69
423.18	227.03
423.37	215.33
423.56	180.22
423.75	196.60
423.94	189.58
424.13	201.29
424.32	182.56
424.50	189.58
424.69	217.67
424.88	248.10
425.07	133.41
425.26	210.65
425.45	222.35
425.64	220.01
425.83	243.42
426.01	236.39
426.20	250.44
426.39	217.67
426.58	168.52
426.77	203.63
426.96	229.37
427.15	173.20
427.33	161.50
427.52	133.41
427.71	98.30
427.90	180.22
428.09	175.54
428.28	128.73
428.46	110.01
428.65	238.73
428.84	196.60
429.03	238.73
429.22	203.63
429.40	175.54
429.59	81.92
429.78	168.52
429.97	133.41
430.16	133.41
430.34	243.42
430.53	159.16
430.72	147.45
430.91	215.33
431.10	191.92
431.28	79.58
431.47	245.76
431.66	168.52
431.85	112.35
432.03	166.18
432.22	187.24
432.41	189.58
432.60	198.95
432.79	234.05
432.97	276.18
433.16	297.25
433.35	280.86
433.54	252.78
433.72	194.26
433.91	166.18
434.10	161.50
434.28	234.05
434.47	182.56
434.66	170.86
434.85	163.84
435.03	217.67
435.22	325.33
435.41	407.25
435.59	341.72
435.78	390.87
435.97	241.08
436.16	212.99
436.34	184.90
436.53	208.31
436.72	210.65
436.90	191.92
437.09	133.41
437.28	191.92
437.46	234.05
437.65	191.92
437.84	191.92
438.02	285.55
438.21	161.50
438.40	168.52
438.58	147.45
438.77	208.31
438.96	201.29
439.14	170.86
439.33	159.16
439.52	189.58
439.70	124.05
439.89	128.73
440.08	208.31
440.26	255.12
440.45	243.42
440.63	163.84
440.82	201.29
441.01	161.50
441.19	252.78
441.38	196.60
441.57	220.01
441.75	203.63
441.94	145.11
442.12	175.54
442.31	175.54
442.50	140.43
442.68	159.16
442.87	180.22
443.05	229.37
443.24	168.52
443.43	159.16
443.61	201.29
443.80	208.31
443.98	145.11
444.17	133.41
444.35	266.82
444.54	201.29
444.73	177.88
444.91	189.58
445.10	212.99
445.28	170.86
445.47	196.60
445.65	175.54
445.84	194.26
446.02	168.52
446.21	182.56
446.39	163.84
446.58	191.92
446.77	212.99
446.95	241.08
447.14	177.88
447.32	203.63
447.51	121.71
447.69	208.31
447.88	212.99
448.06	187.24
448.25	203.63
448.43	173.20
448.62	191.92
448.80	159.16
448.99	241.08
449.17	198.95
449.36	163.84
449.54	189.58
449.73	166.18
449.91	231.71
450.10	184.90
450.28	222.35
450.46	252.78
450.65	248.10
450.83	252.78
451.02	264.48
451.20	177.88
451.39	236.39
451.57	196.60
451.76	201.29
451.94	210.65
452.13	222.35
452.31	201.29
452.49	194.26
452.68	105.32
452.86	124.05
453.05	229.37
453.23	285.55
453.42	196.60
453.60	161.50
453.78	163.84
453.97	210.65
454.15	220.01
454.34	205.97
454.52	84.26
454.70	180.22
454.89	147.45
455.07	131.07
455.26	163.84
455.44	175.54
455.62	227.03
455.81	154.48
455.99	257.46
456.17	170.86
456.36	180.22
456.54	138.09
456.73	166.18
456.91	152.13
457.09	198.95
457.28	241.08
457.46	227.03
457.64	163.84
457.83	184.90
458.01	163.84
458.19	245.76
458.38	180.22
458.56	152.13
458.74	224.69
458.93	180.22
459.11	180.22
459.29	217.67
459.48	212.99
459.66	341.72
459.84	248.10
460.03	299.59
460.21	227.03
460.39	168.52
460.57	231.71
460.76	196.60
460.94	149.79
461.12	215.33
461.31	177.88
461.49	189.58
461.67	140.43
461.85	257.46
462.04	135.75
462.22	624.92
462.40	159.16
462.59	259.80
462.77	140.43
462.95	170.86
463.13	198.95
463.32	201.29
463.50	276.18
463.68	252.78
463.86	154.48
464.05	220.01
464.23	189.58
464.41	234.05
464.59	156.82
464.78	180.22
464.96	217.67
465.14	194.26
465.32	145.11
465.50	245.76
465.69	198.95
465.87	184.90
466.05	278.52
466.23	170.86
466.41	180.22
466.60	269.16
466.78	198.95
466.96	191.92
467.14	220.01
467.32	215.33
467.51	191.92
467.69	145.11
467.87	191.92
468.05	210.65
468.23	245.76
468.41	198.95
468.60	124.05
468.78	259.80
468.96	173.20
469.14	154.48
469.32	135.75
469.50	152.13
469.69	227.03
469.87	269.16
470.05	210.65
470.23	220.01
470.41	208.31
470.59	208.31
470.77	234.05
470.95	175.54
471.14	234.05
471.32	189.58
471.50	250.44
471.68	191.92
471.86	168.52
472.04	173.20
472.22	222.35
472.40	145.11
472.58	203.63
472.77	187.24
472.95	217.67
473.13	203.63
473.31	198.95
473.49	142.77
473.67	126.39
473.85	217.67
474.03	224.69
474.21	264.48
474.39	283.20
474.57	184.90
474.75	241.08
474.93	210.65
475.12	191.92
475.30	131.07
475.48	182.56
475.66	117.03
475.84	135.75
476.02	182.56
476.20	236.39
476.38	145.11
476.56	292.57
476.74	156.82
476.92	215.33
477.10	159.16
477.28	220.01
477.46	229.37
477.64	243.42
477.82	128.73
478.00	257.46
478.18	220.01
478.36	243.42
478.54	201.29
478.72	215.33
478.90	196.60
479.08	271.50
479.26	161.50
479.44	184.90
479.62	220.01
479.80	283.20
479.98	229.37
480.16	250.44
480.34	227.03
480.52	173.20
480.70	147.45
480.88	184.90
481.06	182.56
481.24	252.78
481.41	222.35
481.59	224.69
481.77	229.37
481.95	187.24
482.13	238.73
482.31	266.82
482.49	243.42
482.67	217.67
482.85	191.92
483.03	201.29
483.21	161.50
483.39	189.58
483.57	180.22
483.74	273.84
483.92	285.55
484.10	187.24
484.28	203.63
484.46	182.56
484.64	280.86
484.82	245.76
485.00	227.03
485.18	327.68
485.35	245.76
485.53	184.90
485.71	241.08
485.89	215.33
486.07	283.20
486.25	224.69
486.43	212.99
486.61	341.72
486.78	234.05
486.96	259.80
487.14	287.89
487.32	205.97
487.50	224.69
487.68	156.82
487.85	262.14
488.03	341.72
488.21	259.80
488.39	271.50
488.57	280.86
488.75	250.44
488.92	510.24
489.10	278.52
489.28	297.25
489.46	166.18
489.64	241.08
489.81	245.76
489.99	294.91
490.17	313.63
490.35	320.65
490.53	229.37
490.70	224.69
490.88	315.97
491.06	269.16
491.24	351.08
491.41	259.80
491.59	229.37
491.77	255.12
491.95	224.69
492.13	234.05
492.30	250.44
492.48	217.67
492.66	243.42
492.84	198.95
493.01	269.16
493.19	269.16
493.37	330.02
493.54	292.57
493.72	215.33
493.90	205.97
494.08	180.22
494.25	229.37
494.43	262.14
494.61	241.08
494.79	250.44
494.96	262.14
495.14	290.23
495.32	273.84
495.49	241.08
495.67	337.04
495.85	205.97
496.02	173.20
496.20	257.46
496.38	318.31
496.55	271.50
496.73	224.69
496.91	257.46
497.09	269.16
497.26	292.57
497.44	245.76
497.62	276.18
497.79	311.29
497.97	252.78
498.14	315.97
498.32	264.48
498.50	236.39
498.67	238.73
498.85	262.14
499.03	248.10
499.20	283.20
499.38	231.71
499.56	243.42
499.73	290.23
499.91	248.10
500.08	264.48
500.26	330.02
500.44	229.37
500.61	285.55
500.79	287.89
500.97	273.84
501.14	407.25
501.32	264.48
501.49	245.76
501.67	184.90
501.84	301.93
502.02	264.48
502.20	285.55
502.37	259.80
502.55	224.69
502.72	292.57
502.90	297.25
503.07	276.18
503.25	212.99
503.43	290.23
503.60	264.48
503.78	245.76
503.95	163.84
504.13	208.31
504.30	259.80
504.48	170.86
504.65	287.89
504.83	259.80
505.01	252.78
505.18	252.78
505.36	241.08
505.53	278.52
505.71	250.44
505.88	243.42
506.06	243.42
506.23	229.37
506.41	212.99
506.58	269.16
506.76	285.55
506.93	266.82
507.11	266.82
507.28	236.39
507.46	241.08
507.63	287.89
507.81	220.01
507.98	278.52
508.16	276.18
508.33	210.65
508.50	222.35
508.68	217.67
508.85	280.86
509.03	341.72
509.20	334.70
509.38	227.03
509.55	252.78
509.73	339.38
509.90	297.25
510.08	217.67
510.25	259.80
510.42	217.67
510.60	276.18
510.77	322.99
510.95	297.25
511.12	264.48
511.30	287.89
511.47	344.06
511.64	376.83
511.82	269.16
511.99	308.95
512.17	163.84
512.34	217.67
512.51	201.29
512.69	227.03
512.86	280.86
513.04	238.73
513.21	241.08
513.38	231.71
513.56	238.73
513.73	229.37
513.90	231.71
514.08	227.03
514.25	266.82
514.43	292.57
514.60	208.31
514.77	259.80
514.95	315.97
515.12	269.16
515.29	250.44
515.47	269.16
515.64	320.65
515.81	278.52
515.99	313.63
516.16	297.25
516.33	344.06
516.51	227.03
516.68	191.92
516.85	269.16
517.03	285.55
517.20	259.80
517.37	252.78
517.54	278.52
517.72	264.48
517.89	269.16
518.06	245.76
518.24	308.95
518.41	313.63
518.58	290.23
518.75	276.18
518.93	234.05
519.10	241.08
519.27	236.39
519.45	259.80
519.62	184.90
519.79	280.86
519.96	269.16
520.14	238.73
520.31	322.99
520.48	208.31
520.65	330.02
520.83	337.04
521.00	304.27
521.17	344.06
521.34	285.55
521.52	311.29
521.69	269.16
521.86	304.27
522.03	322.99
522.20	351.08
522.38	287.89
522.55	294.91
522.72	255.12
522.89	241.08
523.07	315.97
523.24	292.57
523.41	290.23
523.58	241.08
523.75	252.78
523.92	248.10
524.10	292.57
524.27	189.58
524.44	210.65
524.61	257.46
524.78	250.44
524.96	285.55
525.13	325.33
525.30	313.63
525.47	360.44
525.64	236.39
525.81	283.20
525.98	278.52
526.16	299.59
526.33	287.89
526.50	248.10
526.67	210.65
526.84	238.73
527.01	280.86
527.18	332.36
527.36	360.44
527.53	273.84
527.70	285.55
527.87	301.93
528.04	287.89
528.21	308.95
528.38	320.65
528.55	311.29
528.72	334.70
528.89	311.29
529.07	339.38
529.24	315.97
529.41	346.40
529.58	241.08
529.75	341.72
529.92	283.20
530.09	280.86
530.26	367.46
530.43	297.25
530.60	287.89
530.77	262.14
530.94	250.44
531.11	318.31
531.28	318.31
531.46	290.23
531.63	276.18
531.80	266.82
531.97	327.68
532.14	327.68
532.31	250.44
532.48	337.04
532.65	327.68
532.82	442.36
532.99	421.30
533.16	383.85
533.33	306.61
533.50	313.63
533.67	397.89
533.84	433.00
534.01	332.36
534.18	411.93
534.35	346.40
534.52	381.51
534.69	365.12
534.86	278.52
535.03	322.99
535.20	372.15
535.37	318.31
535.54	292.57
535.71	245.76
535.88	337.04
536.05	224.69
536.22	346.40
536.38	245.76
536.55	294.91
536.72	304.27
536.89	287.89
537.06	243.42
537.23	220.01
537.40	280.86
537.57	334.70
537.74	372.15
537.91	402.57
538.08	311.29
538.25	320.65
538.42	278.52
538.59	297.25
538.75	301.93
538.92	379.17
539.09	339.38
539.26	306.61
539.43	451.72
539.60	814.51
539.77	1299.00
539.94	1439.43
540.11	994.73
540.28	732.59
540.44	552.37
540.61	489.17
540.78	458.74
540.95	414.27
541.12	517.26
541.29	444.70
541.46	538.32
541.62	468.11
541.79	486.83
541.96	442.36
542.13	484.49
542.30	521.94
542.47	505.56
542.63	465.77
542.80	512.58
542.97	484.49
543.14	482.15
543.31	519.60
543.48	425.98
543.64	465.77
543.81	489.17
543.98	475.13
544.15	440.02
544.32	411.93
544.48	461.09
544.65	458.74
544.82	454.06
544.99	447.04
545.16	500.87
545.32	477.47
545.49	671.73
545.66	866.00
545.83	851.96
546.00	772.38
546.16	601.52
546.33	545.34
546.50	465.77
546.67	454.06
546.83	374.49
547.00	440.02
547.17	397.89
547.34	402.57
547.50	397.89
547.67	369.80
547.84	418.96
548.00	416.62
548.17	337.04
548.34	308.95
548.51	411.93
548.67	411.93
548.84	344.06
549.01	332.36
549.18	348.74
549.34	344.06
549.51	315.97
549.68	362.78
549.84	360.44
550.01	292.57
550.18	402.57
550.34	395.55
550.51	325.33
550.68	435.34
550.84	301.93
551.01	346.40
551.18	330.02
551.34	308.95
551.51	304.27
551.68	327.68
551.84	308.95
552.01	294.91
552.18	339.38
552.34	355.76
552.51	320.65
552.68	264.48
552.84	322.99
553.01	374.49
553.18	294.91
553.34	311.29
553.51	269.16
553.67	301.93
553.84	318.31
554.01	320.65
554.17	313.63
554.34	330.02
554.51	287.89
554.67	290.23
554.84	313.63
555.00	273.84
555.17	315.97
555.33	290.23
555.50	304.27
555.67	311.29
555.83	287.89
556.00	341.72
556.16	407.25
556.33	285.55
556.50	308.95
556.66	346.40
556.83	297.25
556.99	313.63
557.16	255.12
557.32	276.18
557.49	306.61
557.65	255.12
557.82	250.44
557.98	327.68
558.15	217.67
558.32	245.76
558.48	304.27
558.65	231.71
558.81	308.95
558.98	243.42
559.14	301.93
559.31	227.03
559.47	346.40
559.64	369.80
559.80	262.14
559.97	278.52
560.13	220.01
560.30	250.44
560.46	344.06
560.63	306.61
560.79	220.01
560.96	304.27
561.12	248.10
561.29	262.14
561.45	276.18
561.61	215.33
561.78	327.68
561.94	208.31
562.11	152.13
562.27	231.71
562.44	304.27
562.60	287.89
562.77	224.69
562.93	327.68
563.10	304.27
563.26	238.73
563.42	292.57
563.59	273.84
563.75	304.27
563.92	313.63
564.08	280.86
564.24	311.29
564.41	376.83
564.57	259.80
564.74	264.48
564.90	283.20
565.07	294.91
565.23	306.61
565.39	360.44
565.56	285.55
565.72	262.14
565.88	292.57
566.05	294.91
566.21	189.58
566.38	294.91
566.54	313.63
566.70	276.18
566.87	294.91
567.03	262.14
567.19	308.95
567.36	311.29
567.52	273.84
567.68	290.23
567.85	236.39
568.01	276.18
568.17	290.23
568.34	245.76
568.50	301.93
568.66	177.88
568.83	395.55
568.99	229.37
569.15	313.63
569.32	196.60
569.48	287.89
569.64	245.76
569.81	308.95
569.97	191.92
570.13	283.20
570.30	257.46
570.46	332.36
570.62	210.65
570.78	301.93
570.95	194.26
571.11	252.78
571.27	365.12
571.43	140.43
571.60	248.10
571.76	229.37
571.92	266.82
572.09	262.14
572.25	252.78
572.41	241.08
572.57	266.82
572.74	337.04
572.90	287.89
573.06	306.61
573.22	285.55
573.38	360.44
573.55	245.76
573.71	315.97
573.87	346.40
574.03	353.42
574.20	266.82
574.36	365.12
574.52	318.31
574.68	318.31
574.84	355.76
575.01	311.29
575.17	278.52
575.33	367.46
575.49	299.59
575.65	334.70
575.82	339.38
575.98	489.17
576.14	648.33
576.30	718.54
576.46	645.99
576.62	512.58
576.79	489.17
576.95	414.27
577.11	311.29
577.27	308.95
577.43	414.27
577.59	264.48
577.75	299.59
577.92	327.68
578.08	259.80
578.24	348.74
578.40	337.04
578.56	397.89
578.72	428.32
578.88	404.91
579.04	327.68
579.21	346.40
579.37	367.46
579.53	395.55
579.69	344.06
579.85	278.52
580.01	360.44
580.17	475.13
580.33	402.57
580.49	421.30
580.65	348.74
580.82	369.80
580.98	402.57
581.14	348.74
581.30	402.57
581.46	388.53
581.62	533.64
581.78	662.37
581.94	559.39
582.10	564.07
582.26	507.90
582.42	470.45
582.58	383.85
582.74	461.09
582.90	496.19
583.06	465.77
583.22	468.11
583.38	491.51
583.54	477.47
583.70	648.33
583.86	622.58
584.02	706.84
584.18	788.76
584.34	947.92
584.50	2132.23
584.66	13514.25
584.82	40704.26
584.98	59451.95
585.14	59047.04
585.30	41378.33
585.46	23463.87
585.62	14434.08
585.78	7014.59
585.94	2810.98
586.10	1313.04
586.26	992.39
586.42	802.80
586.58	613.22
586.74	716.20
586.90	669.39
587.06	650.67
587.22	622.58
587.38	531.30
587.54	926.85
587.70	2392.03
587.86	4339.35
588.02	5743.67
588.18	3887.63
588.34	2429.48
588.49	1568.16
588.65	1100.05
588.81	531.30
588.97	400.23
589.13	437.68
589.29	376.83
589.45	372.15
589.61	337.04
589.77	383.85
589.93	435.34
590.08	496.19
590.24	449.38
590.40	411.93
590.56	468.11
590.72	451.72
590.88	339.38
591.04	388.53
591.20	395.55
591.35	395.55
591.51	348.74
591.67	390.87
591.83	332.36
591.99	374.49
592.15	372.15
592.31	306.61
592.46	348.74
592.62	379.17
592.78	386.19
592.94	367.46
593.10	362.78
593.26	346.40
593.41	440.02
593.57	451.72
593.73	463.43
593.89	1832.64
594.05	4835.55
594.20	8734.88
594.36	9114.05
594.52	5959.00
594.68	3562.30
594.84	2361.60
594.99	1352.83
595.15	727.91
595.31	428.32
595.47	404.91
595.62	358.10
595.78	346.40
595.94	351.08
596.10	402.57
596.25	414.27
596.41	362.78
596.57	341.72
596.73	330.02
596.88	491.51
597.04	1022.81
597.20	1895.83
597.36	2284.36
597.51	1811.57
597.67	1203.04
597.83	915.15
597.99	622.58
598.14	489.17
598.30	383.85
598.46	355.76
598.61	400.23
598.77	358.10
598.93	341.72
599.09	348.74
599.24	372.15
599.40	330.02
599.56	351.08
599.71	255.12
599.87	287.89
600.03	292.57
600.18	229.37
600.34	381.51
600.50	299.59
600.65	402.57
600.81	325.33
600.97	308.95
601.12	266.82
601.28	322.99
601.44	283.20
601.59	327.68
601.75	318.31
601.91	255.12
602.06	292.57
602.22	355.76
602.37	610.88
602.53	1320.06
602.69	2225.85
602.84	2523.10
603.00	1834.98
603.16	1306.02
603.31	891.74
603.47	545.34
603.62	489.17
603.78	325.33
603.94	269.16
604.09	278.52
604.25	355.76
604.40	318.31
604.56	341.72
604.71	269.16
604.87	322.99
605.03	386.19
605.18	283.20
605.34	360.44
605.49	301.93
605.65	381.51
605.80	217.67
605.96	353.42
606.12	365.12
606.27	351.08
606.43	339.38
606.58	440.02
606.74	662.37
606.89	2106.48
607.05	5179.61
607.20	7896.97
607.36	6782.87
607.51	4414.25
607.67	2864.82
607.82	1919.24
607.98	1170.27
608.13	641.31
608.29	557.05
608.44	503.22
608.60	489.17
608.75	486.83
608.91	961.96
609.06	3384.41
609.22	8081.87
609.37	13624.26
609.53	12659.96
609.68	8161.45
609.84	5130.45
609.99	3375.05
610.15	2099.46
610.30	1203.04
610.46	826.21
610.61	912.81
610.76	978.34
610.92	926.85
611.07	978.34
611.23	1074.31
611.38	933.87
611.54	905.79
611.69	830.89
611.84	564.07
612.00	671.73
612.15	702.16
612.31	643.65
612.46	723.23
612.62	784.08
612.77	854.30
612.92	842.59
613.08	657.69
613.23	615.56
613.39	695.14
613.54	812.17
613.69	2960.78
613.85	9245.12
614.00	17696.79
614.15	21275.47
614.31	15070.71
614.46	9535.34
614.62	6300.72
614.77	3864.22
614.92	1909.88
615.08	973.66
615.23	704.50
615.38	599.18
615.54	472.79
615.69	734.93
615.84	1956.69
616.00	3992.95
616.15	5713.25
616.30	4805.12
616.46	3126.96
616.61	1984.77
616.76	1411.34
616.92	868.34
617.07	552.37
617.22	491.51
617.37	428.32
617.53	428.32
617.68	341.72
617.83	334.70
617.99	381.51
618.14	397.89
618.29	376.83
618.45	344.06
618.60	362.78
618.75	243.42
618.90	299.59
619.06	337.04
619.21	400.23
619.36	346.40
619.51	315.97
619.67	294.91
619.82	330.02
619.97	346.40
620.12	299.59
620.28	276.18
620.43	322.99
620.58	308.95
620.73	325.33
620.89	353.42
621.04	461.09
621.19	1083.67
621.34	2094.78
621.49	3225.26
621.65	3187.81
621.80	2289.04
621.95	1526.03
622.10	1048.56
622.25	655.35
622.41	447.04
622.56	404.91
622.71	315.97
622.86	332.36
623.01	304.27
623.16	414.27
623.32	255.12
623.47	397.89
623.62	341.72
623.77	351.08
623.92	322.99
624.07	238.73
624.23	358.10
624.38	285.55
624.53	372.15
624.68	322.99
624.83	409.59
624.98	271.50
625.13	269.16
625.29	379.17
625.44	297.25
625.59	348.74
625.74	339.38
625.89	482.15
626.04	1523.69
626.19	4744.27
626.34	8872.97
626.49	11559.91
626.65	8521.89
626.80	5469.83
626.95	3653.58
627.10	2265.64
627.25	1210.06
627.40	650.67
627.55	498.53
627.70	404.91
627.85	360.44
628.00	339.38
628.15	266.82
628.30	292.57
628.45	355.76
628.60	252.78
628.76	248.10
628.91	248.10
629.06	285.55
629.21	376.83
629.36	290.23
629.51	355.76
629.66	351.08
629.81	428.32
629.96	985.37
630.11	2012.86
630.26	2909.29
630.41	2754.81
630.56	1989.46
630.71	1308.36
630.86	1013.45
631.01	671.73
631.16	493.85
631.31	332.36
631.46	421.30
631.61	360.44
631.76	390.87
631.91	322.99
632.06	346.40
632.21	297.25
632.36	393.21
632.51	318.31
632.66	421.30
632.81	828.55
632.96	2518.42
633.10	5240.46
633.25	7595.04
633.40	6232.85
633.55	4243.39
633.70	2846.09
633.85	1902.86
634.00	1074.31
634.15	554.71
634.30	416.62
634.45	393.21
634.60	234.05
634.75	273.84
634.90	280.86
635.05	262.14
635.19	248.10
635.34	201.29
635.49	306.61
635.64	283.20
635.79	325.33
635.94	339.38
636.09	308.95
636.24	294.91
636.39	325.33
636.53	341.72
636.68	304.27
636.83	294.91
636.98	337.04
637.13	297.25
637.28	454.06
637.43	400.23
637.57	559.39
637.72	2073.71
637.87	6267.95
638.02	11335.21
638.17	14759.42
638.32	10562.84
638.46	6881.18
638.61	4636.60
638.76	2890.56
638.91	1425.39
639.06	793.44
639.20	550.03
639.35	510.24
639.50	781.74
639.65	3049.72
639.80	8851.91
639.94	16795.68
640.09	21429.94
640.24	15459.24
640.39	9963.66
640.54	6581.59
640.68	4102.96
640.83	2136.91
640.98	1048.56
641.13	634.29
641.27	447.04
641.42	416.62
641.57	379.17
641.72	374.49
641.86	355.76
642.01	360.44
642.16	351.08
642.31	297.25
642.45	330.02
642.60	292.57
642.75	280.86
642.90	322.99
643.04	220.01
643.19	271.50
643.34	238.73
643.48	234.05
643.63	217.67
643.78	238.73
643.93	283.20
644.07	201.29
644.22	250.44
644.37	269.16
644.51	283.20
644.66	318.31
644.81	252.78
644.95	243.42
645.10	198.95
645.25	154.48
645.39	264.48
645.54	224.69
645.69	248.10
645.83	205.97
645.98	285.55
646.13	215.33
646.27	208.31
646.42	168.52
646.57	222.35
646.71	250.44
646.86	285.55
647.00	276.18
647.15	313.63
647.30	236.39
647.44	229.37
647.59	203.63
647.74	196.60
647.88	301.93
648.03	205.97
648.17	222.35
648.32	234.05
648.47	278.52
648.61	177.88
648.76	238.73
648.90	215.33
649.05	250.44
649.20	238.73
649.34	201.29
649.49	245.76
649.63	341.72
649.78	320.65
649.92	348.74
650.07	1303.68
650.21	3990.61
650.36	7911.01
650.51	10949.03
650.65	9233.41
650.80	6389.66
650.94	4297.22
651.09	2609.70
651.23	1392.62
651.38	765.36
651.52	484.49
651.67	355.76
651.81	330.02
651.96	332.36
652.10	320.65
652.25	257.46
652.39	318.31
652.54	276.18
652.68	512.58
652.83	1378.58
652.97	2708.00
653.12	3985.93
653.26	3749.54
653.41	2689.28
653.55	1818.60
653.70	1137.50
653.84	851.96
653.99	463.43
654.13	280.86
654.27	259.80
654.42	205.97
654.56	287.89
654.71	266.82
654.85	208.31
655.00	259.80
655.14	266.82
655.29	252.78
655.43	212.99
655.57	248.10
655.72	187.24
655.86	166.18
656.01	266.82
656.15	201.29
656.30	262.14
656.44	201.29
656.58	177.88
656.73	257.46
656.87	191.92
657.01	201.29
657.16	311.29
657.30	262.14
657.45	255.12
657.59	236.39
657.73	210.65
657.88	245.76
658.02	259.80
658.16	234.05
658.31	250.44
658.45	187.24
658.60	163.84
658.74	266.82
658.88	273.84
659.03	212.99
659.17	238.73
659.31	592.16
659.46	1921.58
659.60	3906.35
659.74	5558.77
659.89	5104.71
660.03	3831.46
660.17	2462.24
660.32	1638.38
660.46	964.30
660.60	667.05
660.74	351.08
660.89	287.89
661.03	297.25
661.17	252.78
661.32	257.46
661.46	238.73
661.60	262.14
661.74	191.92
661.89	222.35
662.03	217.67
662.17	229.37
662.31	273.84
662.46	280.86
662.60	198.95
662.74	220.01
662.88	236.39
663.03	215.33
663.17	135.75
663.31	231.71
663.45	255.12
663.60	175.54
663.74	250.44
663.88	252.78
664.02	205.97
664.17	222.35
664.31	290.23
664.45	203.63
664.59	266.82
664.73	262.14
664.88	220.01
665.02	229.37
665.16	205.97
665.30	156.82
665.44	245.76
665.59	294.91
665.73	229.37
665.87	229.37
666.01	210.65
666.15	210.65
666.29	212.99
666.44	259.80
666.58	262.14
666.72	255.12
666.86	166.18
667.00	297.25
667.14	421.30
667.28	1125.80
667.43	3517.83
667.57	6822.66
667.71	9664.07
667.85	8774.67
667.99	6406.05
668.13	4035.08
668.27	2310.11
668.41	1413.68
668.56	833.23
668.70	557.05
668.84	383.85
668.98	339.38
669.12	290.23
669.26	304.27
669.40	264.48
669.54	229.37
669.68	222.35
669.82	194.26
669.96	264.48
670.10	170.86
670.25	299.59
670.39	297.25
670.53	227.03
670.67	227.03
670.81	180.22
670.95	252.78
671.09	407.25
671.23	1343.47
671.37	3112.91
671.51	5219.39
671.65	6462.22
671.79	4901.08
671.93	3379.73
672.07	2059.67
672.21	1242.82
672.35	788.76
672.49	493.85
672.63	365.12
672.77	337.04
672.91	297.25
673.05	241.08
673.19	266.82
673.33	273.84
673.47	229.37
673.61	266.82
673.75	234.05
673.89	212.99
674.03	231.71
674.17	175.54
674.31	231.71
674.45	294.91
674.59	269.16
674.73	248.10
674.87	264.48
675.01	353.42
675.15	299.59
675.29	313.63
675.43	231.71
675.56	318.31
675.70	191.92
675.84	227.03
675.98	215.33
676.12	177.88
676.26	98.30
676.40	222.35
676.54	163.84
676.68	191.92
676.82	241.08
676.96	266.82
677.10	154.48
677.23	163.84
677.37	133.41
677.51	168.52
677.65	238.73
677.79	121.71
677.93	177.88
678.07	205.97
678.21	210.65
678.34	102.98
678.48	161.50
678.62	257.46
678.76	156.82
678.90	210.65
679.04	215.33
679.18	187.24
679.31	145.11
679.45	138.09
679.59	215.33
679.73	191.92
679.87	163.84
680.00	189.58
680.14	198.95
680.28	241.08
680.42	168.52
680.56	140.43
680.70	161.50
680.83	257.46
680.97	191.92
681.11	189.58
681.25	243.42
681.39	241.08
681.52	159.16
681.66	238.73
681.80	212.99
681.94	147.45
682.07	203.63
682.21	201.29
682.35	170.86
682.49	166.18
682.62	250.44
682.76	159.16
682.90	173.20
683.04	170.86
683.17	161.50
683.31	184.90
683.45	166.18
683.59	205.97
683.72	262.14
683.86	217.67
684.00	168.52
684.13	180.22
684.27	142.77
684.41	229.37
684.55	191.92
684.68	177.88
684.82	248.10
684.96	175.54
685.09	147.45
685.23	180.22
685.37	194.26
685.50	156.82
685.64	257.46
685.78	156.82
685.91	208.31
686.05	145.11
686.19	142.77
686.32	126.39
686.46	250.44
686.60	133.41
686.73	250.44
686.87	238.73
687.01	243.42
687.14	168.52
687.28	177.88
687.42	210.65
687.55	170.86
687.69	203.63
687.82	227.03
687.96	147.45
688.10	161.50
688.23	149.79
688.37	234.05
688.50	217.67
688.64	241.08
688.78	145.11
688.91	217.67
689.05	243.42
689.18	119.37
689.32	208.31
689.46	180.22
689.59	191.92
689.73	229.37
689.86	203.63
690.00	128.73
690.13	163.84
690.27	184.90
690.41	175.54
690.54	224.69
690.68	184.90
690.81	177.88
690.95	238.73
691.08	184.90
691.22	198.95
691.35	135.75
691.49	159.16
691.62	234.05
691.76	170.86
691.89	271.50
692.03	198.95
692.16	180.22
692.30	304.27
692.43	528.96
692.57	1603.27
692.70	2928.01
692.84	4154.45
692.97	4280.84
693.11	3087.17
693.24	2307.77
693.38	1526.03
693.51	1018.13
693.65	753.65
693.78	475.13
693.92	386.19
694.05	362.78
694.19	257.46
694.32	161.50
694.45	117.03
694.59	208.31
694.72	212.99
694.86	163.84
694.99	196.60
695.13	163.84
695.26	217.67
695.39	175.54
695.53	238.73
695.66	224.69
695.80	257.46
695.93	142.77
696.07	194.26
696.20	280.86
696.33	433.00
696.47	477.47
696.60	498.53
696.73	437.68
696.87	386.19
697.00	334.70
697.14	236.39
697.27	227.03
697.40	208.31
697.54	170.86
697.67	154.48
697.80	142.77
697.94	182.56
698.07	198.95
698.21	191.92
698.34	227.03
698.47	140.43
698.61	159.16
698.74	107.66
698.87	215.33
699.01	140.43
699.14	163.84
699.27	166.18
699.40	231.71
699.54	147.45
699.67	114.69
699.80	149.79
699.94	128.73
700.07	170.86
700.20	154.48
700.34	177.88
700.47	170.86
700.60	175.54
700.73	173.20
700.87	147.45
701.00	201.29
701.13	238.73
701.26	142.77
701.40	201.29
701.53	135.75
701.66	177.88
701.79	224.69
701.93	191.92
702.06	292.57
702.19	292.57
702.32	472.79
702.46	486.83
702.59	430.66
702.72	685.78
702.85	1944.99
702.99	4170.83
703.12	7056.72
703.25	8676.37
703.38	7494.40
703.51	6050.28
703.65	4767.67
703.78	3543.57
703.91	2298.41
704.04	1474.54
704.17	833.23
704.31	596.84
704.44	449.38
704.57	318.31
704.70	264.48
704.83	220.01
704.96	257.46
705.10	259.80
705.23	224.69
>>>>>End Processed Spectral Data<<<<<
