SpectraSuite Data File
++++++++++++++++++++++++++++++++++++
Date: Fri Oct 04 11:33:49 GMT-05:00 2013
User: price-jones
Dark Spectrum Present: No
Reference Spectrum Present: No
Number of Sampled Component Spectra: 1
Spectrometers: USB2+H05261
Integration Time (usec): 100000 (USB2+H05261)
Spectra Averaged: 1 (USB2+H05261)
Boxcar Smoothing: 0 (USB2+H05261)
Correct for Electrical Dark: No (USB2+H05261)
Strobe/Lamp Enabled: No (USB2+H05261)
Correct for Detector Non-linearity: No (USB2+H05261)
Correct for Stray Light: No (USB2+H05261)
Number of Pixels in Processed Spectrum: 2048
>>>>>Begin Processed Spectral Data<<<<<
365.73	9.36
365.92	9.36
366.12	9.36
366.32	0.00
366.52	0.00
366.72	0.00
366.91	25.75
367.11	0.00
367.31	0.00
367.51	0.00
367.70	0.00
367.90	9.36
368.10	0.00
368.30	0.00
368.49	0.00
368.69	0.00
368.89	0.00
369.09	0.00
369.28	0.00
369.48	0.00
369.68	9.36
369.87	25.75
370.07	0.00
370.27	70.22
370.47	46.81
370.66	74.90
370.86	58.51
371.06	114.69
371.25	105.32
371.45	112.35
371.65	102.98
371.84	133.41
372.04	107.66
372.24	119.37
372.44	133.41
372.63	126.39
372.83	201.29
373.03	67.88
373.22	203.63
373.42	170.86
373.62	177.88
373.81	154.48
374.01	182.56
374.21	124.05
374.40	98.30
374.60	175.54
374.79	161.50
374.99	79.58
375.19	196.60
375.38	238.73
375.58	152.13
375.78	161.50
375.97	140.43
376.17	236.39
376.37	138.09
376.56	168.52
376.76	95.96
376.95	84.26
377.15	203.63
377.35	170.86
377.54	107.66
377.74	126.39
377.93	145.11
378.13	163.84
378.33	117.03
378.52	95.96
378.72	156.82
378.91	161.50
379.11	133.41
379.31	117.03
379.50	119.37
379.70	154.48
379.89	149.79
380.09	128.73
380.28	37.45
380.48	105.32
380.68	220.01
380.87	84.26
381.07	138.09
381.26	198.95
381.46	114.69
381.65	98.30
381.85	142.77
382.04	88.94
382.24	142.77
382.43	177.88
382.63	203.63
382.83	114.69
383.02	86.60
383.22	170.86
383.41	98.30
383.61	131.07
383.80	163.84
384.00	100.64
384.19	119.37
384.39	163.84
384.58	112.35
384.78	95.96
384.97	152.13
385.17	107.66
385.36	229.37
385.56	166.18
385.75	163.84
385.95	102.98
386.14	107.66
386.34	145.11
386.53	163.84
386.72	175.54
386.92	173.20
387.11	175.54
387.31	107.66
387.50	126.39
387.70	227.03
387.89	145.11
388.09	149.79
388.28	133.41
388.48	147.45
388.67	147.45
388.86	114.69
389.06	117.03
389.25	124.05
389.45	147.45
389.64	110.01
389.84	201.29
390.03	217.67
390.22	126.39
390.42	51.49
390.61	107.66
390.81	128.73
391.00	84.26
391.19	173.20
391.39	124.05
391.58	161.50
391.78	184.90
391.97	159.16
392.16	114.69
392.36	124.05
392.55	156.82
392.75	107.66
392.94	140.43
393.13	154.48
393.33	35.11
393.52	128.73
393.71	161.50
393.91	161.50
394.10	138.09
394.29	173.20
394.49	135.75
394.68	194.26
394.88	227.03
395.07	196.60
395.26	212.99
395.46	175.54
395.65	159.16
395.84	142.77
396.04	156.82
396.23	166.18
396.42	81.92
396.62	117.03
396.81	161.50
397.00	234.05
397.19	163.84
397.39	91.28
397.58	170.86
397.77	170.86
397.97	156.82
398.16	149.79
398.35	257.46
398.55	138.09
398.74	182.56
398.93	241.08
399.12	163.84
399.32	112.35
399.51	107.66
399.70	138.09
399.90	191.92
400.09	166.18
400.28	147.45
400.47	121.71
400.67	170.86
400.86	187.24
401.05	156.82
401.24	126.39
401.44	138.09
401.63	196.60
401.82	196.60
402.01	170.86
402.21	191.92
402.40	175.54
402.59	140.43
402.78	100.64
402.97	170.86
403.17	166.18
403.36	95.96
403.55	189.58
403.74	189.58
403.93	189.58
404.13	224.69
404.32	166.18
404.51	212.99
404.70	201.29
404.89	131.07
405.09	177.88
405.28	170.86
405.47	140.43
405.66	135.75
405.85	187.24
406.05	147.45
406.24	145.11
406.43	187.24
406.62	117.03
406.81	175.54
407.00	173.20
407.20	189.58
407.39	180.22
407.58	180.22
407.77	180.22
407.96	198.95
408.15	217.67
408.34	147.45
408.54	74.90
408.73	133.41
408.92	229.37
409.11	117.03
409.30	84.26
409.49	74.90
409.68	187.24
409.87	107.66
410.07	114.69
410.26	131.07
410.45	205.97
410.64	152.13
410.83	98.30
411.02	140.43
411.21	147.45
411.40	208.31
411.59	140.43
411.78	196.60
411.98	152.13
412.17	147.45
412.36	182.56
412.55	159.16
412.74	180.22
412.93	245.76
413.12	180.22
413.31	177.88
413.50	163.84
413.69	147.45
413.88	205.97
414.07	170.86
414.26	140.43
414.45	58.51
414.64	177.88
414.83	180.22
415.02	112.35
415.22	198.95
415.41	205.97
415.60	224.69
415.79	187.24
415.98	203.63
416.17	170.86
416.36	203.63
416.55	159.16
416.74	217.67
416.93	198.95
417.12	173.20
417.31	131.07
417.50	191.92
417.69	250.44
417.88	280.86
418.07	224.69
418.26	215.33
418.45	212.99
418.64	215.33
418.83	152.13
419.02	168.52
419.21	220.01
419.39	231.71
419.58	177.88
419.77	182.56
419.96	196.60
420.15	292.57
420.34	212.99
420.53	133.41
420.72	166.18
420.91	208.31
421.10	84.26
421.29	117.03
421.48	196.60
421.67	175.54
421.86	184.90
422.05	128.73
422.24	180.22
422.43	173.20
422.61	135.75
422.80	210.65
422.99	168.52
423.18	168.52
423.37	227.03
423.56	189.58
423.75	142.77
423.94	84.26
424.13	198.95
424.32	175.54
424.50	189.58
424.69	191.92
424.88	170.86
425.07	128.73
425.26	147.45
425.45	250.44
425.64	212.99
425.83	229.37
426.01	210.65
426.20	248.10
426.39	126.39
426.58	180.22
426.77	168.52
426.96	191.92
427.15	208.31
427.33	189.58
427.52	105.32
427.71	140.43
427.90	175.54
428.09	198.95
428.28	194.26
428.46	154.48
428.65	241.08
428.84	170.86
429.03	227.03
429.22	142.77
429.40	131.07
429.59	198.95
429.78	182.56
429.97	142.77
430.16	114.69
430.34	133.41
430.53	224.69
430.72	149.79
430.91	175.54
431.10	227.03
431.28	126.39
431.47	187.24
431.66	182.56
431.85	159.16
432.03	119.37
432.22	224.69
432.41	177.88
432.60	173.20
432.79	205.97
432.97	252.78
433.16	220.01
433.35	248.10
433.54	210.65
433.72	156.82
433.91	210.65
434.10	215.33
434.28	203.63
434.47	243.42
434.66	210.65
434.85	241.08
435.03	259.80
435.22	320.65
435.41	447.04
435.59	353.42
435.78	266.82
435.97	255.12
436.16	210.65
436.34	184.90
436.53	131.07
436.72	208.31
436.90	224.69
437.09	175.54
437.28	201.29
437.46	128.73
437.65	100.64
437.84	196.60
438.02	175.54
438.21	182.56
438.40	170.86
438.58	119.37
438.77	208.31
438.96	152.13
439.14	180.22
439.33	191.92
439.52	217.67
439.70	180.22
439.89	166.18
440.08	135.75
440.26	182.56
440.45	241.08
440.63	196.60
440.82	276.18
441.01	177.88
441.19	145.11
441.38	224.69
441.57	227.03
441.75	161.50
441.94	201.29
442.12	124.05
442.31	135.75
442.50	191.92
442.68	210.65
442.87	196.60
443.05	175.54
443.24	234.05
443.43	168.52
443.61	166.18
443.80	196.60
443.98	163.84
444.17	189.58
444.35	227.03
444.54	128.73
444.73	152.13
444.91	252.78
445.10	149.79
445.28	220.01
445.47	210.65
445.65	159.16
445.84	154.48
446.02	107.66
446.21	168.52
446.39	196.60
446.58	238.73
446.77	180.22
446.95	191.92
447.14	191.92
447.32	196.60
447.51	180.22
447.69	175.54
447.88	198.95
448.06	187.24
448.25	201.29
448.43	168.52
448.62	154.48
448.80	217.67
448.99	189.58
449.17	210.65
449.36	175.54
449.54	210.65
449.73	163.84
449.91	215.33
450.10	210.65
450.28	273.84
450.46	231.71
450.65	217.67
450.83	175.54
451.02	177.88
451.20	210.65
451.39	173.20
451.57	194.26
451.76	208.31
451.94	166.18
452.13	227.03
452.31	196.60
452.49	175.54
452.68	135.75
452.86	245.76
453.05	245.76
453.23	140.43
453.42	107.66
453.60	238.73
453.78	215.33
453.97	140.43
454.15	124.05
454.34	147.45
454.52	208.31
454.70	201.29
454.89	175.54
455.07	166.18
455.26	128.73
455.44	175.54
455.62	156.82
455.81	168.52
455.99	184.90
456.17	191.92
456.36	205.97
456.54	133.41
456.73	177.88
456.91	184.90
457.09	156.82
457.28	198.95
457.46	215.33
457.64	166.18
457.83	252.78
458.01	142.77
458.19	224.69
458.38	175.54
458.56	245.76
458.74	161.50
458.93	187.24
459.11	154.48
459.29	145.11
459.48	250.44
459.66	189.58
459.84	170.86
460.03	271.50
460.21	159.16
460.39	208.31
460.57	182.56
460.76	124.05
460.94	194.26
461.12	215.33
461.31	250.44
461.49	180.22
461.67	203.63
461.85	187.24
462.04	217.67
462.22	634.29
462.40	283.20
462.59	184.90
462.77	170.86
462.95	194.26
463.13	189.58
463.32	217.67
463.50	203.63
463.68	217.67
463.86	187.24
464.05	177.88
464.23	276.18
464.41	203.63
464.59	163.84
464.78	250.44
464.96	163.84
465.14	194.26
465.32	187.24
465.50	203.63
465.69	168.52
465.87	166.18
466.05	201.29
466.23	154.48
466.41	191.92
466.60	217.67
466.78	252.78
466.96	229.37
467.14	112.35
467.32	222.35
467.51	198.95
467.69	217.67
467.87	217.67
468.05	173.20
468.23	271.50
468.41	168.52
468.60	189.58
468.78	156.82
468.96	236.39
469.14	175.54
469.32	189.58
469.50	191.92
469.69	203.63
469.87	222.35
470.05	234.05
470.23	292.57
470.41	168.52
470.59	166.18
470.77	163.84
470.95	177.88
471.14	212.99
471.32	187.24
471.50	271.50
471.68	283.20
471.86	315.97
472.04	163.84
472.22	196.60
472.40	70.22
472.58	208.31
472.77	152.13
472.95	250.44
473.13	238.73
473.31	264.48
473.49	161.50
473.67	203.63
473.85	283.20
474.03	269.16
474.21	135.75
474.39	208.31
474.57	257.46
474.75	241.08
474.93	266.82
475.12	196.60
475.30	173.20
475.48	196.60
475.66	241.08
475.84	236.39
476.02	276.18
476.20	210.65
476.38	227.03
476.56	222.35
476.74	138.09
476.92	273.84
477.10	114.69
477.28	187.24
477.46	194.26
477.64	189.58
477.82	248.10
478.00	236.39
478.18	161.50
478.36	201.29
478.54	140.43
478.72	166.18
478.90	215.33
479.08	243.42
479.26	180.22
479.44	243.42
479.62	119.37
479.80	205.97
479.98	166.18
480.16	145.11
480.34	210.65
480.52	201.29
480.70	203.63
480.88	227.03
481.06	196.60
481.24	215.33
481.41	273.84
481.59	196.60
481.77	215.33
481.95	278.52
482.13	248.10
482.31	238.73
482.49	212.99
482.67	264.48
482.85	259.80
483.03	212.99
483.21	241.08
483.39	224.69
483.57	236.39
483.74	196.60
483.92	222.35
484.10	156.82
484.28	264.48
484.46	339.38
484.64	236.39
484.82	287.89
485.00	208.31
485.18	187.24
485.35	227.03
485.53	227.03
485.71	264.48
485.89	205.97
486.07	229.37
486.25	273.84
486.43	243.42
486.61	259.80
486.78	248.10
486.96	243.42
487.14	217.67
487.32	259.80
487.50	241.08
487.68	220.01
487.85	248.10
488.03	278.52
488.21	241.08
488.39	229.37
488.57	315.97
488.75	170.86
488.92	479.81
489.10	290.23
489.28	299.59
489.46	227.03
489.64	229.37
489.81	238.73
489.99	269.16
490.17	152.13
490.35	299.59
490.53	259.80
490.70	278.52
490.88	269.16
491.06	255.12
491.24	304.27
491.41	259.80
491.59	301.93
491.77	205.97
491.95	210.65
492.13	269.16
492.30	245.76
492.48	208.31
492.66	198.95
492.84	264.48
493.01	346.40
493.19	259.80
493.37	245.76
493.54	203.63
493.72	187.24
493.90	280.86
494.08	264.48
494.25	255.12
494.43	304.27
494.61	248.10
494.79	257.46
494.96	248.10
495.14	229.37
495.32	280.86
495.49	248.10
495.67	198.95
495.85	224.69
496.02	266.82
496.20	301.93
496.38	245.76
496.55	276.18
496.73	248.10
496.91	201.29
497.09	290.23
497.26	243.42
497.44	259.80
497.62	264.48
497.79	259.80
497.97	257.46
498.14	236.39
498.32	257.46
498.50	287.89
498.67	205.97
498.85	203.63
499.03	332.36
499.20	301.93
499.38	248.10
499.56	220.01
499.73	297.25
499.91	236.39
500.08	285.55
500.26	248.10
500.44	180.22
500.61	278.52
500.79	215.33
500.97	241.08
501.14	215.33
501.32	187.24
501.49	208.31
501.67	292.57
501.84	278.52
502.02	250.44
502.20	348.74
502.37	222.35
502.55	243.42
502.72	236.39
502.90	255.12
503.07	222.35
503.25	257.46
503.43	241.08
503.60	203.63
503.78	248.10
503.95	276.18
504.13	201.29
504.30	217.67
504.48	283.20
504.65	236.39
504.83	222.35
505.01	259.80
505.18	322.99
505.36	234.05
505.53	196.60
505.71	198.95
505.88	294.91
506.06	257.46
506.23	248.10
506.41	266.82
506.58	248.10
506.76	287.89
506.93	231.71
507.11	280.86
507.28	259.80
507.46	175.54
507.63	257.46
507.81	245.76
507.98	255.12
508.16	234.05
508.33	212.99
508.50	285.55
508.68	227.03
508.85	262.14
509.03	201.29
509.20	243.42
509.38	262.14
509.55	245.76
509.73	271.50
509.90	248.10
510.08	198.95
510.25	320.65
510.42	264.48
510.60	255.12
510.77	306.61
510.95	271.50
511.12	250.44
511.30	224.69
511.47	283.20
511.64	372.15
511.82	315.97
511.99	255.12
512.17	212.99
512.34	248.10
512.51	273.84
512.69	283.20
512.86	271.50
513.04	224.69
513.21	224.69
513.38	222.35
513.56	220.01
513.73	208.31
513.90	266.82
514.08	262.14
514.25	306.61
514.43	287.89
514.60	248.10
514.77	252.78
514.95	245.76
515.12	280.86
515.29	287.89
515.47	236.39
515.64	231.71
515.81	205.97
515.99	255.12
516.16	334.70
516.33	308.95
516.51	222.35
516.68	189.58
516.85	217.67
517.03	285.55
517.20	191.92
517.37	238.73
517.54	259.80
517.72	212.99
517.89	220.01
518.06	231.71
518.24	308.95
518.41	264.48
518.58	292.57
518.75	262.14
518.93	290.23
519.10	166.18
519.27	325.33
519.45	299.59
519.62	255.12
519.79	306.61
519.96	231.71
520.14	266.82
520.31	374.49
520.48	182.56
520.65	313.63
520.83	264.48
521.00	210.65
521.17	229.37
521.34	301.93
521.52	245.76
521.69	313.63
521.86	241.08
522.03	259.80
522.20	337.04
522.38	217.67
522.55	346.40
522.72	236.39
522.89	301.93
523.07	348.74
523.24	220.01
523.41	276.18
523.58	205.97
523.75	210.65
523.92	173.20
524.10	236.39
524.27	266.82
524.44	259.80
524.61	220.01
524.78	203.63
524.96	271.50
525.13	231.71
525.30	311.29
525.47	252.78
525.64	264.48
525.81	217.67
525.98	231.71
526.16	306.61
526.33	231.71
526.50	220.01
526.67	236.39
526.84	189.58
527.01	280.86
527.18	236.39
527.36	231.71
527.53	292.57
527.70	248.10
527.87	231.71
528.04	344.06
528.21	266.82
528.38	203.63
528.55	255.12
528.72	243.42
528.89	362.78
529.07	198.95
529.24	243.42
529.41	369.80
529.58	299.59
529.75	248.10
529.92	311.29
530.09	250.44
530.26	297.25
530.43	273.84
530.60	205.97
530.77	308.95
530.94	292.57
531.11	271.50
531.28	273.84
531.46	264.48
531.63	308.95
531.80	332.36
531.97	255.12
532.14	252.78
532.31	341.72
532.48	280.86
532.65	372.15
532.82	428.32
532.99	383.85
533.16	318.31
533.33	360.44
533.50	344.06
533.67	376.83
533.84	458.74
534.01	449.38
534.18	451.72
534.35	339.38
534.52	278.52
534.69	311.29
534.86	257.46
535.03	264.48
535.20	266.82
535.37	379.17
535.54	229.37
535.71	236.39
535.88	271.50
536.05	322.99
536.22	325.33
536.38	327.68
536.55	283.20
536.72	325.33
536.89	287.89
537.06	255.12
537.23	252.78
537.40	280.86
537.57	252.78
537.74	332.36
537.91	318.31
538.08	290.23
538.25	269.16
538.42	348.74
538.59	365.12
538.75	285.55
538.92	332.36
539.09	283.20
539.26	344.06
539.43	463.43
539.60	1001.75
539.77	1694.55
539.94	1727.32
540.11	1191.33
540.28	858.98
540.44	587.47
540.61	531.30
540.78	447.04
540.95	472.79
541.12	479.81
541.29	444.70
541.46	540.66
541.62	531.30
541.79	423.64
541.96	533.64
542.13	491.51
542.30	454.06
542.47	507.90
542.63	440.02
542.80	477.47
542.97	463.43
543.14	437.68
543.31	496.19
543.48	414.27
543.64	381.51
543.81	416.62
543.98	393.21
544.15	447.04
544.32	407.25
544.48	388.53
544.65	456.40
544.82	393.21
544.99	486.83
545.16	472.79
545.32	496.19
545.49	669.39
545.66	809.83
545.83	746.63
546.00	706.84
546.16	585.13
546.33	444.70
546.50	376.83
546.67	374.49
546.83	423.64
547.00	390.87
547.17	369.80
547.34	318.31
547.50	400.23
547.67	440.02
547.84	299.59
548.00	367.46
548.17	327.68
548.34	374.49
548.51	425.98
548.67	395.55
548.84	297.25
549.01	372.15
549.18	372.15
549.34	372.15
549.51	346.40
549.68	334.70
549.84	379.17
550.01	318.31
550.18	400.23
550.34	276.18
550.51	325.33
550.68	390.87
550.84	327.68
551.01	276.18
551.18	271.50
551.34	360.44
551.51	264.48
551.68	259.80
551.84	266.82
552.01	313.63
552.18	325.33
552.34	334.70
552.51	236.39
552.68	269.16
552.84	332.36
553.01	294.91
553.18	320.65
553.34	273.84
553.51	273.84
553.67	273.84
553.84	292.57
554.01	290.23
554.17	245.76
554.34	262.14
554.51	215.33
554.67	334.70
554.84	308.95
555.00	229.37
555.17	283.20
555.33	301.93
555.50	283.20
555.67	351.08
555.83	285.55
556.00	341.72
556.16	482.15
556.33	365.12
556.50	278.52
556.66	266.82
556.83	201.29
556.99	250.44
557.16	285.55
557.32	285.55
557.49	252.78
557.65	236.39
557.82	220.01
557.98	224.69
558.15	154.48
558.32	262.14
558.48	248.10
558.65	245.76
558.81	248.10
558.98	266.82
559.14	262.14
559.31	262.14
559.47	297.25
559.64	304.27
559.80	257.46
559.97	201.29
560.13	259.80
560.30	212.99
560.46	269.16
560.63	297.25
560.79	283.20
560.96	304.27
561.12	304.27
561.29	227.03
561.45	271.50
561.61	299.59
561.78	327.68
561.94	290.23
562.11	257.46
562.27	250.44
562.44	234.05
562.60	243.42
562.77	283.20
562.93	248.10
563.10	365.12
563.26	278.52
563.42	348.74
563.59	308.95
563.75	180.22
563.92	320.65
564.08	337.04
564.24	306.61
564.41	250.44
564.57	215.33
564.74	250.44
564.90	217.67
565.07	271.50
565.23	290.23
565.39	250.44
565.56	337.04
565.72	290.23
565.88	236.39
566.05	276.18
566.21	191.92
566.38	283.20
566.54	220.01
566.70	372.15
566.87	227.03
567.03	231.71
567.19	184.90
567.36	224.69
567.52	259.80
567.68	276.18
567.85	234.05
568.01	191.92
568.17	210.65
568.34	231.71
568.50	325.33
568.66	273.84
568.83	292.57
568.99	224.69
569.15	224.69
569.32	229.37
569.48	330.02
569.64	290.23
569.81	327.68
569.97	236.39
570.13	327.68
570.30	177.88
570.46	224.69
570.62	212.99
570.78	313.63
570.95	266.82
571.11	369.80
571.27	299.59
571.43	222.35
571.60	259.80
571.76	210.65
571.92	285.55
572.09	224.69
572.25	264.48
572.41	285.55
572.57	301.93
572.74	271.50
572.90	358.10
573.06	315.97
573.22	299.59
573.38	280.86
573.55	299.59
573.71	292.57
573.87	280.86
574.03	238.73
574.20	276.18
574.36	362.78
574.52	367.46
574.68	358.10
574.84	283.20
575.01	252.78
575.17	278.52
575.33	248.10
575.49	351.08
575.65	390.87
575.82	414.27
575.98	512.58
576.14	734.93
576.30	837.91
576.46	641.31
576.62	559.39
576.79	423.64
576.95	517.26
577.11	393.21
577.27	243.42
577.43	339.38
577.59	449.38
577.75	325.33
577.92	334.70
578.08	318.31
578.24	332.36
578.40	273.84
578.56	395.55
578.72	353.42
578.88	435.34
579.04	383.85
579.21	414.27
579.37	278.52
579.53	318.31
579.69	388.53
579.85	362.78
580.01	400.23
580.17	330.02
580.33	390.87
580.49	397.89
580.65	430.66
580.82	414.27
580.98	304.27
581.14	365.12
581.30	433.00
581.46	552.37
581.62	589.82
581.78	746.63
581.94	517.26
582.10	566.41
582.26	493.85
582.42	535.98
582.58	470.45
582.74	484.49
582.90	538.32
583.06	543.00
583.22	535.98
583.38	526.62
583.54	566.41
583.70	746.63
583.86	753.65
584.02	861.32
584.18	947.92
584.34	1282.61
584.50	2820.35
584.66	20273.72
584.82	53727.00
584.98	65535.00
585.14	65359.46
585.30	51164.11
585.46	31028.48
585.62	19103.45
585.78	8678.71
585.94	3431.23
586.10	1682.85
586.26	1071.97
586.42	870.68
586.58	727.91
586.74	779.40
586.90	725.57
587.06	674.07
587.22	568.75
587.38	608.54
587.54	1144.52
587.70	3229.94
587.86	5687.50
588.02	7080.12
588.18	4861.29
588.34	3091.85
588.49	2104.14
588.65	1270.91
588.81	741.95
588.97	470.45
589.13	407.25
589.29	430.66
589.45	407.25
589.61	306.61
589.77	500.87
589.93	451.72
590.08	554.71
590.24	531.30
590.40	437.68
590.56	400.23
590.72	362.78
590.88	475.13
591.04	404.91
591.20	386.19
591.35	458.74
591.51	435.34
591.67	402.57
591.83	315.97
591.99	402.57
592.15	341.72
592.31	308.95
592.46	386.19
592.62	367.46
592.78	400.23
592.94	407.25
593.10	393.21
593.26	390.87
593.41	425.98
593.57	463.43
593.73	571.09
593.89	2471.61
594.05	6586.27
594.20	11211.17
594.36	11477.99
594.52	7428.86
594.68	4547.66
594.84	3096.53
594.99	1682.85
595.15	821.53
595.31	545.34
595.47	414.27
595.62	381.51
595.78	337.04
595.94	348.74
596.10	440.02
596.25	337.04
596.41	355.76
596.57	355.76
596.73	334.70
596.88	575.77
597.04	1315.38
597.20	2385.01
597.36	2958.44
597.51	2286.70
597.67	1511.99
597.83	1184.31
597.99	765.36
598.14	484.49
598.30	468.11
598.46	397.89
598.61	421.30
598.77	440.02
598.93	348.74
599.09	372.15
599.24	355.76
599.40	278.52
599.56	320.65
599.71	308.95
599.87	245.76
600.03	341.72
600.18	334.70
600.34	304.27
600.50	330.02
600.65	315.97
600.81	290.23
600.97	220.01
601.12	315.97
601.28	322.99
601.44	327.68
601.59	280.86
601.75	372.15
601.91	264.48
602.06	341.72
602.22	351.08
602.37	688.12
602.53	1689.87
602.69	2796.94
602.84	3073.12
603.00	2190.74
603.16	1537.73
603.31	999.41
603.47	767.70
603.62	428.32
603.78	386.19
603.94	358.10
604.09	322.99
604.25	353.42
604.40	374.49
604.56	306.61
604.71	369.80
604.87	348.74
605.03	292.57
605.18	325.33
605.34	372.15
605.49	290.23
605.65	388.53
605.80	325.33
605.96	362.78
606.12	355.76
606.27	383.85
606.43	344.06
606.58	400.23
606.74	763.01
606.89	3166.74
607.05	6810.96
607.20	9856.00
607.36	8091.23
607.51	5600.90
607.67	3660.60
607.82	2347.56
607.98	1350.49
608.13	753.65
608.29	545.34
608.44	564.07
608.60	505.56
608.75	528.96
608.91	1067.28
609.06	4896.40
609.22	11379.68
609.37	16678.66
609.53	14689.20
609.68	10008.13
609.84	6179.01
609.99	4212.96
610.15	2366.28
610.30	1284.95
610.46	901.11
610.61	798.12
610.76	851.96
610.92	1029.84
611.07	992.39
611.23	1001.75
611.38	983.02
611.54	863.66
611.69	746.63
611.84	748.97
612.00	664.71
612.15	641.31
612.31	751.31
612.46	821.53
612.62	929.19
612.77	922.17
612.92	781.74
613.08	695.14
613.23	692.80
613.39	716.20
613.54	1078.99
613.69	4568.73
613.85	13284.88
614.00	24407.11
614.15	28517.09
614.31	19620.71
614.46	12444.63
614.62	8011.65
614.77	4896.40
614.92	2298.41
615.08	1067.28
615.23	779.40
615.38	669.39
615.54	552.37
615.69	910.47
615.84	2703.32
616.00	5151.52
616.15	7269.70
616.30	5837.30
616.46	3882.95
616.61	2647.15
616.76	1877.11
616.92	1053.24
617.07	599.18
617.22	496.19
617.37	386.19
617.53	393.21
617.68	348.74
617.83	395.55
617.99	360.44
618.14	327.68
618.29	376.83
618.45	311.29
618.60	330.02
618.75	290.23
618.90	308.95
619.06	334.70
619.21	374.49
619.36	311.29
619.51	264.48
619.67	285.55
619.82	365.12
619.97	330.02
620.12	299.59
620.28	313.63
620.43	339.38
620.58	346.40
620.73	374.49
620.89	348.74
621.04	512.58
621.19	1514.33
621.34	2785.24
621.49	4173.18
621.65	3878.27
621.80	2724.38
621.95	1827.96
622.10	1308.36
622.25	744.29
622.41	543.00
622.56	447.04
622.71	332.36
622.86	325.33
623.01	248.10
623.16	376.83
623.32	358.10
623.47	266.82
623.62	273.84
623.77	304.27
623.92	243.42
624.07	369.80
624.23	339.38
624.38	283.20
624.53	327.68
624.68	318.31
624.83	353.42
624.98	273.84
625.13	388.53
625.29	376.83
625.44	311.29
625.59	334.70
625.74	526.62
625.89	636.63
626.04	2165.00
626.19	6656.48
626.34	12016.31
626.49	14958.36
626.65	10752.42
626.80	7339.92
626.95	4760.65
627.10	3061.42
627.25	1547.09
627.40	711.52
627.55	510.24
627.70	353.42
627.85	383.85
628.00	299.59
628.15	322.99
628.30	266.82
628.45	306.61
628.60	285.55
628.76	269.16
628.91	346.40
629.06	348.74
629.21	320.65
629.36	330.02
629.51	330.02
629.66	351.08
629.81	449.38
629.96	1259.21
630.11	2532.46
630.26	3627.83
630.41	3311.86
630.56	2298.41
630.71	1643.06
630.86	1191.33
631.01	779.40
631.16	482.15
631.31	440.02
631.46	402.57
631.61	381.51
631.76	346.40
631.91	325.33
632.06	327.68
632.21	355.76
632.36	322.99
632.51	355.76
632.66	362.78
632.81	1100.05
632.96	3613.79
633.10	7084.80
633.25	9774.08
633.40	8168.47
633.55	5547.07
633.70	3588.04
633.85	2558.21
634.00	1313.04
634.15	732.59
634.30	444.70
634.45	355.76
634.60	248.10
634.75	276.18
634.90	344.06
635.05	278.52
635.19	313.63
635.34	285.55
635.49	341.72
635.64	327.68
635.79	330.02
635.94	351.08
636.09	320.65
636.24	376.83
636.39	386.19
636.53	344.06
636.68	257.46
636.83	280.86
636.98	348.74
637.13	299.59
637.28	397.89
637.43	425.98
637.57	699.82
637.72	2944.39
637.87	8549.98
638.02	15538.82
638.17	18689.18
638.32	13490.85
638.46	8879.99
638.61	5940.28
638.76	3604.42
638.91	1860.73
639.06	926.85
639.20	650.67
639.35	587.47
639.50	957.28
639.65	4084.23
639.80	13184.24
639.94	23669.84
640.09	28404.74
640.24	20430.54
640.39	13083.59
640.54	8833.18
640.68	5467.49
640.83	2656.51
640.98	1301.34
641.13	739.61
641.27	498.53
641.42	472.79
641.57	388.53
641.72	362.78
641.86	327.68
642.01	266.82
642.16	212.99
642.31	304.27
642.45	271.50
642.60	358.10
642.75	248.10
642.90	304.27
643.04	306.61
643.19	205.97
643.34	266.82
643.48	299.59
643.63	252.78
643.78	313.63
643.93	315.97
644.07	306.61
644.22	304.27
644.37	220.01
644.51	306.61
644.66	269.16
644.81	306.61
644.95	252.78
645.10	269.16
645.25	238.73
645.39	257.46
645.54	330.02
645.69	294.91
645.83	283.20
645.98	315.97
646.13	285.55
646.27	180.22
646.42	259.80
646.57	227.03
646.71	205.97
646.86	227.03
647.00	215.33
647.15	245.76
647.30	245.76
647.44	215.33
647.59	203.63
647.74	203.63
647.88	269.16
648.03	184.90
648.17	271.50
648.32	243.42
648.47	255.12
648.61	297.25
648.76	238.73
648.90	229.37
649.05	252.78
649.20	205.97
649.34	299.59
649.49	287.89
649.63	311.29
649.78	372.15
649.92	496.19
650.07	1732.00
650.21	5795.17
650.36	10974.77
650.51	14979.43
650.65	12166.10
650.80	8255.07
650.94	5406.64
651.09	3435.91
651.23	1811.57
651.38	917.49
651.52	510.24
651.67	360.44
651.81	278.52
651.96	383.85
652.10	332.36
652.25	299.59
652.39	257.46
652.54	374.49
652.68	622.58
652.83	1879.45
652.97	3726.13
653.12	5231.10
653.26	4718.52
653.41	3433.57
653.55	2321.81
653.70	1493.26
653.84	919.83
653.99	571.09
654.13	395.55
654.27	337.04
654.42	229.37
654.56	245.76
654.71	285.55
654.85	224.69
655.00	175.54
655.14	208.31
655.29	135.75
655.43	231.71
655.57	257.46
655.72	170.86
655.86	201.29
656.01	182.56
656.15	243.42
656.30	299.59
656.44	266.82
656.58	203.63
656.73	299.59
656.87	255.12
657.01	203.63
657.16	304.27
657.30	243.42
657.45	271.50
657.59	241.08
657.73	248.10
657.88	259.80
658.02	236.39
658.16	257.46
658.31	243.42
658.45	308.95
658.60	205.97
658.74	306.61
658.88	297.25
659.03	257.46
659.17	294.91
659.31	863.66
659.46	2464.58
659.60	5083.64
659.74	7258.00
659.89	6581.59
660.03	4854.27
660.17	3267.39
660.32	1970.73
660.46	1181.97
660.60	674.07
660.74	423.64
660.89	358.10
661.03	322.99
661.17	252.78
661.32	262.14
661.46	224.69
661.60	234.05
661.74	252.78
661.89	287.89
662.03	273.84
662.17	229.37
662.31	290.23
662.46	203.63
662.60	175.54
662.74	241.08
662.88	229.37
663.03	224.69
663.17	266.82
663.31	198.95
663.45	294.91
663.60	264.48
663.74	248.10
663.88	212.99
664.02	236.39
664.17	177.88
664.31	215.33
664.45	250.44
664.59	222.35
664.73	212.99
664.88	259.80
665.02	170.86
665.16	262.14
665.30	287.89
665.44	299.59
665.59	322.99
665.73	212.99
665.87	318.31
666.01	212.99
666.15	245.76
666.29	229.37
666.44	290.23
666.58	297.25
666.72	245.76
666.86	259.80
667.00	386.19
667.14	482.15
667.28	1619.65
667.43	4880.02
667.57	9097.66
667.71	12613.15
667.85	10876.47
667.99	7971.86
668.13	4938.53
668.27	2965.46
668.41	1732.00
668.56	1048.56
668.70	578.11
668.84	416.62
668.98	355.76
669.12	320.65
669.26	287.89
669.40	322.99
669.54	283.20
669.68	271.50
669.82	241.08
669.96	290.23
670.10	250.44
670.25	276.18
670.39	198.95
670.53	215.33
670.67	201.29
670.81	285.55
670.95	327.68
671.09	498.53
671.23	1806.89
671.37	4159.13
671.51	6878.83
671.65	8023.36
671.79	6293.70
671.93	4407.23
672.07	2562.89
672.21	1465.18
672.35	926.85
672.49	571.09
672.63	400.23
672.77	266.82
672.91	313.63
673.05	212.99
673.19	220.01
673.33	238.73
673.47	220.01
673.61	212.99
673.75	168.52
673.89	231.71
674.03	262.14
674.17	180.22
674.31	208.31
674.45	196.60
674.59	201.29
674.73	280.86
674.87	304.27
675.01	250.44
675.15	273.84
675.29	266.82
675.43	264.48
675.56	276.18
675.70	259.80
675.84	248.10
675.98	243.42
676.12	196.60
676.26	145.11
676.40	182.56
676.54	229.37
676.68	271.50
676.82	184.90
676.96	184.90
677.10	227.03
677.23	194.26
677.37	203.63
677.51	201.29
677.65	198.95
677.79	203.63
677.93	194.26
678.07	189.58
678.21	210.65
678.34	198.95
678.48	222.35
678.62	238.73
678.76	191.92
678.90	238.73
679.04	152.13
679.18	187.24
679.31	245.76
679.45	238.73
679.59	95.96
679.73	198.95
679.87	184.90
680.00	187.24
680.14	173.20
680.28	138.09
680.42	161.50
680.56	217.67
680.70	236.39
680.83	114.69
680.97	124.05
681.11	163.84
681.25	189.58
681.39	170.86
681.52	210.65
681.66	248.10
681.80	182.56
681.94	175.54
682.07	147.45
682.21	189.58
682.35	161.50
682.49	161.50
682.62	147.45
682.76	135.75
682.90	222.35
683.04	194.26
683.17	191.92
683.31	156.82
683.45	196.60
683.59	198.95
683.72	217.67
683.86	201.29
684.00	140.43
684.13	238.73
684.27	198.95
684.41	182.56
684.55	210.65
684.68	236.39
684.82	117.03
684.96	187.24
685.09	241.08
685.23	100.64
685.37	224.69
685.50	170.86
685.64	212.99
685.78	238.73
685.91	220.01
686.05	255.12
686.19	215.33
686.32	243.42
686.46	229.37
686.60	194.26
686.73	266.82
686.87	264.48
687.01	229.37
687.14	257.46
687.28	184.90
687.42	212.99
687.55	212.99
687.69	210.65
687.82	140.43
687.96	110.01
688.10	252.78
688.23	149.79
688.37	184.90
688.50	154.48
688.64	198.95
688.78	215.33
688.91	201.29
689.05	231.71
689.18	175.54
689.32	196.60
689.46	126.39
689.59	180.22
689.73	173.20
689.86	138.09
690.00	205.97
690.13	182.56
690.27	238.73
690.41	175.54
690.54	168.52
690.68	229.37
690.81	119.37
690.95	154.48
691.08	201.29
691.22	215.33
691.35	208.31
691.49	191.92
691.62	203.63
691.76	222.35
691.89	205.97
692.03	229.37
692.16	217.67
692.30	234.05
692.43	552.37
692.57	1961.37
692.70	3819.75
692.84	5474.51
692.97	5413.66
693.11	4093.60
693.24	2951.42
693.38	2012.86
693.51	1366.87
693.65	798.12
693.78	603.86
693.92	456.40
694.05	334.70
694.19	231.71
694.32	222.35
694.45	264.48
694.59	212.99
694.72	124.05
694.86	145.11
694.99	191.92
695.13	156.82
695.26	163.84
695.39	170.86
695.53	231.71
695.66	166.18
695.80	149.79
695.93	189.58
696.07	217.67
696.20	290.23
696.33	397.89
696.47	451.72
696.60	390.87
696.73	339.38
696.87	358.10
697.00	360.44
697.14	234.05
697.27	201.29
697.40	301.93
697.54	180.22
697.67	170.86
697.80	147.45
697.94	145.11
698.07	170.86
698.21	229.37
698.34	180.22
698.47	187.24
698.61	191.92
698.74	74.90
698.87	196.60
699.01	182.56
699.14	145.11
699.27	187.24
699.40	269.16
699.54	191.92
699.67	156.82
699.80	173.20
699.94	133.41
700.07	170.86
700.20	191.92
700.34	126.39
700.47	133.41
700.60	131.07
700.73	210.65
700.87	217.67
701.00	149.79
701.13	222.35
701.26	212.99
701.40	168.52
701.53	194.26
701.66	180.22
701.79	149.79
701.93	273.84
702.06	341.72
702.19	463.43
702.32	521.94
702.46	451.72
702.59	505.56
702.72	814.51
702.85	2373.30
702.99	5661.76
703.12	9006.38
703.25	11000.52
703.38	9261.50
703.51	7426.52
703.65	5750.70
703.78	4046.79
703.91	2555.86
704.04	1781.15
704.17	1020.47
704.31	730.25
704.44	507.90
704.57	353.42
704.70	234.05
704.83	212.99
704.96	194.26
705.10	222.35
705.23	212.99
>>>>>End Processed Spectral Data<<<<<
