SpectraSuite Data File
++++++++++++++++++++++++++++++++++++
Date: Fri Oct 04 11:33:54 GMT-05:00 2013
User: price-jones
Dark Spectrum Present: No
Reference Spectrum Present: No
Number of Sampled Component Spectra: 1
Spectrometers: USB2+H05261
Integration Time (usec): 100000 (USB2+H05261)
Spectra Averaged: 1 (USB2+H05261)
Boxcar Smoothing: 0 (USB2+H05261)
Correct for Electrical Dark: No (USB2+H05261)
Strobe/Lamp Enabled: No (USB2+H05261)
Correct for Detector Non-linearity: No (USB2+H05261)
Correct for Stray Light: No (USB2+H05261)
Number of Pixels in Processed Spectrum: 2048
>>>>>Begin Processed Spectral Data<<<<<
365.73	105.32
365.92	105.32
366.12	105.32
366.32	0.00
366.52	0.00
366.72	0.00
366.91	4.68
367.11	0.00
367.31	0.00
367.51	0.00
367.70	0.00
367.90	0.00
368.10	0.00
368.30	0.00
368.49	0.00
368.69	72.56
368.89	11.70
369.09	0.00
369.28	0.00
369.48	9.36
369.68	0.00
369.87	0.00
370.07	67.88
370.27	77.24
370.47	42.13
370.66	72.56
370.86	65.54
371.06	46.81
371.25	44.47
371.45	9.36
371.65	159.16
371.84	100.64
372.04	187.24
372.24	152.13
372.44	142.77
372.63	126.39
372.83	112.35
373.03	21.06
373.22	65.54
373.42	194.26
373.62	133.41
373.81	145.11
374.01	173.20
374.21	138.09
374.40	140.43
374.60	161.50
374.79	110.01
374.99	170.86
375.19	135.75
375.38	180.22
375.58	112.35
375.78	170.86
375.97	149.79
376.17	238.73
376.37	147.45
376.56	81.92
376.76	86.60
376.95	128.73
377.15	191.92
377.35	149.79
377.54	173.20
377.74	180.22
377.93	110.01
378.13	121.71
378.33	205.97
378.52	138.09
378.72	168.52
378.91	138.09
379.11	124.05
379.31	128.73
379.50	133.41
379.70	124.05
379.89	145.11
380.09	133.41
380.28	117.03
380.48	119.37
380.68	95.96
380.87	131.07
381.07	177.88
381.26	210.65
381.46	210.65
381.65	126.39
381.85	74.90
382.04	182.56
382.24	145.11
382.43	180.22
382.63	159.16
382.83	189.58
383.02	212.99
383.22	110.01
383.41	154.48
383.61	131.07
383.80	126.39
384.00	191.92
384.19	60.85
384.39	84.26
384.58	140.43
384.78	173.20
384.97	168.52
385.17	128.73
385.36	149.79
385.56	196.60
385.75	100.64
385.95	131.07
386.14	135.75
386.34	70.22
386.53	189.58
386.72	117.03
386.92	166.18
387.11	196.60
387.31	168.52
387.50	117.03
387.70	98.30
387.89	121.71
388.09	187.24
388.28	114.69
388.48	91.28
388.67	203.63
388.86	133.41
389.06	124.05
389.25	102.98
389.45	105.32
389.64	126.39
389.84	180.22
390.03	107.66
390.22	131.07
390.42	142.77
390.61	142.77
390.81	93.62
391.00	91.28
391.19	124.05
391.39	173.20
391.58	93.62
391.78	187.24
391.97	170.86
392.16	227.03
392.36	220.01
392.55	220.01
392.75	175.54
392.94	187.24
393.13	161.50
393.33	119.37
393.52	74.90
393.71	189.58
393.91	124.05
394.10	135.75
394.29	152.13
394.49	142.77
394.68	184.90
394.88	198.95
395.07	208.31
395.26	166.18
395.46	161.50
395.65	77.24
395.84	203.63
396.04	189.58
396.23	145.11
396.42	128.73
396.62	217.67
396.81	159.16
397.00	100.64
397.19	175.54
397.39	119.37
397.58	166.18
397.77	128.73
397.97	112.35
398.16	98.30
398.35	86.60
398.55	140.43
398.74	205.97
398.93	124.05
399.12	177.88
399.32	161.50
399.51	152.13
399.70	161.50
399.90	119.37
400.09	173.20
400.28	170.86
400.47	128.73
400.67	168.52
400.86	133.41
401.05	196.60
401.24	222.35
401.44	119.37
401.63	187.24
401.82	100.64
402.01	114.69
402.21	217.67
402.40	145.11
402.59	152.13
402.78	191.92
402.97	159.16
403.17	159.16
403.36	196.60
403.55	145.11
403.74	175.54
403.93	231.71
404.13	280.86
404.32	234.05
404.51	205.97
404.70	180.22
404.89	187.24
405.09	152.13
405.28	63.19
405.47	100.64
405.66	138.09
405.85	145.11
406.05	180.22
406.24	161.50
406.43	189.58
406.62	133.41
406.81	100.64
407.00	208.31
407.20	128.73
407.39	173.20
407.58	184.90
407.77	147.45
407.96	154.48
408.15	105.32
408.34	133.41
408.54	184.90
408.73	180.22
408.92	205.97
409.11	187.24
409.30	135.75
409.49	128.73
409.68	194.26
409.87	208.31
410.07	152.13
410.26	194.26
410.45	124.05
410.64	170.86
410.83	154.48
411.02	131.07
411.21	131.07
411.40	154.48
411.59	191.92
411.78	128.73
411.98	208.31
412.17	93.62
412.36	187.24
412.55	121.71
412.74	79.58
412.93	220.01
413.12	117.03
413.31	177.88
413.50	126.39
413.69	184.90
413.88	227.03
414.07	154.48
414.26	175.54
414.45	182.56
414.64	182.56
414.83	156.82
415.02	191.92
415.22	156.82
415.41	229.37
415.60	187.24
415.79	205.97
415.98	259.80
416.17	161.50
416.36	180.22
416.55	191.92
416.74	198.95
416.93	147.45
417.12	215.33
417.31	119.37
417.50	203.63
417.69	287.89
417.88	271.50
418.07	215.33
418.26	264.48
418.45	210.65
418.64	173.20
418.83	236.39
419.02	301.93
419.21	241.08
419.39	187.24
419.58	201.29
419.77	297.25
419.96	210.65
420.15	177.88
420.34	259.80
420.53	217.67
420.72	203.63
420.91	180.22
421.10	180.22
421.29	191.92
421.48	159.16
421.67	149.79
421.86	170.86
422.05	152.13
422.24	140.43
422.43	163.84
422.61	107.66
422.80	189.58
422.99	140.43
423.18	161.50
423.37	222.35
423.56	168.52
423.75	161.50
423.94	112.35
424.13	170.86
424.32	187.24
424.50	166.18
424.69	198.95
424.88	170.86
425.07	229.37
425.26	243.42
425.45	264.48
425.64	264.48
425.83	180.22
426.01	180.22
426.20	203.63
426.39	138.09
426.58	196.60
426.77	205.97
426.96	175.54
427.15	168.52
427.33	86.60
427.52	184.90
427.71	168.52
427.90	177.88
428.09	180.22
428.28	86.60
428.46	198.95
428.65	234.05
428.84	152.13
429.03	208.31
429.22	205.97
429.40	142.77
429.59	154.48
429.78	280.86
429.97	198.95
430.16	194.26
430.34	154.48
430.53	133.41
430.72	100.64
430.91	236.39
431.10	203.63
431.28	138.09
431.47	154.48
431.66	177.88
431.85	173.20
432.03	196.60
432.22	201.29
432.41	100.64
432.60	166.18
432.79	182.56
432.97	212.99
433.16	264.48
433.35	292.57
433.54	229.37
433.72	138.09
433.91	154.48
434.10	180.22
434.28	196.60
434.47	187.24
434.66	184.90
434.85	187.24
435.03	243.42
435.22	299.59
435.41	418.96
435.59	278.52
435.78	245.76
435.97	250.44
436.16	224.69
436.34	264.48
436.53	217.67
436.72	194.26
436.90	227.03
437.09	147.45
437.28	175.54
437.46	212.99
437.65	212.99
437.84	149.79
438.02	231.71
438.21	227.03
438.40	163.84
438.58	161.50
438.77	170.86
438.96	114.69
439.14	149.79
439.33	217.67
439.52	212.99
439.70	163.84
439.89	196.60
440.08	224.69
440.26	121.71
440.45	184.90
440.63	245.76
440.82	208.31
441.01	100.64
441.19	154.48
441.38	163.84
441.57	212.99
441.75	196.60
441.94	191.92
442.12	175.54
442.31	208.31
442.50	184.90
442.68	159.16
442.87	159.16
443.05	152.13
443.24	184.90
443.43	215.33
443.61	142.77
443.80	180.22
443.98	217.67
444.17	196.60
444.35	255.12
444.54	212.99
444.73	283.20
444.91	191.92
445.10	105.32
445.28	168.52
445.47	220.01
445.65	163.84
445.84	227.03
446.02	161.50
446.21	210.65
446.39	166.18
446.58	203.63
446.77	140.43
446.95	229.37
447.14	149.79
447.32	187.24
447.51	210.65
447.69	194.26
447.88	236.39
448.06	173.20
448.25	208.31
448.43	212.99
448.62	133.41
448.80	159.16
448.99	201.29
449.17	180.22
449.36	168.52
449.54	224.69
449.73	168.52
449.91	215.33
450.10	133.41
450.28	229.37
450.46	210.65
450.65	266.82
450.83	243.42
451.02	236.39
451.20	215.33
451.39	152.13
451.57	175.54
451.76	201.29
451.94	159.16
452.13	149.79
452.31	196.60
452.49	124.05
452.68	131.07
452.86	114.69
453.05	255.12
453.23	201.29
453.42	177.88
453.60	152.13
453.78	224.69
453.97	131.07
454.15	177.88
454.34	224.69
454.52	173.20
454.70	220.01
454.89	145.11
455.07	142.77
455.26	173.20
455.44	210.65
455.62	100.64
455.81	180.22
455.99	255.12
456.17	191.92
456.36	210.65
456.54	163.84
456.73	128.73
456.91	100.64
457.09	236.39
457.28	255.12
457.46	145.11
457.64	262.14
457.83	180.22
458.01	154.48
458.19	154.48
458.38	215.33
458.56	229.37
458.74	229.37
458.93	182.56
459.11	173.20
459.29	187.24
459.48	189.58
459.66	205.97
459.84	257.46
460.03	243.42
460.21	210.65
460.39	177.88
460.57	238.73
460.76	182.56
460.94	208.31
461.12	234.05
461.31	236.39
461.49	210.65
461.67	175.54
461.85	205.97
462.04	201.29
462.22	655.35
462.40	250.44
462.59	229.37
462.77	147.45
462.95	107.66
463.13	194.26
463.32	224.69
463.50	241.08
463.68	250.44
463.86	135.75
464.05	215.33
464.23	163.84
464.41	189.58
464.59	205.97
464.78	110.01
464.96	161.50
465.14	117.03
465.32	224.69
465.50	198.95
465.69	180.22
465.87	124.05
466.05	241.08
466.23	147.45
466.41	140.43
466.60	227.03
466.78	205.97
466.96	231.71
467.14	205.97
467.32	231.71
467.51	264.48
467.69	217.67
467.87	220.01
468.05	238.73
468.23	255.12
468.41	287.89
468.60	187.24
468.78	154.48
468.96	222.35
469.14	156.82
469.32	227.03
469.50	208.31
469.69	215.33
469.87	243.42
470.05	252.78
470.23	259.80
470.41	189.58
470.59	248.10
470.77	231.71
470.95	182.56
471.14	196.60
471.32	191.92
471.50	269.16
471.68	173.20
471.86	180.22
472.04	135.75
472.22	191.92
472.40	194.26
472.58	189.58
472.77	175.54
472.95	231.71
473.13	222.35
473.31	252.78
473.49	140.43
473.67	100.64
473.85	205.97
474.03	177.88
474.21	222.35
474.39	152.13
474.57	276.18
474.75	264.48
474.93	250.44
475.12	156.82
475.30	177.88
475.48	168.52
475.66	201.29
475.84	145.11
476.02	142.77
476.20	217.67
476.38	241.08
476.56	257.46
476.74	283.20
476.92	259.80
477.10	203.63
477.28	205.97
477.46	259.80
477.64	166.18
477.82	215.33
478.00	135.75
478.18	147.45
478.36	170.86
478.54	224.69
478.72	273.84
478.90	184.90
479.08	208.31
479.26	269.16
479.44	173.20
479.62	231.71
479.80	177.88
479.98	182.56
480.16	194.26
480.34	149.79
480.52	201.29
480.70	264.48
480.88	205.97
481.06	156.82
481.24	203.63
481.41	257.46
481.59	250.44
481.77	217.67
481.95	191.92
482.13	280.86
482.31	184.90
482.49	238.73
482.67	173.20
482.85	248.10
483.03	292.57
483.21	182.56
483.39	220.01
483.57	220.01
483.74	222.35
483.92	245.76
484.10	231.71
484.28	196.60
484.46	299.59
484.64	231.71
484.82	243.42
485.00	234.05
485.18	217.67
485.35	264.48
485.53	280.86
485.71	257.46
485.89	229.37
486.07	222.35
486.25	390.87
486.43	346.40
486.61	215.33
486.78	271.50
486.96	252.78
487.14	276.18
487.32	255.12
487.50	269.16
487.68	220.01
487.85	222.35
488.03	290.23
488.21	301.93
488.39	313.63
488.57	231.71
488.75	208.31
488.92	477.47
489.10	238.73
489.28	262.14
489.46	217.67
489.64	241.08
489.81	308.95
489.99	269.16
490.17	220.01
490.35	318.31
490.53	231.71
490.70	224.69
490.88	283.20
491.06	234.05
491.24	241.08
491.41	334.70
491.59	191.92
491.77	252.78
491.95	227.03
492.13	243.42
492.30	262.14
492.48	231.71
492.66	257.46
492.84	234.05
493.01	285.55
493.19	189.58
493.37	301.93
493.54	208.31
493.72	201.29
493.90	271.50
494.08	227.03
494.25	201.29
494.43	264.48
494.61	313.63
494.79	243.42
494.96	173.20
495.14	245.76
495.32	308.95
495.49	369.80
495.67	250.44
495.85	266.82
496.02	313.63
496.20	339.38
496.38	320.65
496.55	250.44
496.73	252.78
496.91	205.97
497.09	278.52
497.26	243.42
497.44	184.90
497.62	273.84
497.79	189.58
497.97	292.57
498.14	273.84
498.32	203.63
498.50	184.90
498.67	266.82
498.85	227.03
499.03	245.76
499.20	252.78
499.38	255.12
499.56	238.73
499.73	278.52
499.91	276.18
500.08	273.84
500.26	259.80
500.44	245.76
500.61	205.97
500.79	224.69
500.97	245.76
501.14	278.52
501.32	241.08
501.49	346.40
501.67	287.89
501.84	194.26
502.02	201.29
502.20	290.23
502.37	252.78
502.55	311.29
502.72	332.36
502.90	346.40
503.07	290.23
503.25	330.02
503.43	245.76
503.60	255.12
503.78	264.48
503.95	241.08
504.13	304.27
504.30	304.27
504.48	283.20
504.65	337.04
504.83	308.95
505.01	285.55
505.18	269.16
505.36	311.29
505.53	283.20
505.71	273.84
505.88	283.20
506.06	297.25
506.23	187.24
506.41	308.95
506.58	220.01
506.76	255.12
506.93	248.10
507.11	339.38
507.28	308.95
507.46	234.05
507.63	271.50
507.81	276.18
507.98	285.55
508.16	196.60
508.33	198.95
508.50	322.99
508.68	294.91
508.85	229.37
509.03	322.99
509.20	212.99
509.38	292.57
509.55	351.08
509.73	297.25
509.90	292.57
510.08	234.05
510.25	318.31
510.42	255.12
510.60	194.26
510.77	227.03
510.95	287.89
511.12	236.39
511.30	301.93
511.47	318.31
511.64	332.36
511.82	243.42
511.99	236.39
512.17	313.63
512.34	243.42
512.51	222.35
512.69	212.99
512.86	266.82
513.04	276.18
513.21	198.95
513.38	255.12
513.56	187.24
513.73	271.50
513.90	313.63
514.08	269.16
514.25	278.52
514.43	276.18
514.60	306.61
514.77	262.14
514.95	266.82
515.12	250.44
515.29	217.67
515.47	259.80
515.64	271.50
515.81	257.46
515.99	299.59
516.16	285.55
516.33	308.95
516.51	222.35
516.68	212.99
516.85	210.65
517.03	252.78
517.20	344.06
517.37	201.29
517.54	266.82
517.72	243.42
517.89	276.18
518.06	243.42
518.24	227.03
518.41	290.23
518.58	271.50
518.75	353.42
518.93	245.76
519.10	304.27
519.27	238.73
519.45	234.05
519.62	273.84
519.79	294.91
519.96	271.50
520.14	271.50
520.31	257.46
520.48	231.71
520.65	285.55
520.83	273.84
521.00	283.20
521.17	273.84
521.34	159.16
521.52	299.59
521.69	217.67
521.86	180.22
522.03	259.80
522.20	285.55
522.38	271.50
522.55	297.25
522.72	262.14
522.89	257.46
523.07	348.74
523.24	266.82
523.41	220.01
523.58	224.69
523.75	266.82
523.92	285.55
524.10	322.99
524.27	238.73
524.44	308.95
524.61	273.84
524.78	231.71
524.96	294.91
525.13	234.05
525.30	229.37
525.47	266.82
525.64	372.15
525.81	285.55
525.98	222.35
526.16	229.37
526.33	196.60
526.50	222.35
526.67	278.52
526.84	234.05
527.01	262.14
527.18	250.44
527.36	227.03
527.53	264.48
527.70	332.36
527.87	290.23
528.04	290.23
528.21	201.29
528.38	266.82
528.55	313.63
528.72	271.50
528.89	360.44
529.07	238.73
529.24	280.86
529.41	348.74
529.58	322.99
529.75	278.52
529.92	337.04
530.09	262.14
530.26	241.08
530.43	315.97
530.60	187.24
530.77	292.57
530.94	304.27
531.11	285.55
531.28	224.69
531.46	264.48
531.63	308.95
531.80	330.02
531.97	224.69
532.14	280.86
532.31	266.82
532.48	320.65
532.65	362.78
532.82	322.99
532.99	337.04
533.16	374.49
533.33	386.19
533.50	351.08
533.67	369.80
533.84	433.00
534.01	465.77
534.18	411.93
534.35	318.31
534.52	315.97
534.69	327.68
534.86	234.05
535.03	337.04
535.20	290.23
535.37	320.65
535.54	278.52
535.71	236.39
535.88	351.08
536.05	266.82
536.22	245.76
536.38	315.97
536.55	259.80
536.72	313.63
536.89	327.68
537.06	327.68
537.23	304.27
537.40	283.20
537.57	360.44
537.74	294.91
537.91	322.99
538.08	390.87
538.25	360.44
538.42	414.27
538.59	285.55
538.75	262.14
538.92	409.59
539.09	283.20
539.26	369.80
539.43	524.28
539.60	835.57
539.77	1446.45
539.94	1652.42
540.11	1153.88
540.28	777.06
540.44	613.22
540.61	411.93
540.78	400.23
540.95	454.06
541.12	535.98
541.29	505.56
541.46	545.34
541.62	543.00
541.79	512.58
541.96	496.19
542.13	461.09
542.30	425.98
542.47	402.57
542.63	449.38
542.80	507.90
542.97	505.56
543.14	517.26
543.31	477.47
543.48	505.56
543.64	486.83
543.81	458.74
543.98	425.98
544.15	461.09
544.32	433.00
544.48	454.06
544.65	545.34
544.82	472.79
544.99	482.15
545.16	416.62
545.32	470.45
545.49	706.84
545.66	847.27
545.83	901.11
546.00	805.14
546.16	657.69
546.33	524.28
546.50	519.60
546.67	491.51
546.83	437.68
547.00	393.21
547.17	290.23
547.34	381.51
547.50	393.21
547.67	395.55
547.84	400.23
548.00	334.70
548.17	355.76
548.34	369.80
548.51	388.53
548.67	421.30
548.84	376.83
549.01	395.55
549.18	304.27
549.34	379.17
549.51	283.20
549.68	376.83
549.84	346.40
550.01	334.70
550.18	514.92
550.34	428.32
550.51	360.44
550.68	332.36
550.84	322.99
551.01	332.36
551.18	315.97
551.34	299.59
551.51	290.23
551.68	280.86
551.84	294.91
552.01	273.84
552.18	318.31
552.34	320.65
552.51	283.20
552.68	285.55
552.84	269.16
553.01	313.63
553.18	360.44
553.34	306.61
553.51	273.84
553.67	306.61
553.84	327.68
554.01	290.23
554.17	409.59
554.34	283.20
554.51	290.23
554.67	383.85
554.84	306.61
555.00	346.40
555.17	210.65
555.33	285.55
555.50	369.80
555.67	360.44
555.83	322.99
556.00	280.86
556.16	447.04
556.33	280.86
556.50	243.42
556.66	278.52
556.83	266.82
556.99	236.39
557.16	283.20
557.32	320.65
557.49	294.91
557.65	262.14
557.82	315.97
557.98	304.27
558.15	313.63
558.32	175.54
558.48	264.48
558.65	264.48
558.81	266.82
558.98	276.18
559.14	222.35
559.31	264.48
559.47	353.42
559.64	257.46
559.80	276.18
559.97	259.80
560.13	255.12
560.30	245.76
560.46	262.14
560.63	264.48
560.79	308.95
560.96	299.59
561.12	238.73
561.29	294.91
561.45	234.05
561.61	266.82
561.78	393.21
561.94	283.20
562.11	231.71
562.27	276.18
562.44	278.52
562.60	241.08
562.77	243.42
562.93	224.69
563.10	344.06
563.26	243.42
563.42	341.72
563.59	227.03
563.75	308.95
563.92	299.59
564.08	379.17
564.24	259.80
564.41	325.33
564.57	278.52
564.74	294.91
564.90	320.65
565.07	294.91
565.23	264.48
565.39	318.31
565.56	372.15
565.72	287.89
565.88	187.24
566.05	245.76
566.21	259.80
566.38	290.23
566.54	339.38
566.70	236.39
566.87	236.39
567.03	320.65
567.19	285.55
567.36	297.25
567.52	308.95
567.68	351.08
567.85	280.86
568.01	255.12
568.17	252.78
568.34	269.16
568.50	280.86
568.66	217.67
568.83	332.36
568.99	304.27
569.15	259.80
569.32	215.33
569.48	271.50
569.64	278.52
569.81	222.35
569.97	203.63
570.13	212.99
570.30	238.73
570.46	339.38
570.62	299.59
570.78	245.76
570.95	283.20
571.11	339.38
571.27	355.76
571.43	234.05
571.60	229.37
571.76	257.46
571.92	243.42
572.09	266.82
572.25	311.29
572.41	266.82
572.57	259.80
572.74	287.89
572.90	346.40
573.06	280.86
573.22	266.82
573.38	337.04
573.55	224.69
573.71	294.91
573.87	292.57
574.03	285.55
574.20	294.91
574.36	276.18
574.52	404.91
574.68	372.15
574.84	355.76
575.01	318.31
575.17	276.18
575.33	299.59
575.49	299.59
575.65	425.98
575.82	318.31
575.98	526.62
576.14	575.77
576.30	854.30
576.46	657.69
576.62	599.18
576.79	465.77
576.95	428.32
577.11	304.27
577.27	339.38
577.43	330.02
577.59	348.74
577.75	315.97
577.92	322.99
578.08	330.02
578.24	276.18
578.40	344.06
578.56	404.91
578.72	437.68
578.88	491.51
579.04	433.00
579.21	367.46
579.37	381.51
579.53	355.76
579.69	355.76
579.85	395.55
580.01	327.68
580.17	388.53
580.33	421.30
580.49	416.62
580.65	411.93
580.82	353.42
580.98	402.57
581.14	390.87
581.30	458.74
581.46	447.04
581.62	566.41
581.78	629.60
581.94	580.45
582.10	498.53
582.26	447.04
582.42	465.77
582.58	524.28
582.74	451.72
582.90	482.15
583.06	510.24
583.22	500.87
583.38	561.73
583.54	613.22
583.70	559.39
583.86	685.78
584.02	704.50
584.18	891.74
584.34	1088.35
584.50	2286.70
584.66	15531.80
584.82	45233.19
584.98	62284.00
585.14	62120.16
585.30	45773.86
585.46	25752.91
585.62	15892.24
585.78	7599.72
585.94	3063.76
586.10	1636.03
586.26	976.00
586.42	894.08
586.58	781.74
586.74	585.13
586.90	692.80
587.06	692.80
587.22	599.18
587.38	519.60
587.54	877.70
587.70	2586.29
587.86	4901.08
588.02	6410.73
588.18	4421.27
588.34	2691.62
588.49	1771.79
588.65	1196.01
588.81	779.40
588.97	355.76
589.13	440.02
589.29	400.23
589.45	409.59
589.61	437.68
589.77	449.38
589.93	374.49
590.08	454.06
590.24	479.81
590.40	416.62
590.56	430.66
590.72	442.36
590.88	337.04
591.04	482.15
591.20	451.72
591.35	411.93
591.51	421.30
591.67	325.33
591.83	381.51
591.99	334.70
592.15	339.38
592.31	425.98
592.46	315.97
592.62	297.25
592.78	397.89
592.94	416.62
593.10	433.00
593.26	454.06
593.41	344.06
593.57	395.55
593.73	524.28
593.89	1926.26
594.05	5266.21
594.20	9495.55
594.36	10050.26
594.52	6415.41
594.68	3990.61
594.84	2560.55
594.99	1511.99
595.15	774.72
595.31	521.94
595.47	447.04
595.62	393.21
595.78	315.97
595.94	440.02
596.10	437.68
596.25	430.66
596.41	355.76
596.57	458.74
596.73	362.78
596.88	484.49
597.04	1200.69
597.20	1952.01
597.36	2654.17
597.51	2122.87
597.67	1399.64
597.83	947.92
597.99	720.88
598.14	535.98
598.30	400.23
598.46	376.83
598.61	449.38
598.77	397.89
598.93	369.80
599.09	369.80
599.24	369.80
599.40	322.99
599.56	327.68
599.71	379.17
599.87	269.16
600.03	276.18
600.18	330.02
600.34	241.08
600.50	395.55
600.65	287.89
600.81	351.08
600.97	252.78
601.12	262.14
601.28	299.59
601.44	257.46
601.59	255.12
601.75	358.10
601.91	379.17
602.06	301.93
602.22	358.10
602.37	585.13
602.53	1378.58
602.69	2347.56
602.84	2878.86
603.00	2157.97
603.16	1460.49
603.31	954.94
603.47	662.37
603.62	493.85
603.78	430.66
603.94	407.25
604.09	367.46
604.25	381.51
604.40	376.83
604.56	327.68
604.71	379.17
604.87	283.20
605.03	334.70
605.18	278.52
605.34	386.19
605.49	292.57
605.65	304.27
605.80	299.59
605.96	287.89
606.12	386.19
606.27	461.09
606.43	372.15
606.58	388.53
606.74	709.18
606.89	2380.32
607.05	5685.16
607.20	8746.58
607.36	7447.58
607.51	4954.91
607.67	3117.59
607.82	2260.96
607.98	1167.93
608.13	791.10
608.29	381.51
608.44	568.75
608.60	526.62
608.75	575.77
608.91	924.51
609.06	3634.85
609.22	9296.61
609.37	15173.69
609.53	13837.25
609.68	9121.07
609.84	5631.33
609.99	3871.25
610.15	2272.66
610.30	1214.74
610.46	873.02
610.61	814.51
610.76	976.00
610.92	1076.65
611.07	1020.47
611.23	1060.26
611.38	987.71
611.54	924.51
611.69	779.40
611.84	730.25
612.00	634.29
612.15	702.16
612.31	697.48
612.46	807.48
612.62	863.66
612.77	947.92
612.92	791.10
613.08	718.54
613.23	667.05
613.39	653.01
613.54	873.02
613.69	3379.73
613.85	10448.15
614.00	20011.58
614.15	24872.87
614.31	17284.86
614.46	10633.05
614.62	7021.61
614.77	4425.95
614.92	2127.55
615.08	1116.44
615.23	767.70
615.38	575.77
615.54	524.28
615.69	821.53
615.84	2099.46
616.00	4318.29
616.15	6532.44
616.30	5341.10
616.46	3492.08
616.61	2382.67
616.76	1612.63
616.92	994.73
617.07	617.90
617.22	447.04
617.37	383.85
617.53	418.96
617.68	381.51
617.83	369.80
617.99	344.06
618.14	372.15
618.29	367.46
618.45	320.65
618.60	341.72
618.75	322.99
618.90	259.80
619.06	414.27
619.21	400.23
619.36	318.31
619.51	332.36
619.67	322.99
619.82	234.05
619.97	271.50
620.12	369.80
620.28	386.19
620.43	330.02
620.58	330.02
620.73	290.23
620.89	407.25
621.04	477.47
621.19	1137.50
621.34	2469.27
621.49	3756.56
621.65	3520.17
621.80	2347.56
621.95	1706.25
622.10	1139.84
622.25	760.67
622.41	470.45
622.56	425.98
622.71	301.93
622.86	320.65
623.01	346.40
623.16	376.83
623.32	292.57
623.47	322.99
623.62	315.97
623.77	353.42
623.92	231.71
624.07	304.27
624.23	339.38
624.38	308.95
624.53	383.85
624.68	304.27
624.83	299.59
624.98	362.78
625.13	290.23
625.29	346.40
625.44	393.21
625.59	362.78
625.74	418.96
625.89	543.00
626.04	1706.25
626.19	5048.54
626.34	9788.12
626.49	12594.42
626.65	9366.82
626.80	6143.91
626.95	3943.80
627.10	2614.38
627.25	1284.95
627.40	697.48
627.55	444.70
627.70	421.30
627.85	362.78
628.00	304.27
628.15	243.42
628.30	339.38
628.45	236.39
628.60	236.39
628.76	348.74
628.91	276.18
629.06	264.48
629.21	276.18
629.36	414.27
629.51	283.20
629.66	400.23
629.81	449.38
629.96	976.00
630.11	2031.58
630.26	3201.85
630.41	2986.52
630.56	2211.81
630.71	1394.96
630.86	1114.10
631.01	716.20
631.16	535.98
631.31	454.06
631.46	311.29
631.61	402.57
631.76	292.57
631.91	320.65
632.06	365.12
632.21	353.42
632.36	355.76
632.51	344.06
632.66	421.30
632.81	954.94
632.96	2846.09
633.10	6017.52
633.25	8578.06
633.40	7248.64
633.55	4894.06
633.70	3150.36
633.85	2127.55
634.00	1111.75
634.15	620.24
634.30	428.32
634.45	430.66
634.60	313.63
634.75	388.53
634.90	269.16
635.05	301.93
635.19	259.80
635.34	245.76
635.49	306.61
635.64	322.99
635.79	271.50
635.94	341.72
636.09	313.63
636.24	278.52
636.39	353.42
636.53	341.72
636.68	334.70
636.83	337.04
636.98	292.57
637.13	374.49
637.28	351.08
637.43	407.25
637.57	638.97
637.72	2335.85
637.87	6839.05
638.02	13006.36
638.17	16634.19
638.32	11999.93
638.46	7740.15
638.61	5146.84
638.76	3276.75
638.91	1654.76
639.06	947.92
639.20	657.69
639.35	638.97
639.50	802.80
639.65	3243.98
639.80	10174.31
639.94	19304.74
640.09	25125.65
640.24	18113.41
640.39	11665.23
640.54	7627.81
640.68	4643.62
640.83	2347.56
640.98	1118.78
641.13	622.58
641.27	486.83
641.42	390.87
641.57	456.40
641.72	404.91
641.86	395.55
642.01	271.50
642.16	362.78
642.31	280.86
642.45	297.25
642.60	222.35
642.75	278.52
642.90	248.10
643.04	257.46
643.19	257.46
643.34	215.33
643.48	194.26
643.63	196.60
643.78	294.91
643.93	278.52
644.07	280.86
644.22	306.61
644.37	220.01
644.51	332.36
644.66	264.48
644.81	292.57
644.95	238.73
645.10	227.03
645.25	259.80
645.39	264.48
645.54	241.08
645.69	283.20
645.83	227.03
645.98	292.57
646.13	351.08
646.27	201.29
646.42	301.93
646.57	313.63
646.71	234.05
646.86	156.82
647.00	210.65
647.15	299.59
647.30	262.14
647.44	269.16
647.59	248.10
647.74	222.35
647.88	231.71
648.03	257.46
648.17	243.42
648.32	269.16
648.47	278.52
648.61	276.18
648.76	264.48
648.90	205.97
649.05	243.42
649.20	346.40
649.34	322.99
649.49	252.78
649.63	280.86
649.78	320.65
649.92	393.21
650.07	1425.39
650.21	4631.92
650.36	8833.18
650.51	12334.62
650.65	10729.02
650.80	7290.77
650.94	4709.16
651.09	2991.20
651.23	1619.65
651.38	870.68
651.52	423.64
651.67	369.80
651.81	276.18
651.96	341.72
652.10	301.93
652.25	278.52
652.39	292.57
652.54	369.80
652.68	543.00
652.83	1474.54
652.97	3033.33
653.12	4409.57
653.26	4147.43
653.41	2995.89
653.55	1963.71
653.70	1369.21
653.84	851.96
653.99	454.06
654.13	320.65
654.27	264.48
654.42	259.80
654.56	245.76
654.71	351.08
654.85	166.18
655.00	234.05
655.14	278.52
655.29	273.84
655.43	198.95
655.57	241.08
655.72	264.48
655.86	252.78
656.01	269.16
656.15	210.65
656.30	311.29
656.44	227.03
656.58	236.39
656.73	220.01
656.87	191.92
657.01	224.69
657.16	297.25
657.30	348.74
657.45	231.71
657.59	180.22
657.73	140.43
657.88	262.14
658.02	243.42
658.16	161.50
658.31	205.97
658.45	255.12
658.60	245.76
658.74	252.78
658.88	243.42
659.03	292.57
659.17	318.31
659.31	683.44
659.46	2221.17
659.60	4411.91
659.74	6459.88
659.89	5680.48
660.03	4259.78
660.17	2846.09
660.32	1809.23
660.46	1060.26
660.60	622.58
660.74	456.40
660.89	374.49
661.03	290.23
661.17	241.08
661.32	259.80
661.46	250.44
661.60	182.56
661.74	154.48
661.89	234.05
662.03	212.99
662.17	238.73
662.31	220.01
662.46	285.55
662.60	220.01
662.74	243.42
662.88	234.05
663.03	271.50
663.17	269.16
663.31	292.57
663.45	252.78
663.60	217.67
663.74	262.14
663.88	241.08
664.02	255.12
664.17	184.90
664.31	217.67
664.45	203.63
664.59	238.73
664.73	248.10
664.88	245.76
665.02	191.92
665.16	262.14
665.30	358.10
665.44	201.29
665.59	271.50
665.73	231.71
665.87	173.20
666.01	180.22
666.15	212.99
666.29	234.05
666.44	245.76
666.58	334.70
666.72	308.95
666.86	276.18
667.00	379.17
667.14	421.30
667.28	1252.19
667.43	3779.97
667.57	7585.68
667.71	11021.58
667.85	9467.47
667.99	7166.72
668.13	4393.19
668.27	2607.36
668.41	1647.74
668.56	866.00
668.70	519.60
668.84	447.04
668.98	404.91
669.12	311.29
669.26	262.14
669.40	285.55
669.54	236.39
669.68	257.46
669.82	189.58
669.96	278.52
670.10	273.84
670.25	334.70
670.39	182.56
670.53	159.16
670.67	304.27
670.81	255.12
670.95	259.80
671.09	465.77
671.23	1406.66
671.37	3421.86
671.51	5797.51
671.65	6932.67
671.79	5451.11
671.93	3742.52
672.07	2333.51
672.21	1432.41
672.35	760.67
672.49	575.77
672.63	418.96
672.77	313.63
672.91	255.12
673.05	252.78
673.19	196.60
673.33	191.92
673.47	222.35
673.61	280.86
673.75	243.42
673.89	227.03
674.03	248.10
674.17	236.39
674.31	210.65
674.45	191.92
674.59	215.33
674.73	189.58
674.87	220.01
675.01	231.71
675.15	315.97
675.29	386.19
675.43	271.50
675.56	353.42
675.70	252.78
675.84	180.22
675.98	215.33
676.12	318.31
676.26	166.18
676.40	154.48
676.54	224.69
676.68	187.24
676.82	177.88
676.96	201.29
677.10	173.20
677.23	175.54
677.37	198.95
677.51	194.26
677.65	304.27
677.79	159.16
677.93	191.92
678.07	180.22
678.21	189.58
678.34	159.16
678.48	241.08
678.62	224.69
678.76	184.90
678.90	224.69
679.04	227.03
679.18	184.90
679.31	184.90
679.45	117.03
679.59	189.58
679.73	210.65
679.87	212.99
680.00	245.76
680.14	208.31
680.28	210.65
680.42	187.24
680.56	220.01
680.70	173.20
680.83	173.20
680.97	149.79
681.11	152.13
681.25	210.65
681.39	173.20
681.52	145.11
681.66	161.50
681.80	212.99
681.94	198.95
682.07	191.92
682.21	227.03
682.35	156.82
682.49	173.20
682.62	248.10
682.76	201.29
682.90	194.26
683.04	231.71
683.17	196.60
683.31	201.29
683.45	245.76
683.59	217.67
683.72	182.56
683.86	205.97
684.00	152.13
684.13	208.31
684.27	145.11
684.41	217.67
684.55	215.33
684.68	147.45
684.82	166.18
684.96	110.01
685.09	212.99
685.23	156.82
685.37	262.14
685.50	173.20
685.64	189.58
685.78	201.29
685.91	215.33
686.05	194.26
686.19	205.97
686.32	212.99
686.46	180.22
686.60	201.29
686.73	264.48
686.87	201.29
687.01	243.42
687.14	294.91
687.28	215.33
687.42	224.69
687.55	231.71
687.69	241.08
687.82	222.35
687.96	182.56
688.10	201.29
688.23	215.33
688.37	208.31
688.50	163.84
688.64	217.67
688.78	222.35
688.91	161.50
689.05	243.42
689.18	241.08
689.32	145.11
689.46	170.86
689.59	173.20
689.73	224.69
689.86	168.52
690.00	154.48
690.13	196.60
690.27	147.45
690.41	229.37
690.54	238.73
690.68	170.86
690.81	196.60
690.95	220.01
691.08	159.16
691.22	140.43
691.35	222.35
691.49	124.05
691.62	194.26
691.76	145.11
691.89	166.18
692.03	285.55
692.16	168.52
692.30	238.73
692.43	512.58
692.57	1603.27
692.70	3169.09
692.84	4657.67
692.97	4643.62
693.11	3508.46
693.24	2558.21
693.38	1863.07
693.51	1231.12
693.65	903.45
693.78	503.22
693.92	344.06
694.05	297.25
694.19	229.37
694.32	243.42
694.45	147.45
694.59	224.69
694.72	163.84
694.86	196.60
694.99	194.26
695.13	208.31
695.26	175.54
695.39	229.37
695.53	229.37
695.66	175.54
695.80	201.29
695.93	149.79
696.07	250.44
696.20	292.57
696.33	428.32
696.47	568.75
696.60	505.56
696.73	442.36
696.87	362.78
697.00	430.66
697.14	229.37
697.27	229.37
697.40	255.12
697.54	257.46
697.67	196.60
697.80	227.03
697.94	168.52
698.07	124.05
698.21	166.18
698.34	234.05
698.47	189.58
698.61	93.62
698.74	156.82
698.87	147.45
699.01	74.90
699.14	131.07
699.27	243.42
699.40	372.15
699.54	212.99
699.67	210.65
699.80	224.69
699.94	205.97
700.07	191.92
700.20	182.56
700.34	245.76
700.47	205.97
700.60	163.84
700.73	156.82
700.87	205.97
701.00	201.29
701.13	212.99
701.26	212.99
701.40	121.71
701.53	220.01
701.66	196.60
701.79	191.92
701.93	245.76
702.06	255.12
702.19	273.84
702.32	388.53
702.46	479.81
702.59	449.38
702.72	711.52
702.85	2078.40
702.99	4699.80
703.12	7728.45
703.25	9657.05
703.38	8414.23
703.51	6705.63
703.65	5441.75
703.78	3735.50
703.91	2527.78
704.04	1554.12
704.17	1067.28
704.31	683.44
704.44	472.79
704.57	395.55
704.70	304.27
704.83	175.54
704.96	201.29
705.10	201.29
705.23	252.78
>>>>>End Processed Spectral Data<<<<<
