SpectraSuite Data File
++++++++++++++++++++++++++++++++++++
Date: Fri Oct 04 11:34:02 GMT-05:00 2013
User: price-jones
Dark Spectrum Present: No
Reference Spectrum Present: No
Number of Sampled Component Spectra: 1
Spectrometers: USB2+H05261
Integration Time (usec): 100000 (USB2+H05261)
Spectra Averaged: 1 (USB2+H05261)
Boxcar Smoothing: 0 (USB2+H05261)
Correct for Electrical Dark: No (USB2+H05261)
Strobe/Lamp Enabled: No (USB2+H05261)
Correct for Detector Non-linearity: No (USB2+H05261)
Correct for Stray Light: No (USB2+H05261)
Number of Pixels in Processed Spectrum: 2048
>>>>>Begin Processed Spectral Data<<<<<
365.73	154.48
365.92	154.48
366.12	154.48
366.32	0.00
366.52	0.00
366.72	23.41
366.91	0.00
367.11	0.00
367.31	0.00
367.51	0.00
367.70	0.00
367.90	63.19
368.10	0.00
368.30	0.00
368.49	0.00
368.69	0.00
368.89	11.70
369.09	0.00
369.28	9.36
369.48	56.17
369.68	0.00
369.87	0.00
370.07	25.75
370.27	107.66
370.47	37.45
370.66	16.38
370.86	117.03
371.06	49.15
371.25	88.94
371.45	74.90
371.65	191.92
371.84	81.92
372.04	86.60
372.24	166.18
372.44	128.73
372.63	149.79
372.83	161.50
373.03	95.96
373.22	135.75
373.42	142.77
373.62	100.64
373.81	184.90
374.01	133.41
374.21	149.79
374.40	154.48
374.60	145.11
374.79	156.82
374.99	269.16
375.19	166.18
375.38	119.37
375.58	191.92
375.78	86.60
375.97	121.71
376.17	212.99
376.37	184.90
376.56	161.50
376.76	154.48
376.95	124.05
377.15	173.20
377.35	128.73
377.54	163.84
377.74	110.01
377.93	201.29
378.13	119.37
378.33	131.07
378.52	159.16
378.72	170.86
378.91	227.03
379.11	95.96
379.31	154.48
379.50	112.35
379.70	98.30
379.89	196.60
380.09	117.03
380.28	180.22
380.48	215.33
380.68	105.32
380.87	154.48
381.07	159.16
381.26	194.26
381.46	189.58
381.65	212.99
381.85	152.13
382.04	147.45
382.24	189.58
382.43	159.16
382.63	138.09
382.83	72.56
383.02	191.92
383.22	166.18
383.41	191.92
383.61	142.77
383.80	217.67
384.00	222.35
384.19	173.20
384.39	145.11
384.58	163.84
384.78	177.88
384.97	124.05
385.17	147.45
385.36	142.77
385.56	163.84
385.75	156.82
385.95	149.79
386.14	145.11
386.34	88.94
386.53	121.71
386.72	95.96
386.92	182.56
387.11	126.39
387.31	135.75
387.50	140.43
387.70	84.26
387.89	135.75
388.09	217.67
388.28	154.48
388.48	198.95
388.67	168.52
388.86	124.05
389.06	119.37
389.25	149.79
389.45	152.13
389.64	168.52
389.84	88.94
390.03	156.82
390.22	161.50
390.42	145.11
390.61	128.73
390.81	121.71
391.00	177.88
391.19	110.01
391.39	121.71
391.58	117.03
391.78	147.45
391.97	175.54
392.16	163.84
392.36	142.77
392.55	205.97
392.75	133.41
392.94	187.24
393.13	77.24
393.33	93.62
393.52	98.30
393.71	198.95
393.91	142.77
394.10	138.09
394.29	189.58
394.49	131.07
394.68	205.97
394.88	203.63
395.07	145.11
395.26	135.75
395.46	95.96
395.65	131.07
395.84	198.95
396.04	245.76
396.23	198.95
396.42	107.66
396.62	168.52
396.81	184.90
397.00	112.35
397.19	114.69
397.39	124.05
397.58	154.48
397.77	63.19
397.97	208.31
398.16	166.18
398.35	168.52
398.55	114.69
398.74	154.48
398.93	203.63
399.12	189.58
399.32	187.24
399.51	196.60
399.70	243.42
399.90	217.67
400.09	238.73
400.28	191.92
400.47	124.05
400.67	152.13
400.86	138.09
401.05	133.41
401.24	196.60
401.44	131.07
401.63	138.09
401.82	145.11
402.01	203.63
402.21	173.20
402.40	91.28
402.59	117.03
402.78	110.01
402.97	152.13
403.17	182.56
403.36	112.35
403.55	154.48
403.74	161.50
403.93	224.69
404.13	212.99
404.32	287.89
404.51	203.63
404.70	201.29
404.89	91.28
405.09	196.60
405.28	95.96
405.47	119.37
405.66	187.24
405.85	255.12
406.05	194.26
406.24	119.37
406.43	93.62
406.62	191.92
406.81	205.97
407.00	224.69
407.20	152.13
407.39	161.50
407.58	198.95
407.77	177.88
407.96	196.60
408.15	152.13
408.34	166.18
408.54	208.31
408.73	140.43
408.92	210.65
409.11	205.97
409.30	196.60
409.49	166.18
409.68	112.35
409.87	161.50
410.07	145.11
410.26	170.86
410.45	201.29
410.64	140.43
410.83	266.82
411.02	159.16
411.21	147.45
411.40	212.99
411.59	117.03
411.78	189.58
411.98	138.09
412.17	194.26
412.36	135.75
412.55	166.18
412.74	170.86
412.93	142.77
413.12	163.84
413.31	215.33
413.50	203.63
413.69	180.22
413.88	238.73
414.07	114.69
414.26	184.90
414.45	170.86
414.64	266.82
414.83	238.73
415.02	184.90
415.22	245.76
415.41	276.18
415.60	184.90
415.79	187.24
415.98	145.11
416.17	154.48
416.36	138.09
416.55	107.66
416.74	140.43
416.93	133.41
417.12	180.22
417.31	161.50
417.50	215.33
417.69	180.22
417.88	194.26
418.07	156.82
418.26	154.48
418.45	182.56
418.64	264.48
418.83	227.03
419.02	264.48
419.21	201.29
419.39	168.52
419.58	196.60
419.77	191.92
419.96	301.93
420.15	227.03
420.34	145.11
420.53	152.13
420.72	177.88
420.91	203.63
421.10	203.63
421.29	184.90
421.48	198.95
421.67	203.63
421.86	135.75
422.05	149.79
422.24	81.92
422.43	166.18
422.61	212.99
422.80	173.20
422.99	156.82
423.18	124.05
423.37	170.86
423.56	215.33
423.75	201.29
423.94	100.64
424.13	201.29
424.32	140.43
424.50	154.48
424.69	194.26
424.88	257.46
425.07	177.88
425.26	248.10
425.45	175.54
425.64	304.27
425.83	241.08
426.01	248.10
426.20	201.29
426.39	161.50
426.58	152.13
426.77	163.84
426.96	149.79
427.15	168.52
427.33	110.01
427.52	112.35
427.71	154.48
427.90	189.58
428.09	163.84
428.28	161.50
428.46	191.92
428.65	217.67
428.84	147.45
429.03	304.27
429.22	180.22
429.40	168.52
429.59	187.24
429.78	222.35
429.97	173.20
430.16	182.56
430.34	201.29
430.53	205.97
430.72	170.86
430.91	112.35
431.10	147.45
431.28	194.26
431.47	177.88
431.66	170.86
431.85	243.42
432.03	208.31
432.22	175.54
432.41	110.01
432.60	241.08
432.79	264.48
432.97	395.55
433.16	311.29
433.35	327.68
433.54	196.60
433.72	201.29
433.91	227.03
434.10	191.92
434.28	271.50
434.47	180.22
434.66	220.01
434.85	142.77
435.03	318.31
435.22	372.15
435.41	538.32
435.59	463.43
435.78	461.09
435.97	224.69
436.16	273.84
436.34	177.88
436.53	234.05
436.72	241.08
436.90	152.13
437.09	191.92
437.28	81.92
437.46	177.88
437.65	166.18
437.84	224.69
438.02	173.20
438.21	168.52
438.40	208.31
438.58	119.37
438.77	194.26
438.96	184.90
439.14	147.45
439.33	229.37
439.52	187.24
439.70	168.52
439.89	205.97
440.08	173.20
440.26	184.90
440.45	266.82
440.63	220.01
440.82	205.97
441.01	140.43
441.19	168.52
441.38	88.94
441.57	173.20
441.75	180.22
441.94	252.78
442.12	198.95
442.31	208.31
442.50	114.69
442.68	110.01
442.87	196.60
443.05	177.88
443.24	191.92
443.43	189.58
443.61	177.88
443.80	142.77
443.98	255.12
444.17	184.90
444.35	191.92
444.54	238.73
444.73	210.65
444.91	203.63
445.10	224.69
445.28	152.13
445.47	135.75
445.65	224.69
445.84	198.95
446.02	177.88
446.21	168.52
446.39	264.48
446.58	119.37
446.77	140.43
446.95	140.43
447.14	196.60
447.32	224.69
447.51	222.35
447.69	166.18
447.88	266.82
448.06	217.67
448.25	166.18
448.43	131.07
448.62	194.26
448.80	245.76
448.99	205.97
449.17	259.80
449.36	152.13
449.54	210.65
449.73	222.35
449.91	231.71
450.10	187.24
450.28	238.73
450.46	287.89
450.65	227.03
450.83	241.08
451.02	227.03
451.20	194.26
451.39	196.60
451.57	175.54
451.76	152.13
451.94	149.79
452.13	191.92
452.31	198.95
452.49	259.80
452.68	135.75
452.86	175.54
453.05	196.60
453.23	177.88
453.42	140.43
453.60	220.01
453.78	184.90
453.97	112.35
454.15	177.88
454.34	133.41
454.52	163.84
454.70	194.26
454.89	184.90
455.07	203.63
455.26	212.99
455.44	255.12
455.62	212.99
455.81	236.39
455.99	229.37
456.17	212.99
456.36	180.22
456.54	166.18
456.73	177.88
456.91	152.13
457.09	170.86
457.28	245.76
457.46	203.63
457.64	250.44
457.83	189.58
458.01	133.41
458.19	180.22
458.38	177.88
458.56	142.77
458.74	201.29
458.93	238.73
459.11	231.71
459.29	168.52
459.48	315.97
459.66	292.57
459.84	175.54
460.03	252.78
460.21	191.92
460.39	159.16
460.57	201.29
460.76	182.56
460.94	196.60
461.12	210.65
461.31	140.43
461.49	184.90
461.67	168.52
461.85	173.20
462.04	114.69
462.22	676.41
462.40	205.97
462.59	142.77
462.77	114.69
462.95	117.03
463.13	203.63
463.32	245.76
463.50	182.56
463.68	220.01
463.86	159.16
464.05	138.09
464.23	215.33
464.41	131.07
464.59	184.90
464.78	180.22
464.96	147.45
465.14	166.18
465.32	166.18
465.50	210.65
465.69	220.01
465.87	161.50
466.05	203.63
466.23	201.29
466.41	142.77
466.60	182.56
466.78	227.03
466.96	161.50
467.14	189.58
467.32	126.39
467.51	255.12
467.69	271.50
467.87	236.39
468.05	205.97
468.23	168.52
468.41	205.97
468.60	196.60
468.78	163.84
468.96	201.29
469.14	234.05
469.32	166.18
469.50	159.16
469.69	285.55
469.87	231.71
470.05	177.88
470.23	133.41
470.41	212.99
470.59	187.24
470.77	266.82
470.95	187.24
471.14	266.82
471.32	154.48
471.50	187.24
471.68	215.33
471.86	191.92
472.04	177.88
472.22	180.22
472.40	156.82
472.58	173.20
472.77	241.08
472.95	177.88
473.13	161.50
473.31	220.01
473.49	208.31
473.67	191.92
473.85	217.67
474.03	224.69
474.21	107.66
474.39	191.92
474.57	201.29
474.75	236.39
474.93	227.03
475.12	135.75
475.30	191.92
475.48	182.56
475.66	222.35
475.84	168.52
476.02	238.73
476.20	173.20
476.38	180.22
476.56	257.46
476.74	163.84
476.92	191.92
477.10	182.56
477.28	212.99
477.46	196.60
477.64	119.37
477.82	203.63
478.00	234.05
478.18	198.95
478.36	201.29
478.54	177.88
478.72	201.29
478.90	198.95
479.08	191.92
479.26	191.92
479.44	217.67
479.62	257.46
479.80	245.76
479.98	205.97
480.16	257.46
480.34	203.63
480.52	203.63
480.70	248.10
480.88	180.22
481.06	273.84
481.24	238.73
481.41	203.63
481.59	269.16
481.77	229.37
481.95	203.63
482.13	285.55
482.31	278.52
482.49	234.05
482.67	234.05
482.85	287.89
483.03	184.90
483.21	210.65
483.39	273.84
483.57	198.95
483.74	278.52
483.92	269.16
484.10	201.29
484.28	301.93
484.46	273.84
484.64	264.48
484.82	203.63
485.00	227.03
485.18	262.14
485.35	227.03
485.53	234.05
485.71	208.31
485.89	269.16
486.07	276.18
486.25	348.74
486.43	255.12
486.61	257.46
486.78	266.82
486.96	266.82
487.14	273.84
487.32	313.63
487.50	332.36
487.68	313.63
487.85	248.10
488.03	177.88
488.21	294.91
488.39	276.18
488.57	285.55
488.75	257.46
488.92	526.62
489.10	191.92
489.28	234.05
489.46	222.35
489.64	304.27
489.81	266.82
489.99	208.31
490.17	308.95
490.35	292.57
490.53	259.80
490.70	217.67
490.88	222.35
491.06	243.42
491.24	287.89
491.41	266.82
491.59	227.03
491.77	161.50
491.95	203.63
492.13	259.80
492.30	273.84
492.48	236.39
492.66	203.63
492.84	271.50
493.01	245.76
493.19	229.37
493.37	255.12
493.54	320.65
493.72	224.69
493.90	266.82
494.08	252.78
494.25	285.55
494.43	217.67
494.61	210.65
494.79	224.69
494.96	318.31
495.14	217.67
495.32	266.82
495.49	313.63
495.67	215.33
495.85	278.52
496.02	292.57
496.20	283.20
496.38	229.37
496.55	266.82
496.73	271.50
496.91	215.33
497.09	283.20
497.26	337.04
497.44	287.89
497.62	250.44
497.79	234.05
497.97	276.18
498.14	236.39
498.32	278.52
498.50	276.18
498.67	259.80
498.85	306.61
499.03	339.38
499.20	227.03
499.38	278.52
499.56	229.37
499.73	318.31
499.91	262.14
500.08	224.69
500.26	297.25
500.44	191.92
500.61	250.44
500.79	222.35
500.97	205.97
501.14	266.82
501.32	212.99
501.49	299.59
501.67	210.65
501.84	208.31
502.02	201.29
502.20	269.16
502.37	243.42
502.55	252.78
502.72	292.57
502.90	301.93
503.07	290.23
503.25	276.18
503.43	341.72
503.60	315.97
503.78	276.18
503.95	287.89
504.13	276.18
504.30	283.20
504.48	182.56
504.65	215.33
504.83	215.33
505.01	140.43
505.18	330.02
505.36	264.48
505.53	271.50
505.71	182.56
505.88	220.01
506.06	271.50
506.23	191.92
506.41	280.86
506.58	252.78
506.76	346.40
506.93	227.03
507.11	191.92
507.28	227.03
507.46	194.26
507.63	271.50
507.81	269.16
507.98	283.20
508.16	259.80
508.33	271.50
508.50	191.92
508.68	262.14
508.85	271.50
509.03	194.26
509.20	184.90
509.38	217.67
509.55	252.78
509.73	290.23
509.90	205.97
510.08	241.08
510.25	339.38
510.42	248.10
510.60	191.92
510.77	374.49
510.95	262.14
511.12	205.97
511.30	318.31
511.47	393.21
511.64	269.16
511.82	241.08
511.99	205.97
512.17	238.73
512.34	304.27
512.51	285.55
512.69	271.50
512.86	269.16
513.04	264.48
513.21	290.23
513.38	220.01
513.56	299.59
513.73	255.12
513.90	283.20
514.08	262.14
514.25	315.97
514.43	304.27
514.60	269.16
514.77	273.84
514.95	248.10
515.12	285.55
515.29	280.86
515.47	208.31
515.64	273.84
515.81	264.48
515.99	231.71
516.16	341.72
516.33	337.04
516.51	210.65
516.68	196.60
516.85	264.48
517.03	276.18
517.20	191.92
517.37	332.36
517.54	215.33
517.72	220.01
517.89	175.54
518.06	175.54
518.24	294.91
518.41	220.01
518.58	255.12
518.75	241.08
518.93	308.95
519.10	294.91
519.27	301.93
519.45	220.01
519.62	266.82
519.79	259.80
519.96	273.84
520.14	266.82
520.31	259.80
520.48	217.67
520.65	297.25
520.83	194.26
521.00	205.97
521.17	304.27
521.34	348.74
521.52	276.18
521.69	280.86
521.86	271.50
522.03	257.46
522.20	358.10
522.38	215.33
522.55	255.12
522.72	285.55
522.89	220.01
523.07	262.14
523.24	299.59
523.41	231.71
523.58	189.58
523.75	252.78
523.92	276.18
524.10	280.86
524.27	278.52
524.44	262.14
524.61	301.93
524.78	308.95
524.96	224.69
525.13	271.50
525.30	330.02
525.47	304.27
525.64	217.67
525.81	231.71
525.98	259.80
526.16	194.26
526.33	287.89
526.50	243.42
526.67	257.46
526.84	208.31
527.01	259.80
527.18	196.60
527.36	264.48
527.53	208.31
527.70	351.08
527.87	301.93
528.04	278.52
528.21	334.70
528.38	390.87
528.55	315.97
528.72	313.63
528.89	339.38
529.07	231.71
529.24	276.18
529.41	252.78
529.58	330.02
529.75	248.10
529.92	292.57
530.09	306.61
530.26	278.52
530.43	215.33
530.60	301.93
530.77	238.73
530.94	276.18
531.11	273.84
531.28	201.29
531.46	292.57
531.63	318.31
531.80	236.39
531.97	297.25
532.14	348.74
532.31	273.84
532.48	327.68
532.65	299.59
532.82	421.30
532.99	444.70
533.16	318.31
533.33	388.53
533.50	330.02
533.67	376.83
533.84	535.98
534.01	425.98
534.18	430.66
534.35	318.31
534.52	334.70
534.69	306.61
534.86	292.57
535.03	294.91
535.20	320.65
535.37	339.38
535.54	224.69
535.71	301.93
535.88	285.55
536.05	334.70
536.22	250.44
536.38	315.97
536.55	191.92
536.72	299.59
536.89	283.20
537.06	212.99
537.23	311.29
537.40	341.72
537.57	283.20
537.74	255.12
537.91	332.36
538.08	337.04
538.25	362.78
538.42	374.49
538.59	388.53
538.75	369.80
538.92	374.49
539.09	313.63
539.26	337.04
539.43	617.90
539.60	1088.35
539.77	1790.51
539.94	1823.28
540.11	1252.19
540.28	919.83
540.44	664.71
540.61	540.66
540.78	484.49
540.95	599.18
541.12	587.47
541.29	528.96
541.46	634.29
541.62	568.75
541.79	571.09
541.96	491.51
542.13	554.71
542.30	615.56
542.47	573.43
542.63	528.96
542.80	547.69
542.97	557.05
543.14	475.13
543.31	503.22
543.48	505.56
543.64	507.90
543.81	538.32
543.98	512.58
544.15	507.90
544.32	580.45
544.48	528.96
544.65	587.47
544.82	498.53
544.99	491.51
545.16	568.75
545.32	559.39
545.49	774.72
545.66	1018.13
545.83	1156.22
546.00	901.11
546.16	669.39
546.33	622.58
546.50	493.85
546.67	458.74
546.83	573.43
547.00	470.45
547.17	409.59
547.34	409.59
547.50	402.57
547.67	395.55
547.84	374.49
548.00	477.47
548.17	388.53
548.34	388.53
548.51	507.90
548.67	447.04
548.84	351.08
549.01	386.19
549.18	365.12
549.34	461.09
549.51	418.96
549.68	383.85
549.84	414.27
550.01	397.89
550.18	517.26
550.34	514.92
550.51	360.44
550.68	449.38
550.84	339.38
551.01	297.25
551.18	381.51
551.34	348.74
551.51	341.72
551.68	376.83
551.84	362.78
552.01	341.72
552.18	278.52
552.34	304.27
552.51	325.33
552.68	346.40
552.84	332.36
553.01	299.59
553.18	269.16
553.34	360.44
553.51	372.15
553.67	313.63
553.84	332.36
554.01	269.16
554.17	313.63
554.34	257.46
554.51	280.86
554.67	344.06
554.84	287.89
555.00	318.31
555.17	320.65
555.33	330.02
555.50	301.93
555.67	294.91
555.83	273.84
556.00	304.27
556.16	477.47
556.33	285.55
556.50	322.99
556.66	344.06
556.83	273.84
556.99	278.52
557.16	276.18
557.32	227.03
557.49	229.37
557.65	290.23
557.82	264.48
557.98	236.39
558.15	271.50
558.32	245.76
558.48	299.59
558.65	259.80
558.81	285.55
558.98	271.50
559.14	311.29
559.31	297.25
559.47	297.25
559.64	252.78
559.80	271.50
559.97	250.44
560.13	304.27
560.30	248.10
560.46	217.67
560.63	301.93
560.79	234.05
560.96	205.97
561.12	217.67
561.29	318.31
561.45	245.76
561.61	351.08
561.78	297.25
561.94	334.70
562.11	304.27
562.27	287.89
562.44	227.03
562.60	325.33
562.77	205.97
562.93	360.44
563.10	301.93
563.26	353.42
563.42	243.42
563.59	311.29
563.75	262.14
563.92	259.80
564.08	212.99
564.24	269.16
564.41	325.33
564.57	285.55
564.74	271.50
564.90	250.44
565.07	311.29
565.23	327.68
565.39	379.17
565.56	322.99
565.72	168.52
565.88	252.78
566.05	278.52
566.21	287.89
566.38	285.55
566.54	297.25
566.70	250.44
566.87	243.42
567.03	248.10
567.19	299.59
567.36	285.55
567.52	170.86
567.68	259.80
567.85	301.93
568.01	273.84
568.17	330.02
568.34	222.35
568.50	355.76
568.66	287.89
568.83	308.95
568.99	257.46
569.15	358.10
569.32	280.86
569.48	231.71
569.64	290.23
569.81	341.72
569.97	191.92
570.13	280.86
570.30	308.95
570.46	217.67
570.62	339.38
570.78	231.71
570.95	311.29
571.11	290.23
571.27	322.99
571.43	283.20
571.60	337.04
571.76	337.04
571.92	344.06
572.09	313.63
572.25	313.63
572.41	304.27
572.57	243.42
572.74	325.33
572.90	273.84
573.06	229.37
573.22	311.29
573.38	320.65
573.55	339.38
573.71	255.12
573.87	292.57
574.03	308.95
574.20	250.44
574.36	404.91
574.52	353.42
574.68	418.96
574.84	362.78
575.01	351.08
575.17	346.40
575.33	304.27
575.49	339.38
575.65	332.36
575.82	395.55
575.98	557.05
576.14	795.78
576.30	725.57
576.46	697.48
576.62	606.20
576.79	575.77
576.95	442.36
577.11	348.74
577.27	358.10
577.43	358.10
577.59	332.36
577.75	337.04
577.92	299.59
578.08	344.06
578.24	285.55
578.40	273.84
578.56	447.04
578.72	440.02
578.88	552.37
579.04	409.59
579.21	414.27
579.37	339.38
579.53	311.29
579.69	367.46
579.85	360.44
580.01	421.30
580.17	519.60
580.33	442.36
580.49	425.98
580.65	416.62
580.82	477.47
580.98	418.96
581.14	379.17
581.30	449.38
581.46	477.47
581.62	620.24
581.78	660.03
581.94	716.20
582.10	510.24
582.26	526.62
582.42	435.34
582.58	587.47
582.74	517.26
582.90	521.94
583.06	610.88
583.22	559.39
583.38	587.47
583.54	643.65
583.70	690.46
583.86	767.70
584.02	866.00
584.18	1196.01
584.34	1310.70
584.50	3295.47
584.66	23414.72
584.82	57759.74
584.98	65535.00
585.14	65289.24
585.30	52175.22
585.46	32903.25
585.62	20215.21
585.78	9320.01
585.94	3627.83
586.10	1844.34
586.26	1181.97
586.42	1064.94
586.58	833.23
586.74	781.74
586.90	688.12
587.06	720.88
587.22	695.14
587.38	660.03
587.54	1308.36
587.70	3763.58
587.86	6356.90
588.02	6970.12
588.18	5146.84
588.34	3159.72
588.49	2139.25
588.65	1366.87
588.81	730.25
588.97	538.32
589.13	498.53
589.29	353.42
589.45	400.23
589.61	362.78
589.77	444.70
589.93	507.90
590.08	512.58
590.24	606.20
590.40	524.28
590.56	491.51
590.72	388.53
590.88	397.89
591.04	404.91
591.20	414.27
591.35	505.56
591.51	362.78
591.67	423.64
591.83	449.38
591.99	322.99
592.15	423.64
592.31	418.96
592.46	393.21
592.62	418.96
592.78	416.62
592.94	346.40
593.10	428.32
593.26	430.66
593.41	500.87
593.57	463.43
593.73	638.97
593.89	2916.31
594.05	7812.71
594.20	12046.74
594.36	11534.16
594.52	7581.00
594.68	4774.69
594.84	3192.49
594.99	1825.62
595.15	847.27
595.31	566.41
595.47	395.55
595.62	418.96
595.78	421.30
595.94	386.19
596.10	451.72
596.25	461.09
596.41	484.49
596.57	416.62
596.73	430.66
596.88	657.69
597.04	1455.81
597.20	2354.58
597.36	3136.32
597.51	2232.87
597.67	1619.65
597.83	1090.69
597.99	823.87
598.14	498.53
598.30	430.66
598.46	390.87
598.61	440.02
598.77	507.90
598.93	402.57
599.09	440.02
599.24	348.74
599.40	414.27
599.56	374.49
599.71	325.33
599.87	337.04
600.03	304.27
600.18	372.15
600.34	395.55
600.50	365.12
600.65	241.08
600.81	273.84
600.97	283.20
601.12	355.76
601.28	351.08
601.44	327.68
601.59	283.20
601.75	224.69
601.91	273.84
602.06	318.31
602.22	395.55
602.37	774.72
602.53	1825.62
602.69	2878.86
602.84	3091.85
603.00	2331.17
603.16	1708.59
603.31	1263.89
603.47	807.48
603.62	456.40
603.78	468.11
603.94	313.63
604.09	358.10
604.25	325.33
604.40	372.15
604.56	365.12
604.71	299.59
604.87	315.97
605.03	388.53
605.18	334.70
605.34	358.10
605.49	322.99
605.65	334.70
605.80	280.86
605.96	395.55
606.12	407.25
606.27	456.40
606.43	379.17
606.58	498.53
606.74	861.32
606.89	3393.78
607.05	7545.89
607.20	10071.33
607.36	8416.57
607.51	5970.71
607.67	3705.07
607.82	2656.51
607.98	1451.13
608.13	856.64
608.29	624.92
608.44	568.75
608.60	496.19
608.75	681.10
608.91	1273.25
609.06	5483.88
609.22	13221.69
609.37	18050.21
609.53	15913.30
609.68	10565.18
609.84	7117.57
609.99	4734.90
610.15	2867.16
610.30	1378.58
610.46	1050.90
610.61	1011.11
610.76	1158.57
610.92	1198.35
611.07	1198.35
611.23	1299.00
611.38	1231.12
611.54	1060.26
611.69	929.19
611.84	875.36
612.00	620.24
612.15	683.44
612.31	784.08
612.46	887.06
612.62	1057.92
612.77	985.37
612.92	994.73
613.08	851.96
613.23	884.72
613.39	767.70
613.54	1100.05
613.69	4983.00
613.85	15454.56
614.00	26366.13
614.15	28306.44
614.31	19957.75
614.46	13095.30
614.62	8809.78
614.77	5432.38
614.92	2518.42
615.08	1196.01
615.23	940.90
615.38	631.94
615.54	697.48
615.69	994.73
615.84	2981.84
616.00	5643.03
616.15	7164.38
616.30	6008.16
616.46	4430.63
616.61	2862.48
616.76	1987.11
616.92	1167.93
617.07	681.10
617.22	507.90
617.37	414.27
617.53	355.76
617.68	449.38
617.83	433.00
617.99	411.93
618.14	421.30
618.29	395.55
618.45	337.04
618.60	322.99
618.75	355.76
618.90	313.63
619.06	292.57
619.21	388.53
619.36	367.46
619.51	297.25
619.67	273.84
619.82	344.06
619.97	362.78
620.12	355.76
620.28	318.31
620.43	334.70
620.58	383.85
620.73	367.46
620.89	327.68
621.04	669.39
621.19	1554.12
621.34	3321.22
621.49	4301.90
621.65	3915.72
621.80	2710.34
621.95	1935.62
622.10	1430.07
622.25	933.87
622.41	648.33
622.56	421.30
622.71	374.49
622.86	383.85
623.01	264.48
623.16	400.23
623.32	337.04
623.47	313.63
623.62	355.76
623.77	259.80
623.92	259.80
624.07	341.72
624.23	330.02
624.38	341.72
624.53	252.78
624.68	346.40
624.83	442.36
624.98	369.80
625.13	308.95
625.29	341.72
625.44	358.10
625.59	407.25
625.74	477.47
625.89	629.60
626.04	2455.22
626.19	7597.38
626.34	12517.18
626.49	14225.78
626.65	10513.69
626.80	7229.91
626.95	4997.04
627.10	3089.51
627.25	1565.82
627.40	835.57
627.55	535.98
627.70	461.09
627.85	402.57
628.00	390.87
628.15	318.31
628.30	330.02
628.45	273.84
628.60	330.02
628.76	355.76
628.91	262.14
629.06	311.29
629.21	327.68
629.36	411.93
629.51	351.08
629.66	360.44
629.81	554.71
629.96	1446.45
630.11	2818.00
630.26	3932.10
630.41	3515.48
630.56	2424.80
630.71	1750.72
630.86	1315.38
631.01	903.45
631.16	664.71
631.31	500.87
631.46	395.55
631.61	376.83
631.76	358.10
631.91	313.63
632.06	348.74
632.21	332.36
632.36	322.99
632.51	491.51
632.66	552.37
632.81	1275.59
632.96	3948.48
633.10	7850.16
633.25	10033.88
633.40	8070.17
633.55	5753.04
633.70	3810.39
633.85	2597.99
634.00	1369.21
634.15	844.93
634.30	500.87
634.45	369.80
634.60	304.27
634.75	322.99
634.90	330.02
635.05	395.55
635.19	287.89
635.34	311.29
635.49	311.29
635.64	376.83
635.79	318.31
635.94	306.61
636.09	330.02
636.24	341.72
636.39	376.83
636.53	360.44
636.68	388.53
636.83	386.19
636.98	379.17
637.13	442.36
637.28	430.66
637.43	468.11
637.57	734.93
637.72	3269.73
637.87	9736.63
638.02	16978.25
638.17	18148.51
638.32	13516.59
638.46	9095.32
638.61	6541.80
638.76	3737.84
638.91	1944.99
639.06	1053.24
639.20	748.97
639.35	681.10
639.50	950.26
639.65	4793.42
639.80	14941.98
639.94	25460.35
640.09	28404.74
640.24	20697.36
640.39	14008.11
640.54	9561.09
640.68	5753.04
640.83	2736.09
640.98	1418.36
641.13	720.88
641.27	519.60
641.42	526.62
641.57	365.12
641.72	351.08
641.86	304.27
642.01	308.95
642.16	322.99
642.31	287.89
642.45	360.44
642.60	297.25
642.75	287.89
642.90	278.52
643.04	259.80
643.19	262.14
643.34	297.25
643.48	337.04
643.63	248.10
643.78	322.99
643.93	322.99
644.07	313.63
644.22	250.44
644.37	180.22
644.51	278.52
644.66	205.97
644.81	297.25
644.95	283.20
645.10	297.25
645.25	205.97
645.39	283.20
645.54	266.82
645.69	315.97
645.83	238.73
645.98	306.61
646.13	215.33
646.27	238.73
646.42	234.05
646.57	231.71
646.71	217.67
646.86	273.84
647.00	250.44
647.15	318.31
647.30	220.01
647.44	285.55
647.59	255.12
647.74	243.42
647.88	252.78
648.03	194.26
648.17	278.52
648.32	294.91
648.47	248.10
648.61	285.55
648.76	250.44
648.90	308.95
649.05	187.24
649.20	353.42
649.34	271.50
649.49	212.99
649.63	355.76
649.78	330.02
649.92	524.28
650.07	1912.22
650.21	6401.37
650.36	11721.40
650.51	14359.19
650.65	11871.20
650.80	8437.63
650.94	5523.66
651.09	3536.55
651.23	1830.30
651.38	919.83
651.52	613.22
651.67	346.40
651.81	388.53
651.96	299.59
652.10	322.99
652.25	318.31
652.39	276.18
652.54	346.40
652.68	610.88
652.83	1984.77
652.97	3927.42
653.12	5207.69
653.26	4645.96
653.41	3396.12
653.55	2267.98
653.70	1575.18
653.84	968.98
653.99	557.05
654.13	344.06
654.27	264.48
654.42	280.86
654.56	234.05
654.71	269.16
654.85	105.32
655.00	222.35
655.14	215.33
655.29	290.23
655.43	252.78
655.57	264.48
655.72	201.29
655.86	229.37
656.01	236.39
656.15	161.50
656.30	271.50
656.44	217.67
656.58	201.29
656.73	257.46
656.87	147.45
657.01	212.99
657.16	308.95
657.30	243.42
657.45	280.86
657.59	252.78
657.73	304.27
657.88	205.97
658.02	290.23
658.16	287.89
658.31	262.14
658.45	269.16
658.60	276.18
658.74	252.78
658.88	276.18
659.03	257.46
659.17	341.72
659.31	912.81
659.46	2960.78
659.60	5493.24
659.74	7169.06
659.89	6396.68
660.03	4805.12
660.17	3386.76
660.32	2080.74
660.46	1174.95
660.60	678.76
660.74	402.57
660.89	294.91
661.03	381.51
661.17	313.63
661.32	124.05
661.46	269.16
661.60	255.12
661.74	234.05
661.89	241.08
662.03	278.52
662.17	280.86
662.31	283.20
662.46	168.52
662.60	266.82
662.74	173.20
662.88	229.37
663.03	210.65
663.17	222.35
663.31	266.82
663.45	259.80
663.60	203.63
663.74	266.82
663.88	210.65
664.02	262.14
664.17	301.93
664.31	236.39
664.45	210.65
664.59	210.65
664.73	229.37
664.88	292.57
665.02	308.95
665.16	297.25
665.30	290.23
665.44	229.37
665.59	180.22
665.73	304.27
665.87	198.95
666.01	173.20
666.15	245.76
666.29	212.99
666.44	243.42
666.58	276.18
666.72	238.73
666.86	290.23
667.00	351.08
667.14	545.34
667.28	1851.36
667.43	5378.55
667.57	9851.31
667.71	12800.39
667.85	10981.79
667.99	8053.78
668.13	5231.10
668.27	2935.03
668.41	1846.68
668.56	978.34
668.70	636.63
668.84	458.74
668.98	330.02
669.12	222.35
669.26	283.20
669.40	308.95
669.54	283.20
669.68	198.95
669.82	285.55
669.96	187.24
670.10	229.37
670.25	285.55
670.39	215.33
670.53	243.42
670.67	276.18
670.81	290.23
670.95	205.97
671.09	500.87
671.23	1926.26
671.37	4624.90
671.51	7265.02
671.65	7817.39
671.79	6293.70
671.93	4339.35
672.07	2724.38
672.21	1568.16
672.35	922.17
672.49	552.37
672.63	423.64
672.77	292.57
672.91	285.55
673.05	262.14
673.19	264.48
673.33	227.03
673.47	285.55
673.61	248.10
673.75	131.07
673.89	124.05
674.03	198.95
674.17	227.03
674.31	262.14
674.45	220.01
674.59	243.42
674.73	245.76
674.87	220.01
675.01	290.23
675.15	299.59
675.29	262.14
675.43	252.78
675.56	322.99
675.70	283.20
675.84	269.16
675.98	203.63
676.12	220.01
676.26	220.01
676.40	161.50
676.54	215.33
676.68	215.33
676.82	248.10
676.96	212.99
677.10	236.39
677.23	191.92
677.37	166.18
677.51	152.13
677.65	198.95
677.79	217.67
677.93	234.05
678.07	259.80
678.21	217.67
678.34	220.01
678.48	231.71
678.62	220.01
678.76	152.13
678.90	147.45
679.04	128.73
679.18	142.77
679.31	224.69
679.45	187.24
679.59	170.86
679.73	208.31
679.87	163.84
680.00	248.10
680.14	208.31
680.28	168.52
680.42	210.65
680.56	215.33
680.70	191.92
680.83	278.52
680.97	180.22
681.11	170.86
681.25	133.41
681.39	159.16
681.52	196.60
681.66	138.09
681.80	187.24
681.94	198.95
682.07	189.58
682.21	217.67
682.35	168.52
682.49	184.90
682.62	231.71
682.76	198.95
682.90	198.95
683.04	135.75
683.17	198.95
683.31	166.18
683.45	196.60
683.59	152.13
683.72	201.29
683.86	205.97
684.00	142.77
684.13	126.39
684.27	145.11
684.41	159.16
684.55	208.31
684.68	180.22
684.82	255.12
684.96	170.86
685.09	191.92
685.23	252.78
685.37	215.33
685.50	241.08
685.64	262.14
685.78	147.45
685.91	182.56
686.05	257.46
686.19	229.37
686.32	215.33
686.46	189.58
686.60	145.11
686.73	271.50
686.87	283.20
687.01	252.78
687.14	266.82
687.28	175.54
687.42	210.65
687.55	147.45
687.69	229.37
687.82	170.86
687.96	177.88
688.10	222.35
688.23	142.77
688.37	250.44
688.50	212.99
688.64	201.29
688.78	250.44
688.91	191.92
689.05	203.63
689.18	142.77
689.32	222.35
689.46	184.90
689.59	208.31
689.73	177.88
689.86	128.73
690.00	128.73
690.13	131.07
690.27	121.71
690.41	163.84
690.54	166.18
690.68	220.01
690.81	259.80
690.95	175.54
691.08	189.58
691.22	189.58
691.35	170.86
691.49	145.11
691.62	191.92
691.76	124.05
691.89	278.52
692.03	163.84
692.16	250.44
692.30	294.91
692.43	645.99
692.57	2106.48
692.70	4147.43
692.84	5392.59
692.97	5067.26
693.11	3686.34
693.24	2679.91
693.38	1867.75
693.51	1245.16
693.65	891.74
693.78	617.90
693.92	355.76
694.05	327.68
694.19	257.46
694.32	252.78
694.45	266.82
694.59	234.05
694.72	278.52
694.86	229.37
694.99	198.95
695.13	173.20
695.26	191.92
695.39	184.90
695.53	182.56
695.66	159.16
695.80	149.79
695.93	170.86
696.07	224.69
696.20	372.15
696.33	395.55
696.47	510.24
696.60	449.38
696.73	423.64
696.87	285.55
697.00	414.27
697.14	273.84
697.27	203.63
697.40	262.14
697.54	149.79
697.67	198.95
697.80	194.26
697.94	156.82
698.07	177.88
698.21	184.90
698.34	187.24
698.47	191.92
698.61	161.50
698.74	173.20
698.87	234.05
699.01	182.56
699.14	173.20
699.27	142.77
699.40	245.76
699.54	131.07
699.67	168.52
699.80	142.77
699.94	198.95
700.07	140.43
700.20	236.39
700.34	187.24
700.47	168.52
700.60	112.35
700.73	224.69
700.87	201.29
701.00	72.56
701.13	112.35
701.26	154.48
701.40	145.11
701.53	205.97
701.66	119.37
701.79	191.92
701.93	224.69
702.06	325.33
702.19	409.59
702.32	540.66
702.46	512.58
702.59	517.26
702.72	856.64
702.85	2881.20
702.99	6424.77
703.12	9430.02
703.25	10703.27
703.38	9111.71
703.51	7276.73
703.65	5771.76
703.78	4063.17
703.91	2663.53
704.04	1799.87
704.17	1118.78
704.31	615.56
704.44	411.93
704.57	395.55
704.70	259.80
704.83	229.37
704.96	215.33
705.10	229.37
705.23	297.25
>>>>>End Processed Spectral Data<<<<<
