SpectraSuite Data File
++++++++++++++++++++++++++++++++++++
Date: Fri Oct 04 11:33:48 GMT-05:00 2013
User: price-jones
Dark Spectrum Present: No
Reference Spectrum Present: No
Number of Sampled Component Spectra: 1
Spectrometers: USB2+H05261
Integration Time (usec): 100000 (USB2+H05261)
Spectra Averaged: 1 (USB2+H05261)
Boxcar Smoothing: 0 (USB2+H05261)
Correct for Electrical Dark: No (USB2+H05261)
Strobe/Lamp Enabled: No (USB2+H05261)
Correct for Detector Non-linearity: No (USB2+H05261)
Correct for Stray Light: No (USB2+H05261)
Number of Pixels in Processed Spectrum: 2048
>>>>>Begin Processed Spectral Data<<<<<
365.73	39.79
365.92	39.79
366.12	39.79
366.32	11.70
366.52	0.00
366.72	0.00
366.91	0.00
367.11	0.00
367.31	0.00
367.51	0.00
367.70	0.00
367.90	0.00
368.10	0.00
368.30	0.00
368.49	0.00
368.69	0.00
368.89	18.72
369.09	9.36
369.28	0.00
369.48	0.00
369.68	14.04
369.87	0.00
370.07	0.00
370.27	124.05
370.47	58.51
370.66	95.96
370.86	114.69
371.06	81.92
371.25	156.82
371.45	117.03
371.65	91.28
371.84	98.30
372.04	91.28
372.24	124.05
372.44	119.37
372.63	140.43
372.83	215.33
373.03	156.82
373.22	114.69
373.42	84.26
373.62	189.58
373.81	147.45
374.01	135.75
374.21	159.16
374.40	114.69
374.60	191.92
374.79	156.82
374.99	170.86
375.19	147.45
375.38	138.09
375.58	149.79
375.78	170.86
375.97	147.45
376.17	168.52
376.37	152.13
376.56	161.50
376.76	182.56
376.95	121.71
377.15	166.18
377.35	166.18
377.54	131.07
377.74	102.98
377.93	86.60
378.13	124.05
378.33	77.24
378.52	86.60
378.72	159.16
378.91	147.45
379.11	166.18
379.31	191.92
379.50	126.39
379.70	184.90
379.89	154.48
380.09	138.09
380.28	107.66
380.48	86.60
380.68	86.60
380.87	140.43
381.07	121.71
381.26	117.03
381.46	154.48
381.65	201.29
381.85	145.11
382.04	142.77
382.24	222.35
382.43	175.54
382.63	161.50
382.83	156.82
383.02	175.54
383.22	177.88
383.41	121.71
383.61	149.79
383.80	149.79
384.00	140.43
384.19	159.16
384.39	189.58
384.58	63.19
384.78	173.20
384.97	156.82
385.17	175.54
385.36	203.63
385.56	177.88
385.75	105.32
385.95	154.48
386.14	166.18
386.34	126.39
386.53	145.11
386.72	168.52
386.92	161.50
387.11	112.35
387.31	159.16
387.50	84.26
387.70	175.54
387.89	173.20
388.09	110.01
388.28	156.82
388.48	145.11
388.67	58.51
388.86	138.09
389.06	154.48
389.25	166.18
389.45	126.39
389.64	105.32
389.84	145.11
390.03	133.41
390.22	142.77
390.42	126.39
390.61	126.39
390.81	105.32
391.00	114.69
391.19	119.37
391.39	133.41
391.58	163.84
391.78	65.54
391.97	152.13
392.16	133.41
392.36	156.82
392.55	161.50
392.75	191.92
392.94	140.43
393.13	159.16
393.33	93.62
393.52	100.64
393.71	100.64
393.91	161.50
394.10	173.20
394.29	177.88
394.49	198.95
394.68	159.16
394.88	138.09
395.07	191.92
395.26	138.09
395.46	159.16
395.65	117.03
395.84	166.18
396.04	161.50
396.23	74.90
396.42	110.01
396.62	152.13
396.81	184.90
397.00	124.05
397.19	189.58
397.39	128.73
397.58	196.60
397.77	72.56
397.97	91.28
398.16	152.13
398.35	184.90
398.55	159.16
398.74	210.65
398.93	140.43
399.12	126.39
399.32	107.66
399.51	133.41
399.70	112.35
399.90	184.90
400.09	191.92
400.28	198.95
400.47	189.58
400.67	135.75
400.86	182.56
401.05	184.90
401.24	131.07
401.44	147.45
401.63	88.94
401.82	227.03
402.01	142.77
402.21	102.98
402.40	117.03
402.59	121.71
402.78	126.39
402.97	112.35
403.17	142.77
403.36	107.66
403.55	168.52
403.74	117.03
403.93	149.79
404.13	217.67
404.32	196.60
404.51	173.20
404.70	215.33
404.89	205.97
405.09	220.01
405.28	187.24
405.47	135.75
405.66	161.50
405.85	170.86
406.05	184.90
406.24	147.45
406.43	121.71
406.62	147.45
406.81	210.65
407.00	283.20
407.20	145.11
407.39	283.20
407.58	121.71
407.77	102.98
407.96	234.05
408.15	180.22
408.34	177.88
408.54	170.86
408.73	175.54
408.92	147.45
409.11	187.24
409.30	205.97
409.49	159.16
409.68	203.63
409.87	203.63
410.07	241.08
410.26	198.95
410.45	133.41
410.64	180.22
410.83	156.82
411.02	156.82
411.21	138.09
411.40	180.22
411.59	180.22
411.78	189.58
411.98	135.75
412.17	173.20
412.36	175.54
412.55	112.35
412.74	140.43
412.93	168.52
413.12	86.60
413.31	191.92
413.50	163.84
413.69	184.90
413.88	173.20
414.07	175.54
414.26	133.41
414.45	170.86
414.64	215.33
414.83	135.75
415.02	131.07
415.22	177.88
415.41	208.31
415.60	175.54
415.79	175.54
415.98	145.11
416.17	140.43
416.36	198.95
416.55	149.79
416.74	128.73
416.93	147.45
417.12	177.88
417.31	166.18
417.50	128.73
417.69	229.37
417.88	180.22
418.07	163.84
418.26	229.37
418.45	259.80
418.64	245.76
418.83	259.80
419.02	252.78
419.21	184.90
419.39	201.29
419.58	163.84
419.77	138.09
419.96	224.69
420.15	229.37
420.34	280.86
420.53	194.26
420.72	142.77
420.91	173.20
421.10	205.97
421.29	184.90
421.48	161.50
421.67	184.90
421.86	154.48
422.05	128.73
422.24	147.45
422.43	163.84
422.61	147.45
422.80	159.16
422.99	128.73
423.18	170.86
423.37	159.16
423.56	201.29
423.75	196.60
423.94	161.50
424.13	201.29
424.32	67.88
424.50	161.50
424.69	154.48
424.88	159.16
425.07	205.97
425.26	152.13
425.45	266.82
425.64	273.84
425.83	245.76
426.01	217.67
426.20	156.82
426.39	243.42
426.58	173.20
426.77	114.69
426.96	156.82
427.15	205.97
427.33	107.66
427.52	215.33
427.71	189.58
427.90	105.32
428.09	147.45
428.28	140.43
428.46	175.54
428.65	177.88
428.84	194.26
429.03	212.99
429.22	212.99
429.40	168.52
429.59	149.79
429.78	180.22
429.97	173.20
430.16	159.16
430.34	163.84
430.53	119.37
430.72	147.45
430.91	220.01
431.10	229.37
431.28	248.10
431.47	168.52
431.66	212.99
431.85	168.52
432.03	217.67
432.22	245.76
432.41	175.54
432.60	191.92
432.79	189.58
432.97	269.16
433.16	259.80
433.35	241.08
433.54	248.10
433.72	196.60
433.91	191.92
434.10	220.01
434.28	126.39
434.47	198.95
434.66	191.92
434.85	198.95
435.03	234.05
435.22	330.02
435.41	367.46
435.59	327.68
435.78	315.97
435.97	257.46
436.16	210.65
436.34	189.58
436.53	198.95
436.72	313.63
436.90	198.95
437.09	315.97
437.28	180.22
437.46	98.30
437.65	189.58
437.84	156.82
438.02	173.20
438.21	224.69
438.40	255.12
438.58	102.98
438.77	124.05
438.96	231.71
439.14	191.92
439.33	236.39
439.52	182.56
439.70	252.78
439.89	231.71
440.08	255.12
440.26	208.31
440.45	250.44
440.63	215.33
440.82	100.64
441.01	184.90
441.19	201.29
441.38	196.60
441.57	194.26
441.75	138.09
441.94	203.63
442.12	145.11
442.31	140.43
442.50	163.84
442.68	222.35
442.87	189.58
443.05	217.67
443.24	208.31
443.43	196.60
443.61	217.67
443.80	147.45
443.98	112.35
444.17	173.20
444.35	203.63
444.54	145.11
444.73	201.29
444.91	201.29
445.10	159.16
445.28	217.67
445.47	208.31
445.65	184.90
445.84	138.09
446.02	201.29
446.21	215.33
446.39	86.60
446.58	159.16
446.77	203.63
446.95	166.18
447.14	121.71
447.32	278.52
447.51	184.90
447.69	156.82
447.88	124.05
448.06	201.29
448.25	217.67
448.43	194.26
448.62	124.05
448.80	173.20
448.99	248.10
449.17	168.52
449.36	205.97
449.54	220.01
449.73	182.56
449.91	231.71
450.10	217.67
450.28	198.95
450.46	262.14
450.65	227.03
450.83	259.80
451.02	229.37
451.20	156.82
451.39	180.22
451.57	177.88
451.76	177.88
451.94	224.69
452.13	299.59
452.31	243.42
452.49	166.18
452.68	238.73
452.86	159.16
453.05	241.08
453.23	180.22
453.42	196.60
453.60	208.31
453.78	173.20
453.97	184.90
454.15	114.69
454.34	161.50
454.52	187.24
454.70	168.52
454.89	215.33
455.07	229.37
455.26	227.03
455.44	234.05
455.62	217.67
455.81	159.16
455.99	222.35
456.17	238.73
456.36	306.61
456.54	198.95
456.73	166.18
456.91	77.24
457.09	208.31
457.28	198.95
457.46	241.08
457.64	196.60
457.83	163.84
458.01	234.05
458.19	229.37
458.38	180.22
458.56	208.31
458.74	215.33
458.93	280.86
459.11	161.50
459.29	196.60
459.48	205.97
459.66	259.80
459.84	161.50
460.03	297.25
460.21	241.08
460.39	194.26
460.57	180.22
460.76	152.13
460.94	236.39
461.12	196.60
461.31	243.42
461.49	177.88
461.67	259.80
461.85	196.60
462.04	198.95
462.22	578.11
462.40	259.80
462.59	252.78
462.77	117.03
462.95	177.88
463.13	175.54
463.32	184.90
463.50	198.95
463.68	205.97
463.86	201.29
464.05	161.50
464.23	173.20
464.41	222.35
464.59	175.54
464.78	217.67
464.96	124.05
465.14	227.03
465.32	138.09
465.50	182.56
465.69	149.79
465.87	180.22
466.05	147.45
466.23	191.92
466.41	241.08
466.60	182.56
466.78	187.24
466.96	271.50
467.14	210.65
467.32	215.33
467.51	208.31
467.69	149.79
467.87	203.63
468.05	224.69
468.23	236.39
468.41	159.16
468.60	205.97
468.78	124.05
468.96	203.63
469.14	189.58
469.32	198.95
469.50	175.54
469.69	217.67
469.87	205.97
470.05	182.56
470.23	208.31
470.41	168.52
470.59	189.58
470.77	236.39
470.95	271.50
471.14	182.56
471.32	191.92
471.50	234.05
471.68	210.65
471.86	201.29
472.04	177.88
472.22	184.90
472.40	222.35
472.58	227.03
472.77	212.99
472.95	234.05
473.13	215.33
473.31	208.31
473.49	231.71
473.67	159.16
473.85	250.44
474.03	203.63
474.21	224.69
474.39	280.86
474.57	212.99
474.75	184.90
474.93	149.79
475.12	224.69
475.30	220.01
475.48	189.58
475.66	236.39
475.84	145.11
476.02	196.60
476.20	138.09
476.38	276.18
476.56	287.89
476.74	299.59
476.92	220.01
477.10	236.39
477.28	234.05
477.46	180.22
477.64	220.01
477.82	154.48
478.00	191.92
478.18	184.90
478.36	142.77
478.54	147.45
478.72	191.92
478.90	259.80
479.08	229.37
479.26	208.31
479.44	135.75
479.62	163.84
479.80	236.39
479.98	159.16
480.16	191.92
480.34	252.78
480.52	149.79
480.70	210.65
480.88	198.95
481.06	182.56
481.24	220.01
481.41	234.05
481.59	152.13
481.77	196.60
481.95	278.52
482.13	182.56
482.31	194.26
482.49	212.99
482.67	201.29
482.85	252.78
483.03	212.99
483.21	255.12
483.39	229.37
483.57	278.52
483.74	311.29
483.92	285.55
484.10	238.73
484.28	287.89
484.46	290.23
484.64	252.78
484.82	248.10
485.00	227.03
485.18	255.12
485.35	145.11
485.53	194.26
485.71	262.14
485.89	166.18
486.07	189.58
486.25	220.01
486.43	273.84
486.61	264.48
486.78	234.05
486.96	205.97
487.14	194.26
487.32	266.82
487.50	217.67
487.68	301.93
487.85	266.82
488.03	285.55
488.21	269.16
488.39	227.03
488.57	234.05
488.75	208.31
488.92	514.92
489.10	320.65
489.28	297.25
489.46	304.27
489.64	280.86
489.81	212.99
489.99	297.25
490.17	287.89
490.35	306.61
490.53	229.37
490.70	276.18
490.88	325.33
491.06	236.39
491.24	273.84
491.41	358.10
491.59	180.22
491.77	278.52
491.95	273.84
492.13	224.69
492.30	262.14
492.48	259.80
492.66	299.59
492.84	262.14
493.01	278.52
493.19	266.82
493.37	252.78
493.54	283.20
493.72	208.31
493.90	220.01
494.08	222.35
494.25	243.42
494.43	294.91
494.61	264.48
494.79	285.55
494.96	259.80
495.14	222.35
495.32	280.86
495.49	241.08
495.67	212.99
495.85	166.18
496.02	294.91
496.20	299.59
496.38	271.50
496.55	238.73
496.73	271.50
496.91	161.50
497.09	327.68
497.26	301.93
497.44	287.89
497.62	299.59
497.79	252.78
497.97	212.99
498.14	224.69
498.32	269.16
498.50	290.23
498.67	229.37
498.85	220.01
499.03	234.05
499.20	297.25
499.38	210.65
499.56	245.76
499.73	252.78
499.91	149.79
500.08	238.73
500.26	208.31
500.44	208.31
500.61	203.63
500.79	257.46
500.97	229.37
501.14	252.78
501.32	196.60
501.49	212.99
501.67	210.65
501.84	212.99
502.02	231.71
502.20	306.61
502.37	379.17
502.55	259.80
502.72	243.42
502.90	224.69
503.07	259.80
503.25	252.78
503.43	250.44
503.60	238.73
503.78	212.99
503.95	276.18
504.13	227.03
504.30	306.61
504.48	320.65
504.65	285.55
504.83	252.78
505.01	252.78
505.18	245.76
505.36	262.14
505.53	250.44
505.71	175.54
505.88	290.23
506.06	285.55
506.23	229.37
506.41	198.95
506.58	208.31
506.76	285.55
506.93	273.84
507.11	264.48
507.28	227.03
507.46	241.08
507.63	236.39
507.81	287.89
507.98	332.36
508.16	245.76
508.33	320.65
508.50	294.91
508.68	280.86
508.85	271.50
509.03	215.33
509.20	238.73
509.38	330.02
509.55	271.50
509.73	327.68
509.90	264.48
510.08	208.31
510.25	236.39
510.42	208.31
510.60	245.76
510.77	313.63
510.95	248.10
511.12	294.91
511.30	273.84
511.47	301.93
511.64	322.99
511.82	292.57
511.99	283.20
512.17	184.90
512.34	194.26
512.51	320.65
512.69	215.33
512.86	311.29
513.04	201.29
513.21	238.73
513.38	194.26
513.56	243.42
513.73	287.89
513.90	163.84
514.08	166.18
514.25	262.14
514.43	215.33
514.60	280.86
514.77	337.04
514.95	208.31
515.12	208.31
515.29	217.67
515.47	175.54
515.64	266.82
515.81	299.59
515.99	395.55
516.16	297.25
516.33	252.78
516.51	198.95
516.68	227.03
516.85	255.12
517.03	236.39
517.20	278.52
517.37	250.44
517.54	255.12
517.72	315.97
517.89	285.55
518.06	217.67
518.24	320.65
518.41	264.48
518.58	304.27
518.75	198.95
518.93	257.46
519.10	229.37
519.27	198.95
519.45	229.37
519.62	269.16
519.79	273.84
519.96	262.14
520.14	227.03
520.31	266.82
520.48	311.29
520.65	241.08
520.83	299.59
521.00	243.42
521.17	320.65
521.34	238.73
521.52	259.80
521.69	259.80
521.86	313.63
522.03	198.95
522.20	355.76
522.38	292.57
522.55	215.33
522.72	224.69
522.89	280.86
523.07	344.06
523.24	236.39
523.41	299.59
523.58	266.82
523.75	269.16
523.92	257.46
524.10	259.80
524.27	322.99
524.44	241.08
524.61	320.65
524.78	269.16
524.96	262.14
525.13	306.61
525.30	362.78
525.47	308.95
525.64	276.18
525.81	308.95
525.98	201.29
526.16	255.12
526.33	266.82
526.50	175.54
526.67	208.31
526.84	271.50
527.01	276.18
527.18	205.97
527.36	184.90
527.53	299.59
527.70	196.60
527.87	229.37
528.04	327.68
528.21	255.12
528.38	238.73
528.55	257.46
528.72	327.68
528.89	285.55
529.07	355.76
529.24	306.61
529.41	304.27
529.58	250.44
529.75	299.59
529.92	325.33
530.09	330.02
530.26	262.14
530.43	280.86
530.60	234.05
530.77	283.20
530.94	306.61
531.11	259.80
531.28	238.73
531.46	257.46
531.63	222.35
531.80	294.91
531.97	248.10
532.14	273.84
532.31	287.89
532.48	269.16
532.65	325.33
532.82	374.49
532.99	301.93
533.16	353.42
533.33	301.93
533.50	318.31
533.67	297.25
533.84	475.13
534.01	397.89
534.18	411.93
534.35	306.61
534.52	337.04
534.69	306.61
534.86	285.55
535.03	257.46
535.20	383.85
535.37	367.46
535.54	325.33
535.71	290.23
535.88	322.99
536.05	315.97
536.22	332.36
536.38	332.36
536.55	353.42
536.72	301.93
536.89	292.57
537.06	238.73
537.23	344.06
537.40	299.59
537.57	238.73
537.74	304.27
537.91	360.44
538.08	320.65
538.25	325.33
538.42	311.29
538.59	322.99
538.75	304.27
538.92	318.31
539.09	348.74
539.26	374.49
539.43	475.13
539.60	973.66
539.77	1376.24
539.94	1514.33
540.11	1039.20
540.28	669.39
540.44	552.37
540.61	425.98
540.78	463.43
540.95	442.36
541.12	491.51
541.29	538.32
541.46	526.62
541.62	414.27
541.79	552.37
541.96	461.09
542.13	489.17
542.30	435.34
542.47	510.24
542.63	435.34
542.80	540.66
542.97	489.17
543.14	477.47
543.31	381.51
543.48	444.70
543.64	395.55
543.81	461.09
543.98	418.96
544.15	379.17
544.32	430.66
544.48	447.04
544.65	372.15
544.82	435.34
544.99	402.57
545.16	425.98
545.32	528.96
545.49	615.56
545.66	690.46
545.83	833.23
546.00	741.95
546.16	582.79
546.33	498.53
546.50	416.62
546.67	404.91
546.83	334.70
547.00	383.85
547.17	355.76
547.34	355.76
547.50	409.59
547.67	351.08
547.84	332.36
548.00	376.83
548.17	360.44
548.34	327.68
548.51	379.17
548.67	390.87
548.84	339.38
549.01	334.70
549.18	358.10
549.34	390.87
549.51	341.72
549.68	294.91
549.84	308.95
550.01	304.27
550.18	465.77
550.34	416.62
550.51	334.70
550.68	355.76
550.84	269.16
551.01	278.52
551.18	332.36
551.34	334.70
551.51	346.40
551.68	278.52
551.84	264.48
552.01	353.42
552.18	311.29
552.34	318.31
552.51	311.29
552.68	346.40
552.84	351.08
553.01	297.25
553.18	259.80
553.34	229.37
553.51	224.69
553.67	358.10
553.84	304.27
554.01	308.95
554.17	311.29
554.34	264.48
554.51	313.63
554.67	290.23
554.84	259.80
555.00	238.73
555.17	264.48
555.33	299.59
555.50	250.44
555.67	292.57
555.83	327.68
556.00	255.12
556.16	365.12
556.33	327.68
556.50	234.05
556.66	294.91
556.83	250.44
556.99	273.84
557.16	322.99
557.32	297.25
557.49	355.76
557.65	243.42
557.82	271.50
557.98	390.87
558.15	337.04
558.32	250.44
558.48	297.25
558.65	299.59
558.81	266.82
558.98	238.73
559.14	301.93
559.31	264.48
559.47	313.63
559.64	248.10
559.80	287.89
559.97	205.97
560.13	330.02
560.30	184.90
560.46	278.52
560.63	285.55
560.79	271.50
560.96	292.57
561.12	278.52
561.29	238.73
561.45	231.71
561.61	287.89
561.78	358.10
561.94	236.39
562.11	227.03
562.27	217.67
562.44	243.42
562.60	276.18
562.77	227.03
562.93	280.86
563.10	278.52
563.26	294.91
563.42	278.52
563.59	243.42
563.75	250.44
563.92	241.08
564.08	259.80
564.24	278.52
564.41	383.85
564.57	236.39
564.74	243.42
564.90	208.31
565.07	229.37
565.23	236.39
565.39	294.91
565.56	290.23
565.72	285.55
565.88	283.20
566.05	250.44
566.21	234.05
566.38	217.67
566.54	290.23
566.70	191.92
566.87	220.01
567.03	234.05
567.19	320.65
567.36	304.27
567.52	252.78
567.68	208.31
567.85	332.36
568.01	280.86
568.17	250.44
568.34	264.48
568.50	290.23
568.66	299.59
568.83	367.46
568.99	360.44
569.15	306.61
569.32	276.18
569.48	308.95
569.64	299.59
569.81	304.27
569.97	234.05
570.13	262.14
570.30	224.69
570.46	194.26
570.62	341.72
570.78	299.59
570.95	280.86
571.11	325.33
571.27	320.65
571.43	294.91
571.60	264.48
571.76	194.26
571.92	257.46
572.09	287.89
572.25	264.48
572.41	313.63
572.57	234.05
572.74	294.91
572.90	287.89
573.06	280.86
573.22	212.99
573.38	243.42
573.55	308.95
573.71	238.73
573.87	304.27
574.03	337.04
574.20	332.36
574.36	294.91
574.52	337.04
574.68	372.15
574.84	374.49
575.01	248.10
575.17	278.52
575.33	203.63
575.49	280.86
575.65	355.76
575.82	320.65
575.98	566.41
576.14	676.41
576.30	744.29
576.46	638.97
576.62	507.90
576.79	524.28
576.95	404.91
577.11	332.36
577.27	283.20
577.43	297.25
577.59	332.36
577.75	273.84
577.92	245.76
578.08	250.44
578.24	259.80
578.40	337.04
578.56	381.51
578.72	433.00
578.88	397.89
579.04	409.59
579.21	365.12
579.37	341.72
579.53	362.78
579.69	444.70
579.85	318.31
580.01	372.15
580.17	395.55
580.33	367.46
580.49	393.21
580.65	433.00
580.82	330.02
580.98	369.80
581.14	332.36
581.30	454.06
581.46	468.11
581.62	624.92
581.78	636.63
581.94	613.22
582.10	507.90
582.26	442.36
582.42	395.55
582.58	388.53
582.74	491.51
582.90	477.47
583.06	491.51
583.22	521.94
583.38	484.49
583.54	484.49
583.70	582.79
583.86	741.95
584.02	716.20
584.18	880.04
584.34	1069.62
584.50	2473.95
584.66	17448.69
584.82	48224.40
584.98	63110.20
585.14	61104.37
585.30	45191.06
585.46	26125.06
585.62	16465.67
585.78	7786.96
585.94	3042.70
586.10	1535.39
586.26	1076.65
586.42	760.67
586.58	603.86
586.74	664.71
586.90	578.11
587.06	674.07
587.22	564.07
587.38	599.18
587.54	1018.13
587.70	2759.49
587.86	5011.09
588.02	6043.26
588.18	4149.77
588.34	2710.34
588.49	1781.15
588.65	1083.67
588.81	629.60
588.97	465.77
589.13	376.83
589.29	433.00
589.45	367.46
589.61	428.32
589.77	360.44
589.93	407.25
590.08	514.92
590.24	449.38
590.40	489.17
590.56	418.96
590.72	365.12
590.88	362.78
591.04	372.15
591.20	411.93
591.35	386.19
591.51	358.10
591.67	362.78
591.83	381.51
591.99	383.85
592.15	351.08
592.31	409.59
592.46	304.27
592.62	454.06
592.78	327.68
592.94	320.65
593.10	367.46
593.26	330.02
593.41	479.81
593.57	435.34
593.73	653.01
593.89	2267.98
594.05	5797.51
594.20	9448.74
594.36	9694.50
594.52	6396.68
594.68	3925.08
594.84	2502.03
594.99	1476.88
595.15	781.74
595.31	496.19
595.47	468.11
595.62	425.98
595.78	339.38
595.94	325.33
596.10	334.70
596.25	367.46
596.41	383.85
596.57	313.63
596.73	402.57
596.88	533.64
597.04	1144.52
597.20	2080.74
597.36	2616.72
597.51	1919.24
597.67	1245.16
597.83	898.77
597.99	657.69
598.14	472.79
598.30	379.17
598.46	346.40
598.61	353.42
598.77	404.91
598.93	358.10
599.09	339.38
599.24	332.36
599.40	306.61
599.56	318.31
599.71	297.25
599.87	339.38
600.03	299.59
600.18	315.97
600.34	325.33
600.50	334.70
600.65	285.55
600.81	292.57
600.97	252.78
601.12	229.37
601.28	353.42
601.44	297.25
601.59	306.61
601.75	306.61
601.91	208.31
602.06	292.57
602.22	365.12
602.37	627.26
602.53	1488.58
602.69	2310.11
602.84	2710.34
603.00	1933.28
603.16	1291.98
603.31	926.85
603.47	699.82
603.62	442.36
603.78	344.06
603.94	362.78
604.09	360.44
604.25	280.86
604.40	306.61
604.56	339.38
604.71	266.82
604.87	271.50
605.03	346.40
605.18	315.97
605.34	290.23
605.49	301.93
605.65	330.02
605.80	283.20
605.96	287.89
606.12	318.31
606.27	325.33
606.43	386.19
606.58	395.55
606.74	723.23
606.89	2796.94
607.05	5867.72
607.20	8416.57
607.36	7148.00
607.51	4835.55
607.67	2979.50
607.82	2209.47
607.98	1188.99
608.13	777.06
608.29	543.00
608.44	503.22
608.60	505.56
608.75	519.60
608.91	978.34
609.06	4222.33
609.22	9694.50
609.37	14462.17
609.53	12793.37
609.68	8582.74
609.84	5593.88
609.99	3791.67
610.15	2176.70
610.30	1123.46
610.46	842.59
610.61	788.76
610.76	940.90
610.92	945.58
611.07	976.00
611.23	1020.47
611.38	943.24
611.54	826.21
611.69	697.48
611.84	653.01
612.00	552.37
612.15	627.26
612.31	676.41
612.46	723.23
612.62	894.08
612.77	866.00
612.92	800.46
613.08	734.93
613.23	664.71
613.39	648.33
613.54	912.81
613.69	3805.71
613.85	11618.42
614.00	20875.24
614.15	24222.20
614.31	16727.81
614.46	10525.39
614.62	7030.97
614.77	4187.22
614.92	2057.33
615.08	994.73
615.23	674.07
615.38	580.45
615.54	535.98
615.69	837.91
615.84	2333.51
616.00	4500.85
616.15	5942.62
616.30	4877.68
616.46	3377.39
616.61	2310.11
616.76	1589.22
616.92	898.77
617.07	489.17
617.22	496.19
617.37	327.68
617.53	379.17
617.68	435.34
617.83	416.62
617.99	433.00
618.14	374.49
618.29	386.19
618.45	351.08
618.60	283.20
618.75	360.44
618.90	262.14
619.06	294.91
619.21	367.46
619.36	318.31
619.51	320.65
619.67	264.48
619.82	250.44
619.97	320.65
620.12	369.80
620.28	339.38
620.43	332.36
620.58	341.72
620.73	325.33
620.89	372.15
621.04	482.15
621.19	1301.34
621.34	2420.11
621.49	3602.08
621.65	3417.18
621.80	2356.92
621.95	1694.55
622.10	1114.10
622.25	692.80
622.41	416.62
622.56	369.80
622.71	374.49
622.86	379.17
623.01	276.18
623.16	255.12
623.32	421.30
623.47	301.93
623.62	393.21
623.77	297.25
623.92	379.17
624.07	250.44
624.23	337.04
624.38	283.20
624.53	238.73
624.68	315.97
624.83	322.99
624.98	273.84
625.13	358.10
625.29	266.82
625.44	339.38
625.59	327.68
625.74	409.59
625.89	528.96
626.04	1954.35
626.19	5636.01
626.34	10061.96
626.49	12718.47
626.65	9008.72
626.80	6090.07
626.95	4147.43
627.10	2626.08
627.25	1291.98
627.40	671.73
627.55	444.70
627.70	353.42
627.85	334.70
628.00	285.55
628.15	332.36
628.30	330.02
628.45	241.08
628.60	276.18
628.76	280.86
628.91	294.91
629.06	437.68
629.21	299.59
629.36	313.63
629.51	292.57
629.66	243.42
629.81	430.66
629.96	1144.52
630.11	2239.89
630.26	3339.94
630.41	2902.26
630.56	2054.99
630.71	1404.32
630.86	1032.18
631.01	744.29
631.16	503.22
631.31	353.42
631.46	325.33
631.61	278.52
631.76	341.72
631.91	278.52
632.06	381.51
632.21	379.17
632.36	297.25
632.51	400.23
632.66	388.53
632.81	961.96
632.96	3178.45
633.10	6066.67
633.25	8381.46
633.40	6871.81
633.55	4762.99
633.70	3169.09
633.85	2157.97
634.00	1174.95
634.15	617.90
634.30	395.55
634.45	442.36
634.60	320.65
634.75	278.52
634.90	320.65
635.05	273.84
635.19	299.59
635.34	252.78
635.49	327.68
635.64	259.80
635.79	248.10
635.94	306.61
636.09	285.55
636.24	285.55
636.39	348.74
636.53	365.12
636.68	297.25
636.83	369.80
636.98	395.55
637.13	290.23
637.28	393.21
637.43	416.62
637.57	566.41
637.72	2452.88
637.87	7503.76
638.02	13565.74
638.17	16086.50
638.32	11590.33
638.46	7667.60
638.61	5107.05
638.76	3187.81
638.91	1577.52
639.06	828.55
639.20	622.58
639.35	613.22
639.50	812.17
639.65	3693.37
639.80	11084.78
639.94	20049.03
640.09	23695.58
640.24	17514.23
640.39	11456.92
640.54	7686.32
640.68	4713.84
640.83	2314.79
640.98	1174.95
641.13	681.10
641.27	421.30
641.42	360.44
641.57	365.12
641.72	444.70
641.86	376.83
642.01	351.08
642.16	285.55
642.31	290.23
642.45	332.36
642.60	365.12
642.75	252.78
642.90	196.60
643.04	245.76
643.19	241.08
643.34	250.44
643.48	255.12
643.63	159.16
643.78	339.38
643.93	248.10
644.07	264.48
644.22	250.44
644.37	177.88
644.51	299.59
644.66	297.25
644.81	299.59
644.95	278.52
645.10	245.76
645.25	273.84
645.39	297.25
645.54	278.52
645.69	374.49
645.83	224.69
645.98	224.69
646.13	276.18
646.27	271.50
646.42	227.03
646.57	212.99
646.71	271.50
646.86	278.52
647.00	222.35
647.15	170.86
647.30	170.86
647.44	245.76
647.59	229.37
647.74	238.73
647.88	241.08
648.03	194.26
648.17	196.60
648.32	170.86
648.47	255.12
648.61	208.31
648.76	278.52
648.90	243.42
649.05	227.03
649.20	227.03
649.34	215.33
649.49	175.54
649.63	250.44
649.78	369.80
649.92	435.34
650.07	1427.73
650.21	5100.03
650.36	9273.20
650.51	12423.56
650.65	10195.37
650.80	7368.01
650.94	4678.73
651.09	3021.63
651.23	1692.21
651.38	816.85
651.52	554.71
651.67	383.85
651.81	353.42
651.96	325.33
652.10	278.52
652.25	353.42
652.39	243.42
652.54	283.20
652.68	568.75
652.83	1586.88
652.97	3138.66
653.12	4528.94
653.26	4014.02
653.41	2928.01
653.55	2001.16
653.70	1217.08
653.84	798.12
653.99	447.04
654.13	430.66
654.27	306.61
654.42	297.25
654.56	234.05
654.71	271.50
654.85	182.56
655.00	276.18
655.14	236.39
655.29	248.10
655.43	212.99
655.57	245.76
655.72	259.80
655.86	133.41
656.01	259.80
656.15	154.48
656.30	280.86
656.44	147.45
656.58	262.14
656.73	264.48
656.87	245.76
657.01	227.03
657.16	252.78
657.30	262.14
657.45	266.82
657.59	259.80
657.73	234.05
657.88	217.67
658.02	341.72
658.16	215.33
658.31	280.86
658.45	304.27
658.60	220.01
658.74	203.63
658.88	276.18
659.03	297.25
659.17	318.31
659.31	732.59
659.46	2244.57
659.60	4327.65
659.74	6317.11
659.89	5687.50
660.03	4166.15
660.17	2832.05
660.32	1802.21
660.46	1041.54
660.60	587.47
660.74	423.64
660.89	292.57
661.03	198.95
661.17	255.12
661.32	215.33
661.46	215.33
661.60	210.65
661.74	322.99
661.89	301.93
662.03	250.44
662.17	194.26
662.31	238.73
662.46	294.91
662.60	229.37
662.74	231.71
662.88	320.65
663.03	184.90
663.17	220.01
663.31	191.92
663.45	276.18
663.60	217.67
663.74	241.08
663.88	180.22
664.02	252.78
664.17	224.69
664.31	215.33
664.45	154.48
664.59	243.42
664.73	231.71
664.88	248.10
665.02	311.29
665.16	212.99
665.30	304.27
665.44	241.08
665.59	220.01
665.73	292.57
665.87	182.56
666.01	252.78
666.15	159.16
666.29	187.24
666.44	283.20
666.58	287.89
666.72	273.84
666.86	266.82
667.00	280.86
667.14	404.91
667.28	1483.90
667.43	4149.77
667.57	8035.06
667.71	10726.68
667.85	9312.99
667.99	6881.18
668.13	4372.12
668.27	2651.83
668.41	1540.07
668.56	833.23
668.70	582.79
668.84	308.95
668.98	376.83
669.12	220.01
669.26	339.38
669.40	318.31
669.54	292.57
669.68	269.16
669.82	212.99
669.96	266.82
670.10	152.13
670.25	255.12
670.39	271.50
670.53	276.18
670.67	257.46
670.81	194.26
670.95	334.70
671.09	428.32
671.23	1558.80
671.37	3712.09
671.51	5802.19
671.65	6719.68
671.79	5301.31
671.93	3740.18
672.07	2305.43
672.21	1301.34
672.35	851.96
672.49	552.37
672.63	369.80
672.77	311.29
672.91	315.97
673.05	229.37
673.19	229.37
673.33	217.67
673.47	271.50
673.61	245.76
673.75	156.82
673.89	177.88
674.03	273.84
674.17	203.63
674.31	173.20
674.45	250.44
674.59	257.46
674.73	215.33
674.87	189.58
675.01	264.48
675.15	257.46
675.29	264.48
675.43	297.25
675.56	287.89
675.70	224.69
675.84	175.54
675.98	222.35
676.12	210.65
676.26	262.14
676.40	142.77
676.54	189.58
676.68	159.16
676.82	198.95
676.96	180.22
677.10	114.69
677.23	205.97
677.37	175.54
677.51	208.31
677.65	322.99
677.79	117.03
677.93	142.77
678.07	128.73
678.21	187.24
678.34	133.41
678.48	210.65
678.62	210.65
678.76	187.24
678.90	180.22
679.04	166.18
679.18	257.46
679.31	147.45
679.45	180.22
679.59	290.23
679.73	234.05
679.87	131.07
680.00	191.92
680.14	182.56
680.28	121.71
680.42	184.90
680.56	201.29
680.70	149.79
680.83	184.90
680.97	224.69
681.11	224.69
681.25	175.54
681.39	201.29
681.52	196.60
681.66	191.92
681.80	210.65
681.94	152.13
682.07	182.56
682.21	241.08
682.35	205.97
682.49	154.48
682.62	149.79
682.76	161.50
682.90	210.65
683.04	266.82
683.17	196.60
683.31	189.58
683.45	231.71
683.59	210.65
683.72	180.22
683.86	180.22
684.00	170.86
684.13	177.88
684.27	170.86
684.41	159.16
684.55	102.98
684.68	173.20
684.82	208.31
684.96	159.16
685.09	170.86
685.23	175.54
685.37	147.45
685.50	189.58
685.64	252.78
685.78	208.31
685.91	212.99
686.05	208.31
686.19	173.20
686.32	208.31
686.46	163.84
686.60	159.16
686.73	250.44
686.87	255.12
687.01	208.31
687.14	196.60
687.28	217.67
687.42	201.29
687.55	182.56
687.69	252.78
687.82	170.86
687.96	131.07
688.10	224.69
688.23	121.71
688.37	196.60
688.50	238.73
688.64	147.45
688.78	163.84
688.91	126.39
689.05	161.50
689.18	114.69
689.32	156.82
689.46	166.18
689.59	241.08
689.73	196.60
689.86	121.71
690.00	161.50
690.13	231.71
690.27	194.26
690.41	166.18
690.54	257.46
690.68	156.82
690.81	149.79
690.95	180.22
691.08	184.90
691.22	138.09
691.35	220.01
691.49	133.41
691.62	170.86
691.76	238.73
691.89	173.20
692.03	154.48
692.16	166.18
692.30	250.44
692.43	603.86
692.57	1799.87
692.70	3243.98
692.84	4720.86
692.97	4692.77
693.11	3398.46
693.24	2471.61
693.38	1668.80
693.51	1100.05
693.65	786.42
693.78	493.85
693.92	383.85
694.05	252.78
694.19	248.10
694.32	245.76
694.45	198.95
694.59	140.43
694.72	180.22
694.86	217.67
694.99	173.20
695.13	231.71
695.26	163.84
695.39	98.30
695.53	250.44
695.66	215.33
695.80	224.69
695.93	140.43
696.07	215.33
696.20	306.61
696.33	327.68
696.47	414.27
696.60	400.23
696.73	395.55
696.87	327.68
697.00	280.86
697.14	292.57
697.27	278.52
697.40	255.12
697.54	222.35
697.67	259.80
697.80	203.63
697.94	194.26
698.07	215.33
698.21	147.45
698.34	266.82
698.47	182.56
698.61	208.31
698.74	138.09
698.87	271.50
699.01	138.09
699.14	140.43
699.27	152.13
699.40	264.48
699.54	166.18
699.67	145.11
699.80	147.45
699.94	142.77
700.07	191.92
700.20	159.16
700.34	224.69
700.47	187.24
700.60	121.71
700.73	184.90
700.87	224.69
701.00	194.26
701.13	198.95
701.26	205.97
701.40	194.26
701.53	187.24
701.66	184.90
701.79	177.88
701.93	220.01
702.06	266.82
702.19	318.31
702.32	416.62
702.46	454.06
702.59	437.68
702.72	720.88
702.85	2267.98
702.99	4891.72
703.12	7749.51
703.25	9228.73
703.38	7899.31
703.51	6134.54
703.65	4830.87
703.78	3452.29
703.91	2282.02
704.04	1568.16
704.17	884.72
704.31	606.20
704.44	468.11
704.57	330.02
704.70	285.55
704.83	245.76
704.96	243.42
705.10	212.99
705.23	201.29
>>>>>End Processed Spectral Data<<<<<
