SpectraSuite Data File
++++++++++++++++++++++++++++++++++++
Date: Fri Oct 04 11:34:01 GMT-05:00 2013
User: price-jones
Dark Spectrum Present: No
Reference Spectrum Present: No
Number of Sampled Component Spectra: 1
Spectrometers: USB2+H05261
Integration Time (usec): 100000 (USB2+H05261)
Spectra Averaged: 1 (USB2+H05261)
Boxcar Smoothing: 0 (USB2+H05261)
Correct for Electrical Dark: No (USB2+H05261)
Strobe/Lamp Enabled: No (USB2+H05261)
Correct for Detector Non-linearity: No (USB2+H05261)
Correct for Stray Light: No (USB2+H05261)
Number of Pixels in Processed Spectrum: 2048
>>>>>Begin Processed Spectral Data<<<<<
365.73	67.88
365.92	67.88
366.12	67.88
366.32	7.02
366.52	37.45
366.72	30.43
366.91	0.00
367.11	0.00
367.31	0.00
367.51	0.00
367.70	67.88
367.90	2.34
368.10	16.38
368.30	0.00
368.49	0.00
368.69	0.00
368.89	11.70
369.09	0.00
369.28	53.83
369.48	0.00
369.68	28.09
369.87	23.41
370.07	0.00
370.27	11.70
370.47	86.60
370.66	23.41
370.86	124.05
371.06	93.62
371.25	100.64
371.45	161.50
371.65	119.37
371.84	107.66
372.04	119.37
372.24	65.54
372.44	72.56
372.63	102.98
372.83	112.35
373.03	81.92
373.22	28.09
373.42	112.35
373.62	138.09
373.81	156.82
374.01	145.11
374.21	112.35
374.40	163.84
374.60	159.16
374.79	135.75
374.99	128.73
375.19	135.75
375.38	205.97
375.58	203.63
375.78	149.79
375.97	243.42
376.17	203.63
376.37	180.22
376.56	133.41
376.76	126.39
376.95	131.07
377.15	142.77
377.35	102.98
377.54	70.22
377.74	35.11
377.93	128.73
378.13	131.07
378.33	205.97
378.52	95.96
378.72	140.43
378.91	124.05
379.11	142.77
379.31	124.05
379.50	117.03
379.70	140.43
379.89	133.41
380.09	128.73
380.28	138.09
380.48	156.82
380.68	98.30
380.87	170.86
381.07	205.97
381.26	210.65
381.46	110.01
381.65	203.63
381.85	166.18
382.04	145.11
382.24	114.69
382.43	102.98
382.63	161.50
382.83	105.32
383.02	100.64
383.22	126.39
383.41	124.05
383.61	126.39
383.80	173.20
384.00	140.43
384.19	145.11
384.39	112.35
384.58	74.90
384.78	135.75
384.97	189.58
385.17	154.48
385.36	138.09
385.56	140.43
385.75	112.35
385.95	147.45
386.14	215.33
386.34	119.37
386.53	128.73
386.72	131.07
386.92	98.30
387.11	149.79
387.31	117.03
387.50	119.37
387.70	105.32
387.89	100.64
388.09	95.96
388.28	215.33
388.48	67.88
388.67	191.92
388.86	163.84
389.06	203.63
389.25	147.45
389.45	149.79
389.64	93.62
389.84	154.48
390.03	163.84
390.22	173.20
390.42	112.35
390.61	145.11
390.81	79.58
391.00	81.92
391.19	187.24
391.39	133.41
391.58	161.50
391.78	105.32
391.97	147.45
392.16	77.24
392.36	196.60
392.55	166.18
392.75	117.03
392.94	168.52
393.13	177.88
393.33	98.30
393.52	0.00
393.71	170.86
393.91	145.11
394.10	154.48
394.29	145.11
394.49	149.79
394.68	138.09
394.88	182.56
395.07	110.01
395.26	131.07
395.46	124.05
395.65	180.22
395.84	154.48
396.04	269.16
396.23	203.63
396.42	126.39
396.62	166.18
396.81	194.26
397.00	194.26
397.19	142.77
397.39	124.05
397.58	147.45
397.77	131.07
397.97	135.75
398.16	81.92
398.35	138.09
398.55	95.96
398.74	112.35
398.93	212.99
399.12	107.66
399.32	168.52
399.51	182.56
399.70	102.98
399.90	133.41
400.09	224.69
400.28	147.45
400.47	152.13
400.67	159.16
400.86	191.92
401.05	180.22
401.24	166.18
401.44	168.52
401.63	147.45
401.82	177.88
402.01	128.73
402.21	166.18
402.40	74.90
402.59	145.11
402.78	77.24
402.97	98.30
403.17	121.71
403.36	133.41
403.55	154.48
403.74	163.84
403.93	292.57
404.13	280.86
404.32	241.08
404.51	161.50
404.70	180.22
404.89	205.97
405.09	224.69
405.28	131.07
405.47	208.31
405.66	205.97
405.85	170.86
406.05	156.82
406.24	105.32
406.43	117.03
406.62	161.50
406.81	196.60
407.00	159.16
407.20	182.56
407.39	128.73
407.58	170.86
407.77	152.13
407.96	107.66
408.15	173.20
408.34	98.30
408.54	152.13
408.73	180.22
408.92	121.71
409.11	128.73
409.30	138.09
409.49	110.01
409.68	100.64
409.87	175.54
410.07	154.48
410.26	182.56
410.45	117.03
410.64	114.69
410.83	128.73
411.02	177.88
411.21	133.41
411.40	126.39
411.59	128.73
411.78	236.39
411.98	126.39
412.17	163.84
412.36	114.69
412.55	138.09
412.74	121.71
412.93	140.43
413.12	182.56
413.31	156.82
413.50	126.39
413.69	105.32
413.88	189.58
414.07	154.48
414.26	187.24
414.45	128.73
414.64	227.03
414.83	175.54
415.02	142.77
415.22	215.33
415.41	126.39
415.60	177.88
415.79	236.39
415.98	212.99
416.17	229.37
416.36	140.43
416.55	191.92
416.74	121.71
416.93	126.39
417.12	147.45
417.31	166.18
417.50	184.90
417.69	241.08
417.88	259.80
418.07	276.18
418.26	187.24
418.45	198.95
418.64	222.35
418.83	234.05
419.02	245.76
419.21	170.86
419.39	201.29
419.58	194.26
419.77	212.99
419.96	210.65
420.15	236.39
420.34	201.29
420.53	189.58
420.72	156.82
420.91	131.07
421.10	177.88
421.29	128.73
421.48	112.35
421.67	182.56
421.86	152.13
422.05	154.48
422.24	217.67
422.43	112.35
422.61	205.97
422.80	147.45
422.99	138.09
423.18	135.75
423.37	236.39
423.56	210.65
423.75	152.13
423.94	98.30
424.13	222.35
424.32	163.84
424.50	205.97
424.69	191.92
424.88	182.56
425.07	177.88
425.26	161.50
425.45	231.71
425.64	217.67
425.83	287.89
426.01	236.39
426.20	198.95
426.39	156.82
426.58	203.63
426.77	126.39
426.96	187.24
427.15	166.18
427.33	184.90
427.52	198.95
427.71	110.01
427.90	210.65
428.09	182.56
428.28	161.50
428.46	114.69
428.65	177.88
428.84	203.63
429.03	140.43
429.22	198.95
429.40	161.50
429.59	248.10
429.78	212.99
429.97	177.88
430.16	196.60
430.34	191.92
430.53	126.39
430.72	264.48
430.91	145.11
431.10	140.43
431.28	159.16
431.47	182.56
431.66	159.16
431.85	215.33
432.03	177.88
432.22	273.84
432.41	138.09
432.60	222.35
432.79	259.80
432.97	266.82
433.16	313.63
433.35	257.46
433.54	140.43
433.72	166.18
433.91	196.60
434.10	224.69
434.28	203.63
434.47	236.39
434.66	210.65
434.85	215.33
435.03	175.54
435.22	337.04
435.41	458.74
435.59	484.49
435.78	374.49
435.97	304.27
436.16	205.97
436.34	212.99
436.53	201.29
436.72	175.54
436.90	163.84
437.09	170.86
437.28	234.05
437.46	191.92
437.65	191.92
437.84	220.01
438.02	161.50
438.21	131.07
438.40	248.10
438.58	163.84
438.77	212.99
438.96	175.54
439.14	93.62
439.33	257.46
439.52	182.56
439.70	140.43
439.89	201.29
440.08	173.20
440.26	194.26
440.45	191.92
440.63	238.73
440.82	208.31
441.01	208.31
441.19	159.16
441.38	166.18
441.57	264.48
441.75	250.44
441.94	159.16
442.12	201.29
442.31	255.12
442.50	187.24
442.68	133.41
442.87	161.50
443.05	154.48
443.24	234.05
443.43	201.29
443.61	217.67
443.80	159.16
443.98	238.73
444.17	208.31
444.35	245.76
444.54	131.07
444.73	212.99
444.91	131.07
445.10	140.43
445.28	196.60
445.47	187.24
445.65	173.20
445.84	152.13
446.02	161.50
446.21	177.88
446.39	154.48
446.58	163.84
446.77	180.22
446.95	117.03
447.14	184.90
447.32	278.52
447.51	91.28
447.69	227.03
447.88	81.92
448.06	203.63
448.25	184.90
448.43	191.92
448.62	105.32
448.80	306.61
448.99	205.97
449.17	156.82
449.36	180.22
449.54	205.97
449.73	184.90
449.91	271.50
450.10	201.29
450.28	194.26
450.46	177.88
450.65	215.33
450.83	196.60
451.02	173.20
451.20	201.29
451.39	248.10
451.57	180.22
451.76	191.92
451.94	224.69
452.13	161.50
452.31	208.31
452.49	161.50
452.68	252.78
452.86	131.07
453.05	283.20
453.23	166.18
453.42	224.69
453.60	234.05
453.78	205.97
453.97	250.44
454.15	217.67
454.34	145.11
454.52	208.31
454.70	163.84
454.89	243.42
455.07	229.37
455.26	229.37
455.44	180.22
455.62	196.60
455.81	163.84
455.99	229.37
456.17	182.56
456.36	161.50
456.54	229.37
456.73	208.31
456.91	201.29
457.09	187.24
457.28	191.92
457.46	196.60
457.64	187.24
457.83	142.77
458.01	142.77
458.19	168.52
458.38	163.84
458.56	191.92
458.74	177.88
458.93	161.50
459.11	187.24
459.29	227.03
459.48	149.79
459.66	189.58
459.84	168.52
460.03	243.42
460.21	234.05
460.39	208.31
460.57	189.58
460.76	194.26
460.94	196.60
461.12	180.22
461.31	229.37
461.49	156.82
461.67	184.90
461.85	177.88
462.04	180.22
462.22	573.43
462.40	227.03
462.59	210.65
462.77	163.84
462.95	152.13
463.13	191.92
463.32	299.59
463.50	222.35
463.68	231.71
463.86	198.95
464.05	173.20
464.23	201.29
464.41	217.67
464.59	175.54
464.78	198.95
464.96	196.60
465.14	212.99
465.32	215.33
465.50	166.18
465.69	152.13
465.87	163.84
466.05	177.88
466.23	135.75
466.41	217.67
466.60	154.48
466.78	177.88
466.96	264.48
467.14	245.76
467.32	201.29
467.51	175.54
467.69	271.50
467.87	196.60
468.05	201.29
468.23	215.33
468.41	189.58
468.60	161.50
468.78	180.22
468.96	170.86
469.14	205.97
469.32	161.50
469.50	241.08
469.69	189.58
469.87	217.67
470.05	140.43
470.23	220.01
470.41	252.78
470.59	222.35
470.77	224.69
470.95	222.35
471.14	269.16
471.32	156.82
471.50	220.01
471.68	184.90
471.86	238.73
472.04	173.20
472.22	180.22
472.40	189.58
472.58	243.42
472.77	138.09
472.95	173.20
473.13	189.58
473.31	201.29
473.49	212.99
473.67	152.13
473.85	182.56
474.03	198.95
474.21	184.90
474.39	229.37
474.57	257.46
474.75	205.97
474.93	210.65
475.12	133.41
475.30	166.18
475.48	182.56
475.66	276.18
475.84	266.82
476.02	156.82
476.20	224.69
476.38	241.08
476.56	227.03
476.74	238.73
476.92	227.03
477.10	126.39
477.28	163.84
477.46	245.76
477.64	198.95
477.82	243.42
478.00	117.03
478.18	191.92
478.36	271.50
478.54	210.65
478.72	212.99
478.90	255.12
479.08	224.69
479.26	220.01
479.44	196.60
479.62	194.26
479.80	203.63
479.98	210.65
480.16	266.82
480.34	238.73
480.52	220.01
480.70	149.79
480.88	135.75
481.06	187.24
481.24	128.73
481.41	196.60
481.59	210.65
481.77	269.16
481.95	194.26
482.13	231.71
482.31	131.07
482.49	215.33
482.67	231.71
482.85	215.33
483.03	259.80
483.21	217.67
483.39	175.54
483.57	187.24
483.74	301.93
483.92	285.55
484.10	248.10
484.28	252.78
484.46	308.95
484.64	262.14
484.82	224.69
485.00	241.08
485.18	215.33
485.35	224.69
485.53	182.56
485.71	229.37
485.89	241.08
486.07	234.05
486.25	330.02
486.43	306.61
486.61	292.57
486.78	257.46
486.96	215.33
487.14	280.86
487.32	227.03
487.50	248.10
487.68	243.42
487.85	262.14
488.03	304.27
488.21	287.89
488.39	238.73
488.57	222.35
488.75	255.12
488.92	512.58
489.10	243.42
489.28	297.25
489.46	306.61
489.64	234.05
489.81	215.33
489.99	182.56
490.17	149.79
490.35	273.84
490.53	198.95
490.70	215.33
490.88	280.86
491.06	154.48
491.24	243.42
491.41	276.18
491.59	243.42
491.77	210.65
491.95	269.16
492.13	273.84
492.30	285.55
492.48	163.84
492.66	257.46
492.84	161.50
493.01	273.84
493.19	222.35
493.37	273.84
493.54	238.73
493.72	243.42
493.90	271.50
494.08	283.20
494.25	276.18
494.43	255.12
494.61	250.44
494.79	259.80
494.96	262.14
495.14	236.39
495.32	234.05
495.49	229.37
495.67	269.16
495.85	292.57
496.02	189.58
496.20	257.46
496.38	283.20
496.55	297.25
496.73	278.52
496.91	184.90
497.09	250.44
497.26	269.16
497.44	257.46
497.62	241.08
497.79	238.73
497.97	217.67
498.14	292.57
498.32	327.68
498.50	255.12
498.67	280.86
498.85	243.42
499.03	234.05
499.20	271.50
499.38	236.39
499.56	217.67
499.73	187.24
499.91	222.35
500.08	212.99
500.26	280.86
500.44	278.52
500.61	273.84
500.79	292.57
500.97	285.55
501.14	229.37
501.32	229.37
501.49	301.93
501.67	241.08
501.84	217.67
502.02	266.82
502.20	269.16
502.37	283.20
502.55	194.26
502.72	248.10
502.90	299.59
503.07	255.12
503.25	238.73
503.43	266.82
503.60	217.67
503.78	294.91
503.95	276.18
504.13	313.63
504.30	264.48
504.48	177.88
504.65	222.35
504.83	262.14
505.01	227.03
505.18	276.18
505.36	212.99
505.53	203.63
505.71	245.76
505.88	313.63
506.06	215.33
506.23	227.03
506.41	250.44
506.58	276.18
506.76	264.48
506.93	255.12
507.11	283.20
507.28	308.95
507.46	212.99
507.63	322.99
507.81	170.86
507.98	264.48
508.16	149.79
508.33	180.22
508.50	189.58
508.68	201.29
508.85	280.86
509.03	252.78
509.20	273.84
509.38	252.78
509.55	301.93
509.73	252.78
509.90	266.82
510.08	238.73
510.25	315.97
510.42	187.24
510.60	271.50
510.77	269.16
510.95	245.76
511.12	278.52
511.30	297.25
511.47	271.50
511.64	304.27
511.82	292.57
511.99	287.89
512.17	252.78
512.34	243.42
512.51	220.01
512.69	227.03
512.86	250.44
513.04	175.54
513.21	236.39
513.38	241.08
513.56	243.42
513.73	180.22
513.90	276.18
514.08	194.26
514.25	276.18
514.43	238.73
514.60	222.35
514.77	259.80
514.95	290.23
515.12	231.71
515.29	259.80
515.47	301.93
515.64	227.03
515.81	220.01
515.99	332.36
516.16	255.12
516.33	271.50
516.51	266.82
516.68	243.42
516.85	196.60
517.03	231.71
517.20	308.95
517.37	318.31
517.54	266.82
517.72	238.73
517.89	292.57
518.06	231.71
518.24	252.78
518.41	292.57
518.58	264.48
518.75	168.52
518.93	273.84
519.10	262.14
519.27	215.33
519.45	257.46
519.62	266.82
519.79	257.46
519.96	189.58
520.14	224.69
520.31	301.93
520.48	311.29
520.65	266.82
520.83	236.39
521.00	154.48
521.17	299.59
521.34	271.50
521.52	271.50
521.69	203.63
521.86	252.78
522.03	271.50
522.20	294.91
522.38	299.59
522.55	299.59
522.72	276.18
522.89	269.16
523.07	341.72
523.24	252.78
523.41	231.71
523.58	248.10
523.75	210.65
523.92	245.76
524.10	252.78
524.27	198.95
524.44	227.03
524.61	327.68
524.78	311.29
524.96	222.35
525.13	201.29
525.30	271.50
525.47	250.44
525.64	327.68
525.81	304.27
525.98	264.48
526.16	243.42
526.33	222.35
526.50	210.65
526.67	166.18
526.84	248.10
527.01	245.76
527.18	297.25
527.36	339.38
527.53	344.06
527.70	297.25
527.87	262.14
528.04	346.40
528.21	280.86
528.38	299.59
528.55	348.74
528.72	306.61
528.89	252.78
529.07	325.33
529.24	269.16
529.41	325.33
529.58	229.37
529.75	313.63
529.92	283.20
530.09	290.23
530.26	337.04
530.43	273.84
530.60	280.86
530.77	262.14
530.94	351.08
531.11	224.69
531.28	266.82
531.46	297.25
531.63	325.33
531.80	276.18
531.97	294.91
532.14	276.18
532.31	320.65
532.48	269.16
532.65	430.66
532.82	416.62
532.99	416.62
533.16	437.68
533.33	348.74
533.50	285.55
533.67	344.06
533.84	479.81
534.01	463.43
534.18	491.51
534.35	266.82
534.52	322.99
534.69	332.36
534.86	379.17
535.03	259.80
535.20	320.65
535.37	280.86
535.54	255.12
535.71	318.31
535.88	376.83
536.05	297.25
536.22	255.12
536.38	292.57
536.55	257.46
536.72	332.36
536.89	262.14
537.06	358.10
537.23	311.29
537.40	315.97
537.57	320.65
537.74	257.46
537.91	386.19
538.08	339.38
538.25	320.65
538.42	304.27
538.59	334.70
538.75	315.97
538.92	311.29
539.09	397.89
539.26	325.33
539.43	517.26
539.60	1135.16
539.77	1895.83
539.94	1783.49
540.11	1261.55
540.28	887.06
540.44	711.52
540.61	531.30
540.78	486.83
540.95	517.26
541.12	613.22
541.29	582.79
541.46	528.96
541.62	575.77
541.79	545.34
541.96	395.55
542.13	507.90
542.30	524.28
542.47	564.07
542.63	463.43
542.80	437.68
542.97	465.77
543.14	498.53
543.31	421.30
543.48	472.79
543.64	510.24
543.81	519.60
543.98	475.13
544.15	498.53
544.32	491.51
544.48	477.47
544.65	526.62
544.82	507.90
544.99	442.36
545.16	519.60
545.32	482.15
545.49	692.80
545.66	973.66
545.83	1032.18
546.00	973.66
546.16	744.29
546.33	629.60
546.50	505.56
546.67	547.69
546.83	510.24
547.00	433.00
547.17	442.36
547.34	423.64
547.50	472.79
547.67	484.49
547.84	437.68
548.00	416.62
548.17	425.98
548.34	418.96
548.51	430.66
548.67	475.13
548.84	470.45
549.01	358.10
549.18	402.57
549.34	393.21
549.51	404.91
549.68	362.78
549.84	360.44
550.01	285.55
550.18	442.36
550.34	421.30
550.51	269.16
550.68	433.00
550.84	283.20
551.01	337.04
551.18	470.45
551.34	320.65
551.51	308.95
551.68	344.06
551.84	379.17
552.01	304.27
552.18	355.76
552.34	297.25
552.51	304.27
552.68	362.78
552.84	290.23
553.01	297.25
553.18	330.02
553.34	269.16
553.51	292.57
553.67	348.74
553.84	318.31
554.01	386.19
554.17	341.72
554.34	264.48
554.51	287.89
554.67	330.02
554.84	306.61
555.00	297.25
555.17	299.59
555.33	330.02
555.50	297.25
555.67	383.85
555.83	294.91
556.00	341.72
556.16	440.02
556.33	353.42
556.50	339.38
556.66	271.50
556.83	325.33
556.99	304.27
557.16	264.48
557.32	283.20
557.49	208.31
557.65	332.36
557.82	283.20
557.98	315.97
558.15	215.33
558.32	259.80
558.48	227.03
558.65	330.02
558.81	334.70
558.98	311.29
559.14	318.31
559.31	243.42
559.47	271.50
559.64	201.29
559.80	294.91
559.97	205.97
560.13	294.91
560.30	285.55
560.46	217.67
560.63	273.84
560.79	301.93
560.96	241.08
561.12	245.76
561.29	231.71
561.45	346.40
561.61	227.03
561.78	358.10
561.94	311.29
562.11	271.50
562.27	227.03
562.44	273.84
562.60	250.44
562.77	276.18
562.93	332.36
563.10	271.50
563.26	304.27
563.42	231.71
563.59	245.76
563.75	292.57
563.92	234.05
564.08	184.90
564.24	217.67
564.41	362.78
564.57	241.08
564.74	243.42
564.90	292.57
565.07	348.74
565.23	311.29
565.39	294.91
565.56	367.46
565.72	332.36
565.88	339.38
566.05	262.14
566.21	210.65
566.38	257.46
566.54	252.78
566.70	201.29
566.87	248.10
567.03	231.71
567.19	210.65
567.36	311.29
567.52	250.44
567.68	227.03
567.85	238.73
568.01	287.89
568.17	142.77
568.34	182.56
568.50	292.57
568.66	308.95
568.83	325.33
568.99	271.50
569.15	304.27
569.32	222.35
569.48	315.97
569.64	243.42
569.81	210.65
569.97	353.42
570.13	287.89
570.30	262.14
570.46	294.91
570.62	234.05
570.78	222.35
570.95	184.90
571.11	304.27
571.27	341.72
571.43	264.48
571.60	241.08
571.76	198.95
571.92	271.50
572.09	227.03
572.25	241.08
572.41	315.97
572.57	243.42
572.74	318.31
572.90	276.18
573.06	304.27
573.22	283.20
573.38	217.67
573.55	278.52
573.71	273.84
573.87	283.20
574.03	278.52
574.20	257.46
574.36	306.61
574.52	381.51
574.68	379.17
574.84	421.30
575.01	278.52
575.17	334.70
575.33	341.72
575.49	278.52
575.65	297.25
575.82	409.59
575.98	667.05
576.14	795.78
576.30	795.78
576.46	631.94
576.62	585.13
576.79	538.32
576.95	578.11
577.11	332.36
577.27	365.12
577.43	294.91
577.59	402.57
577.75	332.36
577.92	280.86
578.08	306.61
578.24	255.12
578.40	355.76
578.56	386.19
578.72	362.78
578.88	442.36
579.04	435.34
579.21	379.17
579.37	395.55
579.53	376.83
579.69	409.59
579.85	360.44
580.01	477.47
580.17	477.47
580.33	472.79
580.49	416.62
580.65	404.91
580.82	423.64
580.98	433.00
581.14	400.23
581.30	514.92
581.46	510.24
581.62	653.01
581.78	744.29
581.94	758.33
582.10	645.99
582.26	498.53
582.42	472.79
582.58	540.66
582.74	465.77
582.90	496.19
583.06	564.07
583.22	538.32
583.38	528.96
583.54	655.35
583.70	706.84
583.86	753.65
584.02	908.13
584.18	1032.18
584.34	1287.29
584.50	3117.59
584.66	21834.86
584.82	56596.49
584.98	65535.00
585.14	65535.00
585.30	52519.28
585.46	32938.36
585.62	20170.74
585.78	9263.84
585.94	3646.55
586.10	1893.49
586.26	1221.76
586.42	1020.47
586.58	805.14
586.74	784.08
586.90	851.96
587.06	760.67
587.22	770.04
587.38	629.60
587.54	1261.55
587.70	3456.97
587.86	6277.32
588.02	7206.51
588.18	5198.33
588.34	3225.26
588.49	2122.87
588.65	1343.47
588.81	760.67
588.97	461.09
589.13	409.59
589.29	395.55
589.45	369.80
589.61	393.21
589.77	454.06
589.93	517.26
590.08	496.19
590.24	503.22
590.40	442.36
590.56	514.92
590.72	503.22
590.88	395.55
591.04	388.53
591.20	409.59
591.35	395.55
591.51	397.89
591.67	454.06
591.83	411.93
591.99	369.80
592.15	449.38
592.31	330.02
592.46	416.62
592.62	428.32
592.78	383.85
592.94	449.38
593.10	482.15
593.26	423.64
593.41	407.25
593.57	489.17
593.73	664.71
593.89	2775.88
594.05	7714.41
594.20	11925.03
594.36	11522.46
594.52	7733.13
594.68	4835.55
594.84	3227.60
594.99	1895.83
595.15	788.76
595.31	557.05
595.47	470.45
595.62	297.25
595.78	383.85
595.94	390.87
596.10	402.57
596.25	437.68
596.41	477.47
596.57	433.00
596.73	367.46
596.88	566.41
597.04	1448.79
597.20	2497.35
597.36	3141.00
597.51	2452.88
597.67	1629.01
597.83	1193.67
597.99	863.66
598.14	559.39
598.30	454.06
598.46	421.30
598.61	416.62
598.77	489.17
598.93	381.51
599.09	407.25
599.24	365.12
599.40	353.42
599.56	360.44
599.71	351.08
599.87	278.52
600.03	330.02
600.18	308.95
600.34	311.29
600.50	322.99
600.65	325.33
600.81	280.86
600.97	334.70
601.12	273.84
601.28	266.82
601.44	285.55
601.59	280.86
601.75	320.65
601.91	269.16
602.06	252.78
602.22	414.27
602.37	655.35
602.53	1701.57
602.69	2928.01
602.84	3101.21
603.00	2307.77
603.16	1605.61
603.31	1205.38
603.47	791.10
603.62	465.77
603.78	414.27
603.94	418.96
604.09	327.68
604.25	308.95
604.40	351.08
604.56	276.18
604.71	231.71
604.87	327.68
605.03	330.02
605.18	332.36
605.34	348.74
605.49	351.08
605.65	409.59
605.80	355.76
605.96	381.51
606.12	433.00
606.27	383.85
606.43	381.51
606.58	423.64
606.74	866.00
606.89	3239.30
607.05	7126.93
607.20	10298.36
607.36	8664.66
607.51	5942.62
607.67	3784.65
607.82	2595.65
607.98	1537.73
608.13	786.42
608.29	496.19
608.44	575.77
608.60	561.73
608.75	690.46
608.91	1217.08
609.06	5167.90
609.22	12449.31
609.37	18012.76
609.53	15903.94
609.68	10696.25
609.84	6981.82
609.99	4718.52
610.15	2724.38
610.30	1467.52
610.46	1036.86
610.61	945.58
610.76	983.02
610.92	1149.20
611.07	1181.97
611.23	1233.46
611.38	1207.72
611.54	990.05
611.69	976.00
611.84	821.53
612.00	784.08
612.15	716.20
612.31	748.97
612.46	912.81
612.62	1121.12
612.77	940.90
612.92	926.85
613.08	894.08
613.23	770.04
613.39	861.32
613.54	1022.81
613.69	4669.37
613.85	14731.33
614.00	26155.49
614.15	28437.51
614.31	19999.88
614.46	13240.41
614.62	8767.65
614.77	5425.36
614.92	2614.38
615.08	1203.04
615.23	917.49
615.38	681.10
615.54	606.20
615.69	952.60
615.84	2904.60
616.00	5645.37
616.15	7398.43
616.30	6087.73
616.46	4402.55
616.61	2864.82
616.76	1991.80
616.92	1095.37
617.07	746.63
617.22	547.69
617.37	447.04
617.53	447.04
617.68	397.89
617.83	428.32
617.99	482.15
618.14	351.08
618.29	463.43
618.45	360.44
618.60	416.62
618.75	411.93
618.90	278.52
619.06	325.33
619.21	367.46
619.36	351.08
619.51	358.10
619.67	248.10
619.82	318.31
619.97	297.25
620.12	367.46
620.28	416.62
620.43	402.57
620.58	285.55
620.73	372.15
620.89	433.00
621.04	636.63
621.19	1558.80
621.34	3075.46
621.49	4348.72
621.65	4037.42
621.80	2677.57
621.95	1947.33
622.10	1380.92
622.25	926.85
622.41	521.94
622.56	393.21
622.71	390.87
622.86	404.91
623.01	276.18
623.16	358.10
623.32	271.50
623.47	341.72
623.62	301.93
623.77	339.38
623.92	252.78
624.07	255.12
624.23	372.15
624.38	339.38
624.53	388.53
624.68	388.53
624.83	339.38
624.98	372.15
625.13	299.59
625.29	276.18
625.44	362.78
625.59	437.68
625.74	461.09
625.89	650.67
626.04	2289.04
626.19	7272.04
626.34	12505.48
626.49	14913.89
626.65	11030.94
626.80	7325.88
626.95	5008.75
627.10	3145.68
627.25	1640.72
627.40	770.04
627.55	514.92
627.70	383.85
627.85	372.15
628.00	367.46
628.15	353.42
628.30	306.61
628.45	311.29
628.60	241.08
628.76	327.68
628.91	318.31
629.06	276.18
629.21	339.38
629.36	301.93
629.51	315.97
629.66	327.68
629.81	510.24
629.96	1352.83
630.11	2700.98
630.26	3726.13
630.41	3428.88
630.56	2499.69
630.71	1778.81
630.86	1270.91
631.01	812.17
631.16	573.43
631.31	393.21
631.46	479.81
631.61	330.02
631.76	334.70
631.91	315.97
632.06	308.95
632.21	262.14
632.36	362.78
632.51	477.47
632.66	510.24
632.81	1097.71
632.96	3833.80
633.10	7763.56
633.25	10085.37
633.40	8269.11
633.55	5738.99
633.70	3861.88
633.85	2705.66
634.00	1453.47
634.15	704.50
634.30	451.72
634.45	341.72
634.60	311.29
634.75	311.29
634.90	290.23
635.05	327.68
635.19	330.02
635.34	220.01
635.49	325.33
635.64	269.16
635.79	318.31
635.94	290.23
636.09	353.42
636.24	264.48
636.39	320.65
636.53	348.74
636.68	381.51
636.83	379.17
636.98	362.78
637.13	313.63
637.28	344.06
637.43	503.22
637.57	683.44
637.72	3028.65
637.87	9240.44
638.02	16308.85
638.17	18656.41
638.32	14029.17
638.46	9291.93
638.61	6373.28
638.76	3667.62
638.91	1930.94
639.06	1029.84
639.20	788.76
639.35	725.57
639.50	966.64
639.65	4535.96
639.80	14398.98
639.94	25043.73
640.09	28563.90
640.24	21326.96
640.39	14101.73
640.54	9525.98
640.68	5708.57
640.83	2869.50
640.98	1287.29
641.13	753.65
641.27	519.60
641.42	383.85
641.57	440.02
641.72	379.17
641.86	395.55
642.01	264.48
642.16	337.04
642.31	308.95
642.45	250.44
642.60	262.14
642.75	304.27
642.90	278.52
643.04	255.12
643.19	285.55
643.34	236.39
643.48	325.33
643.63	290.23
643.78	215.33
643.93	283.20
644.07	257.46
644.22	271.50
644.37	180.22
644.51	318.31
644.66	353.42
644.81	229.37
644.95	236.39
645.10	220.01
645.25	271.50
645.39	292.57
645.54	222.35
645.69	264.48
645.83	285.55
645.98	259.80
646.13	290.23
646.27	234.05
646.42	222.35
646.57	259.80
646.71	241.08
646.86	308.95
647.00	264.48
647.15	269.16
647.30	191.92
647.44	287.89
647.59	208.31
647.74	255.12
647.88	322.99
648.03	229.37
648.17	311.29
648.32	299.59
648.47	287.89
648.61	313.63
648.76	292.57
648.90	255.12
649.05	259.80
649.20	273.84
649.34	241.08
649.49	311.29
649.63	306.61
649.78	344.06
649.92	442.36
650.07	1825.62
650.21	6029.22
650.36	11658.21
650.51	14925.60
650.65	12369.73
650.80	8671.68
650.94	5659.42
651.09	3538.89
651.23	1858.39
651.38	1011.11
651.52	493.85
651.67	388.53
651.81	374.49
651.96	360.44
652.10	404.91
652.25	320.65
652.39	301.93
652.54	322.99
652.68	650.67
652.83	2026.90
652.97	3756.56
653.12	5266.21
653.26	4741.93
653.41	3492.08
653.55	2396.71
653.70	1561.14
653.84	945.58
653.99	636.63
654.13	327.68
654.27	311.29
654.42	318.31
654.56	271.50
654.71	259.80
654.85	259.80
655.00	234.05
655.14	257.46
655.29	154.48
655.43	262.14
655.57	198.95
655.72	177.88
655.86	203.63
656.01	318.31
656.15	259.80
656.30	252.78
656.44	243.42
656.58	236.39
656.73	224.69
656.87	222.35
657.01	243.42
657.16	245.76
657.30	320.65
657.45	257.46
657.59	234.05
657.73	194.26
657.88	194.26
658.02	215.33
658.16	198.95
658.31	255.12
658.45	227.03
658.60	229.37
658.74	194.26
658.88	243.42
659.03	304.27
659.17	339.38
659.31	816.85
659.46	2841.41
659.60	5411.32
659.74	7456.95
659.89	6368.60
660.03	4943.21
660.17	3382.07
660.32	2104.14
660.46	1224.10
660.60	622.58
660.74	433.00
660.89	308.95
661.03	311.29
661.17	322.99
661.32	290.23
661.46	196.60
661.60	210.65
661.74	304.27
661.89	304.27
662.03	308.95
662.17	191.92
662.31	301.93
662.46	311.29
662.60	217.67
662.74	241.08
662.88	217.67
663.03	194.26
663.17	198.95
663.31	243.42
663.45	278.52
663.60	306.61
663.74	250.44
663.88	168.52
664.02	245.76
664.17	255.12
664.31	266.82
664.45	201.29
664.59	222.35
664.73	205.97
664.88	243.42
665.02	236.39
665.16	224.69
665.30	264.48
665.44	299.59
665.59	325.33
665.73	252.78
665.87	203.63
666.01	236.39
666.15	266.82
666.29	236.39
666.44	330.02
666.58	276.18
666.72	311.29
666.86	252.78
667.00	318.31
667.14	482.15
667.28	1558.80
667.43	5198.33
667.57	9617.26
667.71	12968.91
667.85	11094.14
667.99	8334.65
668.13	5313.02
668.27	3183.13
668.41	1858.39
668.56	990.05
668.70	653.01
668.84	407.25
668.98	339.38
669.12	266.82
669.26	287.89
669.40	383.85
669.54	194.26
669.68	301.93
669.82	154.48
669.96	262.14
670.10	262.14
670.25	318.31
670.39	236.39
670.53	154.48
670.67	290.23
670.81	163.84
670.95	273.84
671.09	496.19
671.23	1888.81
671.37	4486.81
671.51	7337.58
671.65	8107.62
671.79	6249.23
671.93	4416.59
672.07	2832.05
672.21	1582.20
672.35	952.60
672.49	550.03
672.63	407.25
672.77	297.25
672.91	313.63
673.05	175.54
673.19	297.25
673.33	245.76
673.47	241.08
673.61	196.60
673.75	217.67
673.89	243.42
674.03	245.76
674.17	201.29
674.31	208.31
674.45	238.73
674.59	182.56
674.73	243.42
674.87	224.69
675.01	311.29
675.15	259.80
675.29	292.57
675.43	287.89
675.56	191.92
675.70	208.31
675.84	227.03
675.98	205.97
676.12	255.12
676.26	135.75
676.40	220.01
676.54	217.67
676.68	257.46
676.82	173.20
676.96	212.99
677.10	184.90
677.23	208.31
677.37	145.11
677.51	224.69
677.65	252.78
677.79	205.97
677.93	191.92
678.07	208.31
678.21	147.45
678.34	142.77
678.48	170.86
678.62	224.69
678.76	156.82
678.90	191.92
679.04	212.99
679.18	173.20
679.31	163.84
679.45	142.77
679.59	208.31
679.73	217.67
679.87	222.35
680.00	276.18
680.14	210.65
680.28	201.29
680.42	184.90
680.56	191.92
680.70	212.99
680.83	191.92
680.97	215.33
681.11	142.77
681.25	236.39
681.39	220.01
681.52	215.33
681.66	119.37
681.80	147.45
681.94	93.62
682.07	170.86
682.21	177.88
682.35	177.88
682.49	131.07
682.62	241.08
682.76	184.90
682.90	156.82
683.04	248.10
683.17	156.82
683.31	168.52
683.45	224.69
683.59	255.12
683.72	159.16
683.86	161.50
684.00	180.22
684.13	238.73
684.27	175.54
684.41	215.33
684.55	236.39
684.68	159.16
684.82	147.45
684.96	194.26
685.09	187.24
685.23	159.16
685.37	241.08
685.50	198.95
685.64	238.73
685.78	243.42
685.91	163.84
686.05	133.41
686.19	152.13
686.32	227.03
686.46	154.48
686.60	124.05
686.73	198.95
686.87	196.60
687.01	252.78
687.14	170.86
687.28	203.63
687.42	196.60
687.55	156.82
687.69	252.78
687.82	124.05
687.96	152.13
688.10	287.89
688.23	220.01
688.37	149.79
688.50	198.95
688.64	227.03
688.78	182.56
688.91	168.52
689.05	114.69
689.18	126.39
689.32	229.37
689.46	184.90
689.59	128.73
689.73	177.88
689.86	126.39
690.00	161.50
690.13	173.20
690.27	205.97
690.41	189.58
690.54	255.12
690.68	161.50
690.81	180.22
690.95	175.54
691.08	250.44
691.22	285.55
691.35	177.88
691.49	135.75
691.62	189.58
691.76	182.56
691.89	180.22
692.03	187.24
692.16	217.67
692.30	243.42
692.43	617.90
692.57	2148.61
692.70	4058.49
692.84	5645.37
692.97	5280.25
693.11	3691.02
693.24	2686.94
693.38	1886.47
693.51	1268.57
693.65	954.94
693.78	620.24
693.92	339.38
694.05	287.89
694.19	241.08
694.32	287.89
694.45	222.35
694.59	166.18
694.72	152.13
694.86	234.05
694.99	187.24
695.13	168.52
695.26	215.33
695.39	234.05
695.53	173.20
695.66	198.95
695.80	229.37
695.93	189.58
696.07	304.27
696.20	238.73
696.33	407.25
696.47	489.17
696.60	496.19
696.73	353.42
696.87	351.08
697.00	381.51
697.14	271.50
697.27	269.16
697.40	252.78
697.54	234.05
697.67	257.46
697.80	168.52
697.94	187.24
698.07	180.22
698.21	161.50
698.34	205.97
698.47	180.22
698.61	126.39
698.74	131.07
698.87	180.22
699.01	159.16
699.14	255.12
699.27	196.60
699.40	283.20
699.54	173.20
699.67	173.20
699.80	163.84
699.94	142.77
700.07	145.11
700.20	177.88
700.34	224.69
700.47	180.22
700.60	149.79
700.73	145.11
700.87	154.48
701.00	156.82
701.13	154.48
701.26	124.05
701.40	149.79
701.53	229.37
701.66	124.05
701.79	203.63
701.93	259.80
702.06	332.36
702.19	348.74
702.32	507.90
702.46	526.62
702.59	566.41
702.72	898.77
702.85	2752.47
702.99	6125.18
703.12	9497.89
703.25	10888.17
703.38	9476.83
703.51	7459.29
703.65	5874.74
703.78	4149.77
703.91	2806.30
704.04	1739.02
704.17	1123.46
704.31	720.88
704.44	367.46
704.57	308.95
704.70	243.42
704.83	264.48
704.96	208.31
705.10	222.35
705.23	220.01
>>>>>End Processed Spectral Data<<<<<
