SpectraSuite Data File
++++++++++++++++++++++++++++++++++++
Date: Fri Oct 04 11:33:59 GMT-05:00 2013
User: price-jones
Dark Spectrum Present: No
Reference Spectrum Present: No
Number of Sampled Component Spectra: 1
Spectrometers: USB2+H05261
Integration Time (usec): 100000 (USB2+H05261)
Spectra Averaged: 1 (USB2+H05261)
Boxcar Smoothing: 0 (USB2+H05261)
Correct for Electrical Dark: No (USB2+H05261)
Strobe/Lamp Enabled: No (USB2+H05261)
Correct for Detector Non-linearity: No (USB2+H05261)
Correct for Stray Light: No (USB2+H05261)
Number of Pixels in Processed Spectrum: 2048
>>>>>Begin Processed Spectral Data<<<<<
365.73	79.58
365.92	79.58
366.12	79.58
366.32	0.00
366.52	0.00
366.72	0.00
366.91	0.00
367.11	0.00
367.31	0.00
367.51	0.00
367.70	0.00
367.90	0.00
368.10	0.00
368.30	0.00
368.49	0.00
368.69	4.68
368.89	0.00
369.09	4.68
369.28	25.75
369.48	0.00
369.68	0.00
369.87	25.75
370.07	9.36
370.27	93.62
370.47	0.00
370.66	112.35
370.86	63.19
371.06	79.58
371.25	63.19
371.45	98.30
371.65	135.75
371.84	91.28
372.04	77.24
372.24	168.52
372.44	154.48
372.63	156.82
372.83	170.86
373.03	177.88
373.22	138.09
373.42	170.86
373.62	159.16
373.81	138.09
374.01	95.96
374.21	248.10
374.40	135.75
374.60	149.79
374.79	175.54
374.99	159.16
375.19	224.69
375.38	196.60
375.58	231.71
375.78	203.63
375.97	210.65
376.17	170.86
376.37	173.20
376.56	187.24
376.76	128.73
376.95	135.75
377.15	140.43
377.35	142.77
377.54	182.56
377.74	79.58
377.93	147.45
378.13	135.75
378.33	163.84
378.52	77.24
378.72	203.63
378.91	138.09
379.11	53.83
379.31	182.56
379.50	88.94
379.70	149.79
379.89	198.95
380.09	156.82
380.28	93.62
380.48	126.39
380.68	63.19
380.87	121.71
381.07	152.13
381.26	91.28
381.46	93.62
381.65	126.39
381.85	119.37
382.04	161.50
382.24	194.26
382.43	140.43
382.63	100.64
382.83	112.35
383.02	110.01
383.22	154.48
383.41	138.09
383.61	161.50
383.80	147.45
384.00	142.77
384.19	114.69
384.39	138.09
384.58	152.13
384.78	98.30
384.97	84.26
385.17	88.94
385.36	117.03
385.56	215.33
385.75	112.35
385.95	142.77
386.14	177.88
386.34	72.56
386.53	205.97
386.72	93.62
386.92	168.52
387.11	135.75
387.31	173.20
387.50	180.22
387.70	86.60
387.89	95.96
388.09	72.56
388.28	126.39
388.48	70.22
388.67	217.67
388.86	156.82
389.06	187.24
389.25	152.13
389.45	201.29
389.64	102.98
389.84	128.73
390.03	74.90
390.22	74.90
390.42	133.41
390.61	70.22
390.81	131.07
391.00	149.79
391.19	145.11
391.39	112.35
391.58	135.75
391.78	135.75
391.97	145.11
392.16	81.92
392.36	149.79
392.55	105.32
392.75	180.22
392.94	140.43
393.13	133.41
393.33	88.94
393.52	147.45
393.71	187.24
393.91	105.32
394.10	117.03
394.29	154.48
394.49	81.92
394.68	131.07
394.88	191.92
395.07	184.90
395.26	189.58
395.46	173.20
395.65	210.65
395.84	156.82
396.04	182.56
396.23	156.82
396.42	138.09
396.62	138.09
396.81	147.45
397.00	140.43
397.19	140.43
397.39	135.75
397.58	95.96
397.77	126.39
397.97	152.13
398.16	231.71
398.35	180.22
398.55	114.69
398.74	135.75
398.93	110.01
399.12	184.90
399.32	229.37
399.51	180.22
399.70	142.77
399.90	170.86
400.09	156.82
400.28	187.24
400.47	117.03
400.67	79.58
400.86	163.84
401.05	128.73
401.24	180.22
401.44	119.37
401.63	121.71
401.82	173.20
402.01	152.13
402.21	154.48
402.40	152.13
402.59	154.48
402.78	173.20
402.97	163.84
403.17	163.84
403.36	145.11
403.55	215.33
403.74	166.18
403.93	180.22
404.13	208.31
404.32	175.54
404.51	152.13
404.70	168.52
404.89	238.73
405.09	212.99
405.28	166.18
405.47	170.86
405.66	227.03
405.85	189.58
406.05	126.39
406.24	189.58
406.43	170.86
406.62	177.88
406.81	135.75
407.00	154.48
407.20	168.52
407.39	114.69
407.58	173.20
407.77	184.90
407.96	229.37
408.15	191.92
408.34	37.45
408.54	140.43
408.73	107.66
408.92	107.66
409.11	196.60
409.30	159.16
409.49	210.65
409.68	184.90
409.87	163.84
410.07	88.94
410.26	154.48
410.45	126.39
410.64	154.48
410.83	217.67
411.02	196.60
411.21	117.03
411.40	107.66
411.59	135.75
411.78	147.45
411.98	140.43
412.17	140.43
412.36	140.43
412.55	227.03
412.74	131.07
412.93	173.20
413.12	152.13
413.31	154.48
413.50	110.01
413.69	156.82
413.88	191.92
414.07	145.11
414.26	175.54
414.45	168.52
414.64	220.01
414.83	196.60
415.02	161.50
415.22	142.77
415.41	220.01
415.60	131.07
415.79	170.86
415.98	241.08
416.17	184.90
416.36	166.18
416.55	140.43
416.74	168.52
416.93	133.41
417.12	93.62
417.31	133.41
417.50	135.75
417.69	173.20
417.88	280.86
418.07	252.78
418.26	210.65
418.45	198.95
418.64	210.65
418.83	262.14
419.02	203.63
419.21	220.01
419.39	201.29
419.58	184.90
419.77	152.13
419.96	173.20
420.15	229.37
420.34	154.48
420.53	170.86
420.72	163.84
420.91	187.24
421.10	161.50
421.29	154.48
421.48	182.56
421.67	215.33
421.86	135.75
422.05	117.03
422.24	154.48
422.43	159.16
422.61	100.64
422.80	241.08
422.99	189.58
423.18	128.73
423.37	180.22
423.56	166.18
423.75	227.03
423.94	191.92
424.13	142.77
424.32	194.26
424.50	145.11
424.69	248.10
424.88	266.82
425.07	163.84
425.26	205.97
425.45	182.56
425.64	170.86
425.83	180.22
426.01	236.39
426.20	243.42
426.39	175.54
426.58	161.50
426.77	149.79
426.96	189.58
427.15	234.05
427.33	175.54
427.52	79.58
427.71	184.90
427.90	163.84
428.09	166.18
428.28	175.54
428.46	117.03
428.65	152.13
428.84	238.73
429.03	196.60
429.22	159.16
429.40	95.96
429.59	77.24
429.78	159.16
429.97	77.24
430.16	201.29
430.34	140.43
430.53	117.03
430.72	88.94
430.91	236.39
431.10	198.95
431.28	184.90
431.47	180.22
431.66	147.45
431.85	156.82
432.03	194.26
432.22	252.78
432.41	224.69
432.60	236.39
432.79	198.95
432.97	166.18
433.16	278.52
433.35	224.69
433.54	208.31
433.72	196.60
433.91	191.92
434.10	168.52
434.28	177.88
434.47	196.60
434.66	173.20
434.85	131.07
435.03	222.35
435.22	344.06
435.41	493.85
435.59	498.53
435.78	372.15
435.97	236.39
436.16	222.35
436.34	184.90
436.53	180.22
436.72	154.48
436.90	194.26
437.09	163.84
437.28	159.16
437.46	248.10
437.65	180.22
437.84	196.60
438.02	210.65
438.21	149.79
438.40	175.54
438.58	177.88
438.77	194.26
438.96	182.56
439.14	177.88
439.33	252.78
439.52	194.26
439.70	124.05
439.89	236.39
440.08	210.65
440.26	149.79
440.45	234.05
440.63	196.60
440.82	180.22
441.01	205.97
441.19	184.90
441.38	124.05
441.57	191.92
441.75	234.05
441.94	222.35
442.12	212.99
442.31	215.33
442.50	166.18
442.68	173.20
442.87	166.18
443.05	194.26
443.24	131.07
443.43	149.79
443.61	159.16
443.80	255.12
443.98	142.77
444.17	161.50
444.35	159.16
444.54	170.86
444.73	107.66
444.91	147.45
445.10	119.37
445.28	147.45
445.47	180.22
445.65	255.12
445.84	191.92
446.02	119.37
446.21	91.28
446.39	135.75
446.58	191.92
446.77	133.41
446.95	138.09
447.14	182.56
447.32	229.37
447.51	229.37
447.69	198.95
447.88	126.39
448.06	196.60
448.25	198.95
448.43	140.43
448.62	187.24
448.80	243.42
448.99	203.63
449.17	168.52
449.36	170.86
449.54	175.54
449.73	161.50
449.91	203.63
450.10	210.65
450.28	198.95
450.46	220.01
450.65	133.41
450.83	212.99
451.02	255.12
451.20	133.41
451.39	152.13
451.57	124.05
451.76	198.95
451.94	147.45
452.13	163.84
452.31	182.56
452.49	189.58
452.68	168.52
452.86	175.54
453.05	208.31
453.23	189.58
453.42	107.66
453.60	201.29
453.78	161.50
453.97	156.82
454.15	194.26
454.34	212.99
454.52	117.03
454.70	227.03
454.89	215.33
455.07	257.46
455.26	177.88
455.44	243.42
455.62	205.97
455.81	189.58
455.99	236.39
456.17	175.54
456.36	135.75
456.54	220.01
456.73	224.69
456.91	126.39
457.09	189.58
457.28	173.20
457.46	159.16
457.64	215.33
457.83	217.67
458.01	203.63
458.19	220.01
458.38	184.90
458.56	205.97
458.74	245.76
458.93	191.92
459.11	215.33
459.29	203.63
459.48	184.90
459.66	250.44
459.84	149.79
460.03	285.55
460.21	105.32
460.39	135.75
460.57	278.52
460.76	222.35
460.94	170.86
461.12	175.54
461.31	145.11
461.49	229.37
461.67	88.94
461.85	175.54
462.04	208.31
462.22	620.24
462.40	215.33
462.59	166.18
462.77	217.67
462.95	255.12
463.13	224.69
463.32	243.42
463.50	147.45
463.68	170.86
463.86	163.84
464.05	238.73
464.23	215.33
464.41	217.67
464.59	191.92
464.78	133.41
464.96	159.16
465.14	215.33
465.32	145.11
465.50	217.67
465.69	252.78
465.87	205.97
466.05	276.18
466.23	222.35
466.41	163.84
466.60	166.18
466.78	149.79
466.96	220.01
467.14	161.50
467.32	177.88
467.51	166.18
467.69	170.86
467.87	266.82
468.05	201.29
468.23	250.44
468.41	234.05
468.60	161.50
468.78	189.58
468.96	229.37
469.14	177.88
469.32	231.71
469.50	203.63
469.69	166.18
469.87	180.22
470.05	128.73
470.23	163.84
470.41	163.84
470.59	147.45
470.77	257.46
470.95	177.88
471.14	248.10
471.32	121.71
471.50	201.29
471.68	241.08
471.86	161.50
472.04	234.05
472.22	224.69
472.40	180.22
472.58	102.98
472.77	212.99
472.95	208.31
473.13	243.42
473.31	262.14
473.49	189.58
473.67	145.11
473.85	208.31
474.03	224.69
474.21	245.76
474.39	276.18
474.57	147.45
474.75	191.92
474.93	182.56
475.12	252.78
475.30	182.56
475.48	241.08
475.66	170.86
475.84	177.88
476.02	152.13
476.20	205.97
476.38	131.07
476.56	234.05
476.74	152.13
476.92	220.01
477.10	212.99
477.28	255.12
477.46	248.10
477.64	220.01
477.82	140.43
478.00	177.88
478.18	241.08
478.36	163.84
478.54	187.24
478.72	220.01
478.90	236.39
479.08	234.05
479.26	138.09
479.44	177.88
479.62	203.63
479.80	224.69
479.98	147.45
480.16	250.44
480.34	241.08
480.52	273.84
480.70	245.76
480.88	238.73
481.06	212.99
481.24	212.99
481.41	215.33
481.59	224.69
481.77	189.58
481.95	234.05
482.13	241.08
482.31	201.29
482.49	229.37
482.67	189.58
482.85	278.52
483.03	201.29
483.21	250.44
483.39	182.56
483.57	205.97
483.74	236.39
483.92	217.67
484.10	170.86
484.28	208.31
484.46	308.95
484.64	205.97
484.82	210.65
485.00	238.73
485.18	271.50
485.35	227.03
485.53	236.39
485.71	285.55
485.89	212.99
486.07	161.50
486.25	257.46
486.43	241.08
486.61	231.71
486.78	299.59
486.96	238.73
487.14	278.52
487.32	262.14
487.50	205.97
487.68	276.18
487.85	212.99
488.03	306.61
488.21	269.16
488.39	299.59
488.57	294.91
488.75	276.18
488.92	505.56
489.10	308.95
489.28	311.29
489.46	208.31
489.64	276.18
489.81	325.33
489.99	294.91
490.17	191.92
490.35	330.02
490.53	250.44
490.70	292.57
490.88	229.37
491.06	220.01
491.24	337.04
491.41	266.82
491.59	241.08
491.77	245.76
491.95	205.97
492.13	135.75
492.30	227.03
492.48	212.99
492.66	262.14
492.84	250.44
493.01	280.86
493.19	297.25
493.37	395.55
493.54	259.80
493.72	276.18
493.90	259.80
494.08	273.84
494.25	241.08
494.43	205.97
494.61	271.50
494.79	229.37
494.96	301.93
495.14	227.03
495.32	257.46
495.49	236.39
495.67	294.91
495.85	196.60
496.02	280.86
496.20	278.52
496.38	229.37
496.55	250.44
496.73	271.50
496.91	273.84
497.09	301.93
497.26	189.58
497.44	224.69
497.62	198.95
497.79	262.14
497.97	255.12
498.14	285.55
498.32	266.82
498.50	257.46
498.67	308.95
498.85	250.44
499.03	241.08
499.20	280.86
499.38	245.76
499.56	322.99
499.73	259.80
499.91	308.95
500.08	280.86
500.26	161.50
500.44	168.52
500.61	210.65
500.79	290.23
500.97	222.35
501.14	306.61
501.32	205.97
501.49	266.82
501.67	259.80
501.84	269.16
502.02	198.95
502.20	271.50
502.37	245.76
502.55	255.12
502.72	248.10
502.90	271.50
503.07	334.70
503.25	301.93
503.43	236.39
503.60	299.59
503.78	301.93
503.95	210.65
504.13	238.73
504.30	337.04
504.48	287.89
504.65	362.78
504.83	271.50
505.01	257.46
505.18	191.92
505.36	222.35
505.53	212.99
505.71	259.80
505.88	243.42
506.06	182.56
506.23	257.46
506.41	203.63
506.58	285.55
506.76	290.23
506.93	280.86
507.11	285.55
507.28	238.73
507.46	255.12
507.63	266.82
507.81	194.26
507.98	266.82
508.16	255.12
508.33	280.86
508.50	194.26
508.68	313.63
508.85	278.52
509.03	327.68
509.20	259.80
509.38	315.97
509.55	189.58
509.73	257.46
509.90	227.03
510.08	234.05
510.25	311.29
510.42	241.08
510.60	278.52
510.77	304.27
510.95	276.18
511.12	262.14
511.30	285.55
511.47	320.65
511.64	339.38
511.82	234.05
511.99	259.80
512.17	227.03
512.34	187.24
512.51	313.63
512.69	208.31
512.86	245.76
513.04	273.84
513.21	245.76
513.38	248.10
513.56	163.84
513.73	236.39
513.90	212.99
514.08	255.12
514.25	241.08
514.43	276.18
514.60	212.99
514.77	182.56
514.95	210.65
515.12	252.78
515.29	273.84
515.47	236.39
515.64	252.78
515.81	266.82
515.99	297.25
516.16	344.06
516.33	182.56
516.51	297.25
516.68	266.82
516.85	194.26
517.03	241.08
517.20	236.39
517.37	238.73
517.54	271.50
517.72	220.01
517.89	175.54
518.06	255.12
518.24	266.82
518.41	257.46
518.58	259.80
518.75	257.46
518.93	266.82
519.10	245.76
519.27	145.11
519.45	264.48
519.62	264.48
519.79	290.23
519.96	250.44
520.14	175.54
520.31	266.82
520.48	257.46
520.65	257.46
520.83	248.10
521.00	215.33
521.17	287.89
521.34	173.20
521.52	285.55
521.69	231.71
521.86	205.97
522.03	330.02
522.20	198.95
522.38	215.33
522.55	245.76
522.72	327.68
522.89	299.59
523.07	353.42
523.24	252.78
523.41	306.61
523.58	234.05
523.75	234.05
523.92	308.95
524.10	238.73
524.27	259.80
524.44	264.48
524.61	248.10
524.78	255.12
524.96	245.76
525.13	271.50
525.30	266.82
525.47	330.02
525.64	250.44
525.81	234.05
525.98	280.86
526.16	227.03
526.33	264.48
526.50	236.39
526.67	229.37
526.84	201.29
527.01	212.99
527.18	252.78
527.36	243.42
527.53	238.73
527.70	290.23
527.87	262.14
528.04	269.16
528.21	257.46
528.38	276.18
528.55	283.20
528.72	339.38
528.89	320.65
529.07	210.65
529.24	264.48
529.41	306.61
529.58	325.33
529.75	276.18
529.92	212.99
530.09	276.18
530.26	301.93
530.43	248.10
530.60	285.55
530.77	264.48
530.94	358.10
531.11	255.12
531.28	255.12
531.46	285.55
531.63	283.20
531.80	320.65
531.97	224.69
532.14	269.16
532.31	273.84
532.48	330.02
532.65	306.61
532.82	290.23
532.99	330.02
533.16	372.15
533.33	337.04
533.50	280.86
533.67	308.95
533.84	327.68
534.01	367.46
534.18	304.27
534.35	346.40
534.52	325.33
534.69	294.91
534.86	311.29
535.03	231.71
535.20	252.78
535.37	243.42
535.54	245.76
535.71	255.12
535.88	325.33
536.05	292.57
536.22	301.93
536.38	234.05
536.55	231.71
536.72	304.27
536.89	393.21
537.06	390.87
537.23	285.55
537.40	252.78
537.57	227.03
537.74	353.42
537.91	353.42
538.08	297.25
538.25	292.57
538.42	294.91
538.59	304.27
538.75	330.02
538.92	330.02
539.09	339.38
539.26	322.99
539.43	491.51
539.60	753.65
539.77	938.55
539.94	1034.52
540.11	631.94
540.28	650.67
540.44	463.43
540.61	524.28
540.78	425.98
540.95	440.02
541.12	507.90
541.29	475.13
541.46	587.47
541.62	505.56
541.79	477.47
541.96	498.53
542.13	538.32
542.30	425.98
542.47	571.09
542.63	479.81
542.80	519.60
542.97	545.34
543.14	461.09
543.31	442.36
543.48	454.06
543.64	451.72
543.81	559.39
543.98	510.24
544.15	428.32
544.32	458.74
544.48	433.00
544.65	463.43
544.82	531.30
544.99	489.17
545.16	505.56
545.32	411.93
545.49	737.27
545.66	802.80
545.83	919.83
546.00	786.42
546.16	641.31
546.33	531.30
546.50	447.04
546.67	437.68
546.83	514.92
547.00	421.30
547.17	327.68
547.34	358.10
547.50	390.87
547.67	330.02
547.84	348.74
548.00	428.32
548.17	386.19
548.34	313.63
548.51	379.17
548.67	369.80
548.84	339.38
549.01	358.10
549.18	376.83
549.34	421.30
549.51	351.08
549.68	327.68
549.84	393.21
550.01	266.82
550.18	372.15
550.34	374.49
550.51	355.76
550.68	404.91
550.84	344.06
551.01	393.21
551.18	418.96
551.34	369.80
551.51	339.38
551.68	341.72
551.84	299.59
552.01	318.31
552.18	271.50
552.34	322.99
552.51	325.33
552.68	262.14
552.84	250.44
553.01	229.37
553.18	320.65
553.34	212.99
553.51	224.69
553.67	271.50
553.84	402.57
554.01	297.25
554.17	308.95
554.34	276.18
554.51	283.20
554.67	337.04
554.84	304.27
555.00	332.36
555.17	285.55
555.33	280.86
555.50	318.31
555.67	327.68
555.83	332.36
556.00	330.02
556.16	423.64
556.33	351.08
556.50	294.91
556.66	297.25
556.83	278.52
556.99	273.84
557.16	180.22
557.32	194.26
557.49	269.16
557.65	208.31
557.82	283.20
557.98	266.82
558.15	241.08
558.32	273.84
558.48	318.31
558.65	301.93
558.81	322.99
558.98	182.56
559.14	337.04
559.31	292.57
559.47	259.80
559.64	297.25
559.80	330.02
559.97	269.16
560.13	294.91
560.30	269.16
560.46	271.50
560.63	262.14
560.79	243.42
560.96	283.20
561.12	217.67
561.29	201.29
561.45	285.55
561.61	245.76
561.78	285.55
561.94	152.13
562.11	238.73
562.27	269.16
562.44	259.80
562.60	243.42
562.77	264.48
562.93	248.10
563.10	236.39
563.26	220.01
563.42	259.80
563.59	215.33
563.75	205.97
563.92	278.52
564.08	325.33
564.24	273.84
564.41	299.59
564.57	248.10
564.74	280.86
564.90	285.55
565.07	297.25
565.23	245.76
565.39	313.63
565.56	264.48
565.72	255.12
565.88	341.72
566.05	227.03
566.21	301.93
566.38	327.68
566.54	245.76
566.70	210.65
566.87	243.42
567.03	229.37
567.19	252.78
567.36	264.48
567.52	212.99
567.68	280.86
567.85	262.14
568.01	266.82
568.17	182.56
568.34	191.92
568.50	334.70
568.66	285.55
568.83	294.91
568.99	255.12
569.15	231.71
569.32	292.57
569.48	217.67
569.64	245.76
569.81	224.69
569.97	212.99
570.13	341.72
570.30	198.95
570.46	283.20
570.62	276.18
570.78	276.18
570.95	292.57
571.11	332.36
571.27	276.18
571.43	238.73
571.60	241.08
571.76	203.63
571.92	341.72
572.09	337.04
572.25	297.25
572.41	208.31
572.57	287.89
572.74	304.27
572.90	245.76
573.06	243.42
573.22	250.44
573.38	308.95
573.55	297.25
573.71	259.80
573.87	285.55
574.03	198.95
574.20	231.71
574.36	250.44
574.52	308.95
574.68	283.20
574.84	313.63
575.01	222.35
575.17	313.63
575.33	255.12
575.49	259.80
575.65	351.08
575.82	348.74
575.98	507.90
576.14	458.74
576.30	454.06
576.46	440.02
576.62	472.79
576.79	465.77
576.95	341.72
577.11	299.59
577.27	217.67
577.43	308.95
577.59	299.59
577.75	306.61
577.92	259.80
578.08	236.39
578.24	266.82
578.40	285.55
578.56	383.85
578.72	337.04
578.88	421.30
579.04	369.80
579.21	325.33
579.37	339.38
579.53	383.85
579.69	306.61
579.85	374.49
580.01	348.74
580.17	320.65
580.33	393.21
580.49	404.91
580.65	339.38
580.82	304.27
580.98	374.49
581.14	320.65
581.30	383.85
581.46	395.55
581.62	479.81
581.78	498.53
581.94	514.92
582.10	386.19
582.26	404.91
582.42	390.87
582.58	409.59
582.74	379.17
582.90	259.80
583.06	456.40
583.22	416.62
583.38	362.78
583.54	496.19
583.70	528.96
583.86	514.92
584.02	575.77
584.18	702.16
584.34	805.14
584.50	1856.04
584.66	12549.95
584.82	32018.53
584.98	42054.75
585.14	36573.21
585.30	22721.92
585.46	14005.77
585.62	8681.05
585.78	4081.89
585.94	1806.89
586.10	959.62
586.26	692.80
586.42	610.88
586.58	524.28
586.74	498.53
586.90	554.71
587.06	458.74
587.22	416.62
587.38	496.19
587.54	866.00
587.70	2064.35
587.86	2995.89
588.02	3084.83
588.18	2223.51
588.34	1387.94
588.49	1083.67
588.65	713.86
588.81	498.53
588.97	374.49
589.13	341.72
589.29	276.18
589.45	311.29
589.61	292.57
589.77	383.85
589.93	407.25
590.08	418.96
590.24	369.80
590.40	369.80
590.56	344.06
590.72	358.10
590.88	255.12
591.04	315.97
591.20	344.06
591.35	262.14
591.51	362.78
591.67	358.10
591.83	257.46
591.99	341.72
592.15	421.30
592.31	358.10
592.46	339.38
592.62	330.02
592.78	271.50
592.94	339.38
593.10	290.23
593.26	276.18
593.41	414.27
593.57	381.51
593.73	470.45
593.89	1785.83
594.05	3988.27
594.20	5397.28
594.36	4887.04
594.52	3353.99
594.68	2211.81
594.84	1448.79
594.99	929.19
595.15	578.11
595.31	454.06
595.47	334.70
595.62	224.69
595.78	264.48
595.94	287.89
596.10	367.46
596.25	320.65
596.41	358.10
596.57	224.69
596.73	325.33
596.88	325.33
597.04	873.02
597.20	1221.76
597.36	1514.33
597.51	1144.52
597.67	739.61
597.83	650.67
597.99	543.00
598.14	344.06
598.30	411.93
598.46	266.82
598.61	276.18
598.77	372.15
598.93	351.08
599.09	290.23
599.24	325.33
599.40	346.40
599.56	306.61
599.71	299.59
599.87	290.23
600.03	332.36
600.18	271.50
600.34	290.23
600.50	245.76
600.65	201.29
600.81	294.91
600.97	262.14
601.12	241.08
601.28	264.48
601.44	273.84
601.59	318.31
601.75	294.91
601.91	292.57
602.06	276.18
602.22	407.25
602.37	528.96
602.53	1081.33
602.69	1476.88
602.84	1385.60
603.00	1118.78
603.16	786.42
603.31	608.54
603.47	430.66
603.62	381.51
603.78	285.55
603.94	325.33
604.09	264.48
604.25	308.95
604.40	318.31
604.56	250.44
604.71	294.91
604.87	273.84
605.03	344.06
605.18	287.89
605.34	299.59
605.49	285.55
605.65	362.78
605.80	334.70
605.96	358.10
606.12	365.12
606.27	339.38
606.43	325.33
606.58	381.51
606.74	538.32
606.89	1984.77
607.05	3541.23
607.20	4402.55
607.36	3733.15
607.51	2541.82
607.67	1776.47
607.82	1217.08
607.98	807.48
608.13	482.15
608.29	388.53
608.44	376.83
608.60	461.09
608.75	423.64
608.91	854.30
609.06	3096.53
609.22	6050.28
609.37	7660.57
609.53	6801.60
609.68	4716.18
609.84	3194.83
609.99	2228.19
610.15	1373.89
610.30	866.00
610.46	746.63
610.61	737.27
610.76	816.85
610.92	929.19
611.07	940.90
611.23	992.39
611.38	968.98
611.54	952.60
611.69	781.74
611.84	627.26
612.00	538.32
612.15	538.32
612.31	613.22
612.46	617.90
612.62	667.05
612.77	606.20
612.92	629.60
613.08	629.60
613.23	543.00
613.39	514.92
613.54	692.80
613.69	2813.32
613.85	7466.31
614.00	11248.61
614.15	11709.70
614.31	8425.93
614.46	5771.76
614.62	3948.48
614.77	2581.61
614.92	1284.95
615.08	676.41
615.23	578.11
615.38	449.38
615.54	437.68
615.69	765.36
615.84	1631.35
616.00	2778.22
616.15	3194.83
616.30	2605.02
616.46	1952.01
616.61	1399.64
616.76	976.00
616.92	629.60
617.07	407.25
617.22	388.53
617.37	320.65
617.53	301.93
617.68	330.02
617.83	388.53
617.99	402.57
618.14	332.36
618.29	334.70
618.45	346.40
618.60	273.84
618.75	351.08
618.90	278.52
619.06	273.84
619.21	325.33
619.36	372.15
619.51	322.99
619.67	220.01
619.82	337.04
619.97	252.78
620.12	278.52
620.28	285.55
620.43	311.29
620.58	344.06
620.73	322.99
620.89	294.91
621.04	447.04
621.19	968.98
621.34	1596.25
621.49	1989.46
621.65	1783.49
621.80	1277.93
621.95	1006.43
622.10	786.42
622.25	463.43
622.41	369.80
622.56	351.08
622.71	330.02
622.86	339.38
623.01	308.95
623.16	318.31
623.32	220.01
623.47	241.08
623.62	271.50
623.77	243.42
623.92	337.04
624.07	245.76
624.23	231.71
624.38	266.82
624.53	301.93
624.68	304.27
624.83	369.80
624.98	292.57
625.13	259.80
625.29	224.69
625.44	339.38
625.59	348.74
625.74	353.42
625.89	517.26
626.04	1418.36
626.19	3810.39
626.34	5607.92
626.49	6010.50
626.65	4477.44
626.80	3227.60
626.95	2279.68
627.10	1446.45
627.25	763.01
627.40	507.90
627.55	372.15
627.70	205.97
627.85	306.61
628.00	318.31
628.15	362.78
628.30	250.44
628.45	287.89
628.60	290.23
628.76	266.82
628.91	236.39
629.06	234.05
629.21	287.89
629.36	252.78
629.51	236.39
629.66	257.46
629.81	348.74
629.96	943.24
630.11	1373.89
630.26	1739.02
630.41	1617.31
630.56	1217.08
630.71	851.96
630.86	772.38
631.01	510.24
631.16	372.15
631.31	379.17
631.46	320.65
631.61	332.36
631.76	344.06
631.91	351.08
632.06	252.78
632.21	271.50
632.36	252.78
632.51	318.31
632.66	348.74
632.81	653.01
632.96	2125.21
633.10	3550.59
633.25	4278.50
633.40	3517.83
633.55	2469.27
633.70	1654.76
633.85	1191.33
634.00	812.17
634.15	447.04
634.30	243.42
634.45	264.48
634.60	241.08
634.75	236.39
634.90	334.70
635.05	287.89
635.19	248.10
635.34	210.65
635.49	269.16
635.64	248.10
635.79	262.14
635.94	299.59
636.09	318.31
636.24	161.50
636.39	231.71
636.53	273.84
636.68	271.50
636.83	280.86
636.98	241.08
637.13	287.89
637.28	271.50
637.43	486.83
637.57	461.09
637.72	1860.73
637.87	4657.67
638.02	7204.17
638.17	7611.42
638.32	5713.25
638.46	4112.32
638.61	2860.13
638.76	1703.91
638.91	903.45
639.06	503.22
639.20	409.59
639.35	414.27
639.50	664.71
639.65	2754.81
639.80	7208.85
639.94	10932.64
640.09	11620.76
640.24	8985.32
640.39	6078.37
640.54	4065.51
640.68	2513.74
640.83	1299.00
640.98	610.88
641.13	521.94
641.27	374.49
641.42	297.25
641.57	292.57
641.72	194.26
641.86	234.05
642.01	262.14
642.16	250.44
642.31	189.58
642.45	238.73
642.60	320.65
642.75	210.65
642.90	217.67
643.04	208.31
643.19	259.80
643.34	182.56
643.48	215.33
643.63	201.29
643.78	283.20
643.93	285.55
644.07	243.42
644.22	229.37
644.37	229.37
644.51	269.16
644.66	266.82
644.81	273.84
644.95	255.12
645.10	182.56
645.25	278.52
645.39	234.05
645.54	250.44
645.69	236.39
645.83	203.63
645.98	210.65
646.13	135.75
646.27	215.33
646.42	212.99
646.57	220.01
646.71	234.05
646.86	184.90
647.00	257.46
647.15	248.10
647.30	205.97
647.44	208.31
647.59	173.20
647.74	154.48
647.88	236.39
648.03	241.08
648.17	236.39
648.32	175.54
648.47	252.78
648.61	276.18
648.76	227.03
648.90	290.23
649.05	238.73
649.20	180.22
649.34	262.14
649.49	285.55
649.63	229.37
649.78	351.08
649.92	306.61
650.07	1121.12
650.21	3304.84
650.36	5088.32
650.51	5942.62
650.65	4924.49
650.80	3604.42
650.94	2544.16
651.09	1659.44
651.23	858.98
651.38	526.62
651.52	362.78
651.67	220.01
651.81	271.50
651.96	285.55
652.10	294.91
652.25	264.48
652.39	269.16
652.54	245.76
652.68	404.91
652.83	1137.50
652.97	1837.32
653.12	2300.75
653.26	2017.54
653.41	1544.75
653.55	1043.88
653.70	629.60
653.84	559.39
653.99	360.44
654.13	262.14
654.27	297.25
654.42	234.05
654.56	191.92
654.71	248.10
654.85	184.90
655.00	203.63
655.14	177.88
655.29	194.26
655.43	250.44
655.57	203.63
655.72	201.29
655.86	243.42
656.01	238.73
656.15	187.24
656.30	187.24
656.44	187.24
656.58	159.16
656.73	149.79
656.87	187.24
657.01	212.99
657.16	285.55
657.30	236.39
657.45	337.04
657.59	220.01
657.73	248.10
657.88	215.33
658.02	280.86
658.16	191.92
658.31	191.92
658.45	224.69
658.60	198.95
658.74	220.01
658.88	222.35
659.03	222.35
659.17	290.23
659.31	547.69
659.46	1455.81
659.60	2572.25
659.74	3148.02
659.89	2841.41
660.03	2174.36
660.17	1390.28
660.32	987.71
660.46	599.18
660.60	367.46
660.74	360.44
660.89	304.27
661.03	222.35
661.17	224.69
661.32	196.60
661.46	271.50
661.60	215.33
661.74	198.95
661.89	257.46
662.03	294.91
662.17	191.92
662.31	191.92
662.46	318.31
662.60	138.09
662.74	222.35
662.88	231.71
663.03	287.89
663.17	149.79
663.31	220.01
663.45	210.65
663.60	227.03
663.74	159.16
663.88	187.24
664.02	184.90
664.17	257.46
664.31	255.12
664.45	273.84
664.59	210.65
664.73	163.84
664.88	173.20
665.02	201.29
665.16	234.05
665.30	248.10
665.44	290.23
665.59	149.79
665.73	278.52
665.87	264.48
666.01	273.84
666.15	205.97
666.29	210.65
666.44	217.67
666.58	264.48
666.72	283.20
666.86	273.84
667.00	285.55
667.14	311.29
667.28	1013.45
667.43	2686.94
667.57	4393.19
667.71	5200.67
667.85	4526.60
667.99	3356.33
668.13	2267.98
668.27	1313.04
668.41	720.88
668.56	580.45
668.70	418.96
668.84	386.19
668.98	248.10
669.12	224.69
669.26	208.31
669.40	360.44
669.54	236.39
669.68	294.91
669.82	100.64
669.96	173.20
670.10	236.39
670.25	234.05
670.39	278.52
670.53	110.01
670.67	241.08
670.81	173.20
670.95	283.20
671.09	381.51
671.23	1093.03
671.37	2244.57
671.51	3080.14
671.65	3391.44
671.79	2623.74
671.93	1919.24
672.07	1214.74
672.21	730.25
672.35	463.43
672.49	402.57
672.63	339.38
672.77	250.44
672.91	222.35
673.05	236.39
673.19	220.01
673.33	210.65
673.47	236.39
673.61	231.71
673.75	313.63
673.89	173.20
674.03	203.63
674.17	276.18
674.31	238.73
674.45	210.65
674.59	257.46
674.73	210.65
674.87	227.03
675.01	215.33
675.15	227.03
675.29	297.25
675.43	212.99
675.56	250.44
675.70	283.20
675.84	182.56
675.98	217.67
676.12	184.90
676.26	191.92
676.40	140.43
676.54	147.45
676.68	208.31
676.82	217.67
676.96	140.43
677.10	205.97
677.23	170.86
677.37	205.97
677.51	196.60
677.65	238.73
677.79	161.50
677.93	245.76
678.07	152.13
678.21	161.50
678.34	173.20
678.48	159.16
678.62	245.76
678.76	224.69
678.90	152.13
679.04	147.45
679.18	131.07
679.31	107.66
679.45	243.42
679.59	187.24
679.73	269.16
679.87	191.92
680.00	138.09
680.14	201.29
680.28	201.29
680.42	212.99
680.56	205.97
680.70	119.37
680.83	215.33
680.97	220.01
681.11	180.22
681.25	283.20
681.39	229.37
681.52	276.18
681.66	173.20
681.80	215.33
681.94	238.73
682.07	210.65
682.21	159.16
682.35	142.77
682.49	222.35
682.62	114.69
682.76	189.58
682.90	166.18
683.04	201.29
683.17	224.69
683.31	229.37
683.45	161.50
683.59	217.67
683.72	147.45
683.86	180.22
684.00	112.35
684.13	194.26
684.27	156.82
684.41	217.67
684.55	196.60
684.68	201.29
684.82	175.54
684.96	182.56
685.09	194.26
685.23	95.96
685.37	117.03
685.50	248.10
685.64	217.67
685.78	119.37
685.91	173.20
686.05	212.99
686.19	161.50
686.32	201.29
686.46	203.63
686.60	170.86
686.73	201.29
686.87	236.39
687.01	234.05
687.14	189.58
687.28	189.58
687.42	205.97
687.55	170.86
687.69	173.20
687.82	112.35
687.96	135.75
688.10	161.50
688.23	227.03
688.37	173.20
688.50	236.39
688.64	236.39
688.78	182.56
688.91	142.77
689.05	102.98
689.18	86.60
689.32	156.82
689.46	152.13
689.59	220.01
689.73	241.08
689.86	166.18
690.00	180.22
690.13	156.82
690.27	156.82
690.41	119.37
690.54	191.92
690.68	184.90
690.81	140.43
690.95	177.88
691.08	170.86
691.22	149.79
691.35	257.46
691.49	128.73
691.62	170.86
691.76	184.90
691.89	147.45
692.03	210.65
692.16	145.11
692.30	201.29
692.43	381.51
692.57	1135.16
692.70	1867.75
692.84	2216.49
692.97	2085.42
693.11	1682.85
693.24	1207.72
693.38	800.46
693.51	653.01
693.65	493.85
693.78	320.65
693.92	315.97
694.05	182.56
694.19	212.99
694.32	205.97
694.45	212.99
694.59	170.86
694.72	180.22
694.86	177.88
694.99	133.41
695.13	170.86
695.26	149.79
695.39	212.99
695.53	248.10
695.66	194.26
695.80	198.95
695.93	173.20
696.07	170.86
696.20	325.33
696.33	241.08
696.47	271.50
696.60	287.89
696.73	285.55
696.87	262.14
697.00	271.50
697.14	198.95
697.27	112.35
697.40	252.78
697.54	70.22
697.67	175.54
697.80	168.52
697.94	168.52
698.07	154.48
698.21	231.71
698.34	238.73
698.47	189.58
698.61	147.45
698.74	180.22
698.87	203.63
699.01	208.31
699.14	117.03
699.27	152.13
699.40	304.27
699.54	198.95
699.67	147.45
699.80	170.86
699.94	189.58
700.07	124.05
700.20	154.48
700.34	212.99
700.47	161.50
700.60	187.24
700.73	180.22
700.87	133.41
701.00	173.20
701.13	205.97
701.26	175.54
701.40	140.43
701.53	138.09
701.66	159.16
701.79	243.42
701.93	159.16
702.06	241.08
702.19	264.48
702.32	264.48
702.46	297.25
702.59	334.70
702.72	521.94
702.85	1600.93
702.99	2874.18
703.12	4011.68
703.25	4372.12
703.38	3716.77
703.51	3054.40
703.65	2218.83
703.78	1621.99
703.91	1160.91
704.04	774.72
704.17	517.26
704.31	308.95
704.44	297.25
704.57	287.89
704.70	201.29
704.83	159.16
704.96	227.03
705.10	177.88
705.23	166.18
>>>>>End Processed Spectral Data<<<<<
