SpectraSuite Data File
++++++++++++++++++++++++++++++++++++
Date: Fri Oct 04 11:34:03 GMT-05:00 2013
User: price-jones
Dark Spectrum Present: No
Reference Spectrum Present: No
Number of Sampled Component Spectra: 1
Spectrometers: USB2+H05261
Integration Time (usec): 100000 (USB2+H05261)
Spectra Averaged: 1 (USB2+H05261)
Boxcar Smoothing: 0 (USB2+H05261)
Correct for Electrical Dark: No (USB2+H05261)
Strobe/Lamp Enabled: No (USB2+H05261)
Correct for Detector Non-linearity: No (USB2+H05261)
Correct for Stray Light: No (USB2+H05261)
Number of Pixels in Processed Spectrum: 2048
>>>>>Begin Processed Spectral Data<<<<<
365.73	60.85
365.92	60.85
366.12	60.85
366.32	23.41
366.52	0.00
366.72	0.00
366.91	0.00
367.11	7.02
367.31	23.41
367.51	0.00
367.70	0.00
367.90	0.00
368.10	0.00
368.30	32.77
368.49	0.00
368.69	0.00
368.89	0.00
369.09	0.00
369.28	18.72
369.48	60.85
369.68	11.70
369.87	37.45
370.07	16.38
370.27	79.58
370.47	79.58
370.66	25.75
370.86	124.05
371.06	105.32
371.25	98.30
371.45	60.85
371.65	44.47
371.84	95.96
372.04	112.35
372.24	145.11
372.44	86.60
372.63	161.50
372.83	182.56
373.03	117.03
373.22	100.64
373.42	156.82
373.62	107.66
373.81	156.82
374.01	147.45
374.21	187.24
374.40	276.18
374.60	194.26
374.79	128.73
374.99	70.22
375.19	189.58
375.38	145.11
375.58	217.67
375.78	121.71
375.97	138.09
376.17	170.86
376.37	161.50
376.56	161.50
376.76	119.37
376.95	147.45
377.15	180.22
377.35	191.92
377.54	124.05
377.74	107.66
377.93	117.03
378.13	168.52
378.33	163.84
378.52	117.03
378.72	212.99
378.91	126.39
379.11	198.95
379.31	161.50
379.50	114.69
379.70	142.77
379.89	131.07
380.09	145.11
380.28	138.09
380.48	91.28
380.68	231.71
380.87	138.09
381.07	191.92
381.26	182.56
381.46	135.75
381.65	91.28
381.85	184.90
382.04	110.01
382.24	124.05
382.43	126.39
382.63	84.26
382.83	147.45
383.02	128.73
383.22	138.09
383.41	93.62
383.61	131.07
383.80	112.35
384.00	161.50
384.19	159.16
384.39	168.52
384.58	133.41
384.78	149.79
384.97	102.98
385.17	93.62
385.36	133.41
385.56	121.71
385.75	117.03
385.95	107.66
386.14	142.77
386.34	166.18
386.53	149.79
386.72	177.88
386.92	145.11
387.11	124.05
387.31	205.97
387.50	126.39
387.70	145.11
387.89	98.30
388.09	117.03
388.28	168.52
388.48	147.45
388.67	231.71
388.86	156.82
389.06	142.77
389.25	124.05
389.45	215.33
389.64	156.82
389.84	212.99
390.03	124.05
390.22	140.43
390.42	102.98
390.61	149.79
390.81	140.43
391.00	159.16
391.19	145.11
391.39	145.11
391.58	175.54
391.78	140.43
391.97	81.92
392.16	102.98
392.36	173.20
392.55	142.77
392.75	156.82
392.94	110.01
393.13	203.63
393.33	112.35
393.52	37.45
393.71	180.22
393.91	135.75
394.10	163.84
394.29	175.54
394.49	149.79
394.68	180.22
394.88	201.29
395.07	149.79
395.26	114.69
395.46	149.79
395.65	212.99
395.84	112.35
396.04	205.97
396.23	128.73
396.42	138.09
396.62	145.11
396.81	168.52
397.00	95.96
397.19	135.75
397.39	95.96
397.58	147.45
397.77	156.82
397.97	205.97
398.16	163.84
398.35	208.31
398.55	91.28
398.74	149.79
398.93	142.77
399.12	168.52
399.32	147.45
399.51	147.45
399.70	205.97
399.90	140.43
400.09	159.16
400.28	180.22
400.47	166.18
400.67	198.95
400.86	138.09
401.05	156.82
401.24	208.31
401.44	147.45
401.63	110.01
401.82	259.80
402.01	124.05
402.21	168.52
402.40	131.07
402.59	210.65
402.78	163.84
402.97	142.77
403.17	105.32
403.36	173.20
403.55	205.97
403.74	147.45
403.93	177.88
404.13	241.08
404.32	264.48
404.51	205.97
404.70	217.67
404.89	170.86
405.09	191.92
405.28	189.58
405.47	124.05
405.66	173.20
405.85	198.95
406.05	70.22
406.24	184.90
406.43	112.35
406.62	152.13
406.81	201.29
407.00	112.35
407.20	131.07
407.39	154.48
407.58	121.71
407.77	102.98
407.96	170.86
408.15	231.71
408.34	220.01
408.54	67.88
408.73	205.97
408.92	173.20
409.11	88.94
409.30	191.92
409.49	142.77
409.68	166.18
409.87	175.54
410.07	168.52
410.26	112.35
410.45	112.35
410.64	138.09
410.83	180.22
411.02	208.31
411.21	133.41
411.40	180.22
411.59	205.97
411.78	110.01
411.98	173.20
412.17	117.03
412.36	131.07
412.55	142.77
412.74	121.71
412.93	112.35
413.12	168.52
413.31	196.60
413.50	149.79
413.69	110.01
413.88	175.54
414.07	173.20
414.26	140.43
414.45	86.60
414.64	198.95
414.83	156.82
415.02	170.86
415.22	205.97
415.41	203.63
415.60	170.86
415.79	180.22
415.98	236.39
416.17	241.08
416.36	177.88
416.55	149.79
416.74	140.43
416.93	180.22
417.12	131.07
417.31	212.99
417.50	124.05
417.69	271.50
417.88	156.82
418.07	215.33
418.26	147.45
418.45	177.88
418.64	198.95
418.83	252.78
419.02	154.48
419.21	154.48
419.39	227.03
419.58	252.78
419.77	234.05
419.96	182.56
420.15	215.33
420.34	175.54
420.53	121.71
420.72	152.13
420.91	168.52
421.10	166.18
421.29	245.76
421.48	175.54
421.67	159.16
421.86	227.03
422.05	147.45
422.24	215.33
422.43	147.45
422.61	168.52
422.80	208.31
422.99	105.32
423.18	133.41
423.37	135.75
423.56	114.69
423.75	133.41
423.94	187.24
424.13	182.56
424.32	224.69
424.50	163.84
424.69	133.41
424.88	149.79
425.07	86.60
425.26	156.82
425.45	180.22
425.64	271.50
425.83	294.91
426.01	224.69
426.20	189.58
426.39	173.20
426.58	182.56
426.77	114.69
426.96	304.27
427.15	208.31
427.33	121.71
427.52	121.71
427.71	182.56
427.90	189.58
428.09	187.24
428.28	163.84
428.46	177.88
428.65	208.31
428.84	166.18
429.03	156.82
429.22	168.52
429.40	112.35
429.59	163.84
429.78	234.05
429.97	161.50
430.16	191.92
430.34	224.69
430.53	189.58
430.72	110.01
430.91	184.90
431.10	149.79
431.28	184.90
431.47	194.26
431.66	161.50
431.85	168.52
432.03	133.41
432.22	231.71
432.41	126.39
432.60	271.50
432.79	217.67
432.97	276.18
433.16	278.52
433.35	238.73
433.54	280.86
433.72	131.07
433.91	231.71
434.10	231.71
434.28	217.67
434.47	210.65
434.66	227.03
434.85	220.01
435.03	306.61
435.22	407.25
435.41	491.51
435.59	472.79
435.78	379.17
435.97	292.57
436.16	255.12
436.34	114.69
436.53	210.65
436.72	208.31
436.90	224.69
437.09	166.18
437.28	215.33
437.46	166.18
437.65	203.63
437.84	159.16
438.02	203.63
438.21	128.73
438.40	163.84
438.58	201.29
438.77	187.24
438.96	107.66
439.14	133.41
439.33	220.01
439.52	152.13
439.70	231.71
439.89	177.88
440.08	117.03
440.26	203.63
440.45	180.22
440.63	196.60
440.82	196.60
441.01	187.24
441.19	220.01
441.38	215.33
441.57	138.09
441.75	159.16
441.94	238.73
442.12	145.11
442.31	126.39
442.50	128.73
442.68	135.75
442.87	175.54
443.05	147.45
443.24	198.95
443.43	231.71
443.61	238.73
443.80	203.63
443.98	128.73
444.17	177.88
444.35	250.44
444.54	170.86
444.73	203.63
444.91	231.71
445.10	128.73
445.28	156.82
445.47	184.90
445.65	131.07
445.84	133.41
446.02	166.18
446.21	191.92
446.39	201.29
446.58	194.26
446.77	201.29
446.95	212.99
447.14	266.82
447.32	210.65
447.51	140.43
447.69	173.20
447.88	168.52
448.06	170.86
448.25	257.46
448.43	250.44
448.62	147.45
448.80	173.20
448.99	163.84
449.17	191.92
449.36	266.82
449.54	248.10
449.73	198.95
449.91	241.08
450.10	220.01
450.28	245.76
450.46	231.71
450.65	299.59
450.83	154.48
451.02	220.01
451.20	168.52
451.39	180.22
451.57	252.78
451.76	180.22
451.94	177.88
452.13	231.71
452.31	203.63
452.49	156.82
452.68	182.56
452.86	110.01
453.05	161.50
453.23	177.88
453.42	217.67
453.60	264.48
453.78	198.95
453.97	175.54
454.15	266.82
454.34	224.69
454.52	173.20
454.70	126.39
454.89	243.42
455.07	175.54
455.26	255.12
455.44	156.82
455.62	173.20
455.81	194.26
455.99	198.95
456.17	257.46
456.36	196.60
456.54	175.54
456.73	175.54
456.91	135.75
457.09	189.58
457.28	229.37
457.46	201.29
457.64	154.48
457.83	128.73
458.01	154.48
458.19	177.88
458.38	229.37
458.56	208.31
458.74	187.24
458.93	159.16
459.11	163.84
459.29	208.31
459.48	222.35
459.66	252.78
459.84	149.79
460.03	344.06
460.21	156.82
460.39	156.82
460.57	243.42
460.76	102.98
460.94	159.16
461.12	215.33
461.31	194.26
461.49	184.90
461.67	173.20
461.85	215.33
462.04	191.92
462.22	627.26
462.40	191.92
462.59	210.65
462.77	241.08
462.95	161.50
463.13	203.63
463.32	159.16
463.50	231.71
463.68	201.29
463.86	262.14
464.05	241.08
464.23	191.92
464.41	276.18
464.59	86.60
464.78	278.52
464.96	147.45
465.14	124.05
465.32	224.69
465.50	231.71
465.69	217.67
465.87	147.45
466.05	255.12
466.23	212.99
466.41	154.48
466.60	241.08
466.78	168.52
466.96	175.54
467.14	205.97
467.32	210.65
467.51	191.92
467.69	161.50
467.87	177.88
468.05	156.82
468.23	278.52
468.41	210.65
468.60	222.35
468.78	241.08
468.96	255.12
469.14	229.37
469.32	152.13
469.50	241.08
469.69	222.35
469.87	189.58
470.05	175.54
470.23	177.88
470.41	177.88
470.59	173.20
470.77	210.65
470.95	182.56
471.14	187.24
471.32	140.43
471.50	210.65
471.68	187.24
471.86	248.10
472.04	222.35
472.22	248.10
472.40	191.92
472.58	201.29
472.77	196.60
472.95	173.20
473.13	147.45
473.31	168.52
473.49	224.69
473.67	140.43
473.85	187.24
474.03	182.56
474.21	231.71
474.39	194.26
474.57	203.63
474.75	175.54
474.93	201.29
475.12	133.41
475.30	187.24
475.48	229.37
475.66	156.82
475.84	163.84
476.02	149.79
476.20	184.90
476.38	173.20
476.56	297.25
476.74	241.08
476.92	234.05
477.10	189.58
477.28	297.25
477.46	182.56
477.64	210.65
477.82	234.05
478.00	187.24
478.18	236.39
478.36	189.58
478.54	196.60
478.72	222.35
478.90	259.80
479.08	210.65
479.26	280.86
479.44	184.90
479.62	229.37
479.80	140.43
479.98	198.95
480.16	187.24
480.34	234.05
480.52	271.50
480.70	198.95
480.88	163.84
481.06	133.41
481.24	234.05
481.41	208.31
481.59	208.31
481.77	229.37
481.95	250.44
482.13	280.86
482.31	231.71
482.49	198.95
482.67	215.33
482.85	264.48
483.03	262.14
483.21	189.58
483.39	283.20
483.57	243.42
483.74	198.95
483.92	280.86
484.10	166.18
484.28	304.27
484.46	334.70
484.64	252.78
484.82	234.05
485.00	182.56
485.18	245.76
485.35	294.91
485.53	182.56
485.71	301.93
485.89	215.33
486.07	212.99
486.25	348.74
486.43	238.73
486.61	337.04
486.78	241.08
486.96	252.78
487.14	201.29
487.32	311.29
487.50	308.95
487.68	301.93
487.85	280.86
488.03	266.82
488.21	222.35
488.39	191.92
488.57	285.55
488.75	285.55
488.92	531.30
489.10	196.60
489.28	308.95
489.46	175.54
489.64	245.76
489.81	220.01
489.99	262.14
490.17	262.14
490.35	318.31
490.53	315.97
490.70	283.20
490.88	236.39
491.06	224.69
491.24	217.67
491.41	280.86
491.59	264.48
491.77	180.22
491.95	177.88
492.13	252.78
492.30	203.63
492.48	245.76
492.66	276.18
492.84	201.29
493.01	224.69
493.19	220.01
493.37	313.63
493.54	292.57
493.72	229.37
493.90	252.78
494.08	318.31
494.25	229.37
494.43	344.06
494.61	212.99
494.79	238.73
494.96	227.03
495.14	217.67
495.32	224.69
495.49	255.12
495.67	276.18
495.85	241.08
496.02	248.10
496.20	278.52
496.38	229.37
496.55	231.71
496.73	320.65
496.91	205.97
497.09	255.12
497.26	229.37
497.44	266.82
497.62	285.55
497.79	236.39
497.97	222.35
498.14	283.20
498.32	248.10
498.50	224.69
498.67	250.44
498.85	259.80
499.03	285.55
499.20	280.86
499.38	292.57
499.56	297.25
499.73	304.27
499.91	243.42
500.08	255.12
500.26	294.91
500.44	173.20
500.61	222.35
500.79	245.76
500.97	215.33
501.14	257.46
501.32	252.78
501.49	278.52
501.67	243.42
501.84	290.23
502.02	224.69
502.20	273.84
502.37	278.52
502.55	306.61
502.72	297.25
502.90	250.44
503.07	250.44
503.25	337.04
503.43	236.39
503.60	358.10
503.78	348.74
503.95	250.44
504.13	175.54
504.30	252.78
504.48	273.84
504.65	236.39
504.83	236.39
505.01	245.76
505.18	273.84
505.36	201.29
505.53	212.99
505.71	283.20
505.88	287.89
506.06	266.82
506.23	334.70
506.41	278.52
506.58	180.22
506.76	245.76
506.93	250.44
507.11	294.91
507.28	187.24
507.46	215.33
507.63	315.97
507.81	231.71
507.98	285.55
508.16	320.65
508.33	297.25
508.50	313.63
508.68	220.01
508.85	271.50
509.03	308.95
509.20	222.35
509.38	248.10
509.55	297.25
509.73	308.95
509.90	313.63
510.08	257.46
510.25	280.86
510.42	217.67
510.60	283.20
510.77	294.91
510.95	259.80
511.12	252.78
511.30	271.50
511.47	386.19
511.64	283.20
511.82	332.36
511.99	262.14
512.17	229.37
512.34	278.52
512.51	231.71
512.69	229.37
512.86	325.33
513.04	301.93
513.21	257.46
513.38	262.14
513.56	227.03
513.73	248.10
513.90	229.37
514.08	236.39
514.25	203.63
514.43	264.48
514.60	266.82
514.77	262.14
514.95	243.42
515.12	280.86
515.29	290.23
515.47	248.10
515.64	292.57
515.81	276.18
515.99	285.55
516.16	229.37
516.33	243.42
516.51	280.86
516.68	273.84
516.85	196.60
517.03	217.67
517.20	217.67
517.37	322.99
517.54	257.46
517.72	271.50
517.89	208.31
518.06	236.39
518.24	238.73
518.41	344.06
518.58	259.80
518.75	245.76
518.93	227.03
519.10	224.69
519.27	297.25
519.45	287.89
519.62	292.57
519.79	311.29
519.96	231.71
520.14	215.33
520.31	182.56
520.48	374.49
520.65	304.27
520.83	259.80
521.00	318.31
521.17	283.20
521.34	248.10
521.52	201.29
521.69	212.99
521.86	278.52
522.03	346.40
522.20	262.14
522.38	283.20
522.55	283.20
522.72	292.57
522.89	301.93
523.07	334.70
523.24	351.08
523.41	285.55
523.58	330.02
523.75	297.25
523.92	297.25
524.10	299.59
524.27	306.61
524.44	301.93
524.61	351.08
524.78	203.63
524.96	210.65
525.13	222.35
525.30	322.99
525.47	248.10
525.64	236.39
525.81	234.05
525.98	245.76
526.16	294.91
526.33	252.78
526.50	252.78
526.67	248.10
526.84	231.71
527.01	248.10
527.18	278.52
527.36	322.99
527.53	294.91
527.70	217.67
527.87	283.20
528.04	332.36
528.21	241.08
528.38	299.59
528.55	327.68
528.72	318.31
528.89	264.48
529.07	318.31
529.24	334.70
529.41	283.20
529.58	287.89
529.75	243.42
529.92	297.25
530.09	238.73
530.26	241.08
530.43	212.99
530.60	299.59
530.77	276.18
530.94	346.40
531.11	245.76
531.28	285.55
531.46	257.46
531.63	287.89
531.80	299.59
531.97	285.55
532.14	332.36
532.31	313.63
532.48	283.20
532.65	287.89
532.82	376.83
532.99	421.30
533.16	367.46
533.33	313.63
533.50	414.27
533.67	390.87
533.84	423.64
534.01	379.17
534.18	374.49
534.35	421.30
534.52	337.04
534.69	306.61
534.86	334.70
535.03	283.20
535.20	259.80
535.37	283.20
535.54	243.42
535.71	283.20
535.88	337.04
536.05	313.63
536.22	269.16
536.38	301.93
536.55	355.76
536.72	297.25
536.89	297.25
537.06	222.35
537.23	243.42
537.40	294.91
537.57	252.78
537.74	393.21
537.91	304.27
538.08	315.97
538.25	325.33
538.42	264.48
538.59	299.59
538.75	278.52
538.92	292.57
539.09	386.19
539.26	332.36
539.43	573.43
539.60	1050.90
539.77	1657.10
539.94	1605.61
540.11	1163.25
540.28	868.34
540.44	650.67
540.61	505.56
540.78	430.66
540.95	540.66
541.12	535.98
541.29	573.43
541.46	585.13
541.62	587.47
541.79	575.77
541.96	514.92
542.13	578.11
542.30	596.84
542.47	596.84
542.63	507.90
542.80	543.00
542.97	613.22
543.14	575.77
543.31	475.13
543.48	521.94
543.64	449.38
543.81	458.74
543.98	571.09
544.15	496.19
544.32	559.39
544.48	545.34
544.65	550.03
544.82	524.28
544.99	489.17
545.16	535.98
545.32	587.47
545.49	828.55
545.66	1076.65
545.83	1097.71
546.00	912.81
546.16	751.31
546.33	557.05
546.50	482.15
546.67	517.26
546.83	484.49
547.00	465.77
547.17	430.66
547.34	409.59
547.50	414.27
547.67	484.49
547.84	332.36
548.00	362.78
548.17	440.02
548.34	454.06
548.51	461.09
548.67	465.77
548.84	383.85
549.01	381.51
549.18	379.17
549.34	386.19
549.51	358.10
549.68	374.49
549.84	381.51
550.01	372.15
550.18	507.90
550.34	472.79
550.51	393.21
550.68	395.55
550.84	264.48
551.01	334.70
551.18	358.10
551.34	341.72
551.51	315.97
551.68	325.33
551.84	360.44
552.01	236.39
552.18	269.16
552.34	355.76
552.51	322.99
552.68	393.21
552.84	290.23
553.01	262.14
553.18	313.63
553.34	330.02
553.51	308.95
553.67	297.25
553.84	348.74
554.01	379.17
554.17	351.08
554.34	313.63
554.51	344.06
554.67	290.23
554.84	290.23
555.00	332.36
555.17	320.65
555.33	292.57
555.50	276.18
555.67	330.02
555.83	238.73
556.00	325.33
556.16	435.34
556.33	322.99
556.50	205.97
556.66	264.48
556.83	337.04
556.99	264.48
557.16	276.18
557.32	315.97
557.49	252.78
557.65	215.33
557.82	278.52
557.98	243.42
558.15	212.99
558.32	264.48
558.48	234.05
558.65	283.20
558.81	264.48
558.98	278.52
559.14	285.55
559.31	325.33
559.47	301.93
559.64	250.44
559.80	220.01
559.97	262.14
560.13	306.61
560.30	243.42
560.46	283.20
560.63	292.57
560.79	236.39
560.96	224.69
561.12	215.33
561.29	222.35
561.45	227.03
561.61	210.65
561.78	374.49
561.94	304.27
562.11	229.37
562.27	257.46
562.44	217.67
562.60	285.55
562.77	212.99
562.93	416.62
563.10	271.50
563.26	255.12
563.42	259.80
563.59	280.86
563.75	241.08
563.92	280.86
564.08	355.76
564.24	308.95
564.41	315.97
564.57	266.82
564.74	308.95
564.90	358.10
565.07	351.08
565.23	301.93
565.39	229.37
565.56	248.10
565.72	322.99
565.88	236.39
566.05	266.82
566.21	287.89
566.38	308.95
566.54	245.76
566.70	227.03
566.87	292.57
567.03	224.69
567.19	278.52
567.36	262.14
567.52	269.16
567.68	290.23
567.85	271.50
568.01	325.33
568.17	280.86
568.34	304.27
568.50	318.31
568.66	285.55
568.83	383.85
568.99	203.63
569.15	285.55
569.32	269.16
569.48	220.01
569.64	250.44
569.81	198.95
569.97	222.35
570.13	341.72
570.30	196.60
570.46	276.18
570.62	311.29
570.78	255.12
570.95	297.25
571.11	243.42
571.27	318.31
571.43	301.93
571.60	346.40
571.76	294.91
571.92	269.16
572.09	255.12
572.25	266.82
572.41	248.10
572.57	294.91
572.74	344.06
572.90	269.16
573.06	285.55
573.22	217.67
573.38	236.39
573.55	322.99
573.71	243.42
573.87	264.48
574.03	287.89
574.20	250.44
574.36	320.65
574.52	362.78
574.68	365.12
574.84	348.74
575.01	283.20
575.17	330.02
575.33	266.82
575.49	393.21
575.65	334.70
575.82	454.06
575.98	624.92
576.14	716.20
576.30	706.84
576.46	629.60
576.62	535.98
576.79	524.28
576.95	550.03
577.11	334.70
577.27	294.91
577.43	379.17
577.59	397.89
577.75	252.78
577.92	322.99
578.08	325.33
578.24	341.72
578.40	322.99
578.56	447.04
578.72	454.06
578.88	510.24
579.04	411.93
579.21	423.64
579.37	397.89
579.53	407.25
579.69	360.44
579.85	423.64
580.01	449.38
580.17	451.72
580.33	463.43
580.49	421.30
580.65	444.70
580.82	414.27
580.98	400.23
581.14	402.57
581.30	543.00
581.46	486.83
581.62	634.29
581.78	667.05
581.94	709.18
582.10	554.71
582.26	517.26
582.42	505.56
582.58	524.28
582.74	425.98
582.90	503.22
583.06	521.94
583.22	538.32
583.38	557.05
583.54	500.87
583.70	699.82
583.86	748.97
584.02	849.61
584.18	952.60
584.34	1111.75
584.50	2801.62
584.66	20381.38
584.82	53769.13
584.98	64509.85
585.14	61928.23
585.30	47391.17
585.46	28563.90
585.62	17916.80
585.78	8271.45
585.94	3316.54
586.10	1568.16
586.26	1083.67
586.42	976.00
586.58	798.12
586.74	739.61
586.90	765.36
587.06	723.23
587.22	664.71
587.38	617.90
587.54	1249.85
587.70	3330.58
587.86	5647.71
588.02	6431.79
588.18	4526.60
588.34	2949.08
588.49	1968.39
588.65	1142.18
588.81	681.10
588.97	442.36
589.13	372.15
589.29	407.25
589.45	411.93
589.61	435.34
589.77	416.62
589.93	456.40
590.08	568.75
590.24	470.45
590.40	461.09
590.56	447.04
590.72	482.15
590.88	341.72
591.04	444.70
591.20	482.15
591.35	425.98
591.51	348.74
591.67	346.40
591.83	365.12
591.99	491.51
592.15	447.04
592.31	341.72
592.46	416.62
592.62	416.62
592.78	362.78
592.94	440.02
593.10	346.40
593.26	393.21
593.41	458.74
593.57	465.77
593.73	538.32
593.89	2523.10
594.05	6820.32
594.20	10651.78
594.36	10209.42
594.52	6803.94
594.68	4222.33
594.84	2946.73
594.99	1621.99
595.15	856.64
595.31	535.98
595.47	407.25
595.62	383.85
595.78	322.99
595.94	397.89
596.10	479.81
596.25	498.53
596.41	414.27
596.57	365.12
596.73	315.97
596.88	634.29
597.04	1308.36
597.20	2263.30
597.36	2670.55
597.51	2015.20
597.67	1371.55
597.83	1055.58
597.99	791.10
598.14	540.66
598.30	409.59
598.46	376.83
598.61	421.30
598.77	416.62
598.93	369.80
599.09	404.91
599.24	376.83
599.40	390.87
599.56	327.68
599.71	294.91
599.87	278.52
600.03	315.97
600.18	290.23
600.34	339.38
600.50	271.50
600.65	332.36
600.81	306.61
600.97	278.52
601.12	248.10
601.28	294.91
601.44	341.72
601.59	353.42
601.75	311.29
601.91	292.57
602.06	290.23
602.22	393.21
602.37	629.60
602.53	1659.44
602.69	2504.37
602.84	2888.22
603.00	2083.08
603.16	1483.90
603.31	1071.97
603.47	706.84
603.62	475.13
603.78	308.95
603.94	355.76
604.09	259.80
604.25	318.31
604.40	318.31
604.56	248.10
604.71	367.46
604.87	203.63
605.03	283.20
605.18	290.23
605.34	430.66
605.49	353.42
605.65	421.30
605.80	250.44
605.96	416.62
606.12	451.72
606.27	388.53
606.43	447.04
606.58	421.30
606.74	814.51
606.89	3028.65
607.05	6612.01
607.20	9057.87
607.36	7588.02
607.51	5104.71
607.67	3447.61
607.82	2363.94
607.98	1334.11
608.13	770.04
608.29	554.71
608.44	538.32
608.60	451.72
608.75	664.71
608.91	1071.97
609.06	4826.18
609.22	11276.70
609.37	15943.73
609.53	14319.40
609.68	9535.34
609.84	6251.57
609.99	4203.60
610.15	2356.92
610.30	1392.62
610.46	966.64
610.61	1013.45
610.76	1102.39
610.92	1200.69
611.07	1191.33
611.23	1301.34
611.38	1179.63
611.54	1011.11
611.69	945.58
611.84	833.23
612.00	655.35
612.15	699.82
612.31	730.25
612.46	947.92
612.62	968.98
612.77	971.32
612.92	936.21
613.08	786.42
613.23	779.40
613.39	767.70
613.54	922.17
613.69	4325.31
613.85	13422.97
614.00	23243.86
614.15	25324.60
614.31	18068.94
614.46	11910.99
614.62	7920.37
614.77	4819.16
614.92	2284.36
615.08	1156.22
615.23	851.96
615.38	711.52
615.54	559.39
615.69	880.04
615.84	2729.06
616.00	5317.70
616.15	6619.04
616.30	5526.00
616.46	3875.93
616.61	2621.40
616.76	1809.23
616.92	1095.37
617.07	634.29
617.22	456.40
617.37	449.38
617.53	468.11
617.68	341.72
617.83	454.06
617.99	416.62
618.14	381.51
618.29	365.12
618.45	386.19
618.60	358.10
618.75	337.04
618.90	287.89
619.06	311.29
619.21	362.78
619.36	344.06
619.51	271.50
619.67	334.70
619.82	262.14
619.97	306.61
620.12	299.59
620.28	341.72
620.43	374.49
620.58	414.27
620.73	348.74
620.89	374.49
621.04	599.18
621.19	1441.77
621.34	2743.11
621.49	3911.04
621.65	3510.80
621.80	2422.45
621.95	1732.00
622.10	1277.93
622.25	709.18
622.41	454.06
622.56	353.42
622.71	320.65
622.86	322.99
623.01	299.59
623.16	327.68
623.32	280.86
623.47	362.78
623.62	322.99
623.77	339.38
623.92	273.84
624.07	341.72
624.23	322.99
624.38	299.59
624.53	297.25
624.68	379.17
624.83	428.32
624.98	332.36
625.13	299.59
625.29	386.19
625.44	407.25
625.59	292.57
625.74	404.91
625.89	624.92
626.04	2190.74
626.19	6663.51
626.34	11185.42
626.49	12947.84
626.65	9523.64
626.80	6588.61
626.95	4428.29
627.10	2640.12
627.25	1483.90
627.40	711.52
627.55	489.17
627.70	444.70
627.85	414.27
628.00	351.08
628.15	299.59
628.30	330.02
628.45	315.97
628.60	325.33
628.76	306.61
628.91	358.10
629.06	278.52
629.21	278.52
629.36	351.08
629.51	318.31
629.66	369.80
629.81	465.77
629.96	1350.49
630.11	2506.71
630.26	3482.72
630.41	2986.52
630.56	2204.78
630.71	1600.93
630.86	1242.82
631.01	784.08
631.16	543.00
631.31	498.53
631.46	505.56
631.61	411.93
631.76	299.59
631.91	299.59
632.06	269.16
632.21	334.70
632.36	397.89
632.51	374.49
632.66	507.90
632.81	1069.62
632.96	3508.46
633.10	6820.32
633.25	8741.90
633.40	7442.90
633.55	5027.47
633.70	3522.51
633.85	2270.32
634.00	1217.08
634.15	784.08
634.30	416.62
634.45	404.91
634.60	416.62
634.75	362.78
634.90	250.44
635.05	362.78
635.19	423.64
635.34	346.40
635.49	304.27
635.64	367.46
635.79	292.57
635.94	276.18
636.09	376.83
636.24	332.36
636.39	311.29
636.53	332.36
636.68	330.02
636.83	341.72
636.98	379.17
637.13	287.89
637.28	278.52
637.43	477.47
637.57	699.82
637.72	2832.05
637.87	8306.56
638.02	14331.10
638.17	16379.07
638.32	11878.22
638.46	8051.44
638.61	5650.05
638.76	3377.39
638.91	1792.85
639.06	966.64
639.20	676.41
639.35	711.52
639.50	908.13
639.65	4257.43
639.80	13097.64
639.94	22214.02
640.09	25064.80
640.24	18803.86
640.39	12655.28
640.54	8542.96
640.68	5097.69
640.83	2452.88
640.98	1137.50
641.13	713.86
641.27	578.11
641.42	456.40
641.57	461.09
641.72	358.10
641.86	280.86
642.01	290.23
642.16	318.31
642.31	330.02
642.45	287.89
642.60	325.33
642.75	283.20
642.90	248.10
643.04	241.08
643.19	330.02
643.34	173.20
643.48	301.93
643.63	294.91
643.78	311.29
643.93	297.25
644.07	194.26
644.22	231.71
644.37	269.16
644.51	294.91
644.66	236.39
644.81	231.71
644.95	252.78
645.10	229.37
645.25	217.67
645.39	269.16
645.54	248.10
645.69	210.65
645.83	264.48
645.98	292.57
646.13	191.92
646.27	259.80
646.42	227.03
646.57	292.57
646.71	257.46
646.86	198.95
647.00	278.52
647.15	248.10
647.30	217.67
647.44	210.65
647.59	259.80
647.74	189.58
647.88	311.29
648.03	241.08
648.17	245.76
648.32	301.93
648.47	278.52
648.61	224.69
648.76	238.73
648.90	278.52
649.05	320.65
649.20	191.92
649.34	313.63
649.49	271.50
649.63	285.55
649.78	339.38
649.92	500.87
650.07	1668.80
650.21	5526.00
650.36	10314.74
650.51	13029.76
650.65	10738.38
650.80	7735.47
650.94	5076.62
651.09	3234.62
651.23	1678.16
651.38	896.43
651.52	489.17
651.67	402.57
651.81	322.99
651.96	355.76
652.10	346.40
652.25	276.18
652.39	365.12
652.54	353.42
652.68	617.90
652.83	1727.32
652.97	3510.80
653.12	4779.37
653.26	4189.56
653.41	3038.02
653.55	2209.47
653.70	1380.92
653.84	819.19
653.99	512.58
654.13	320.65
654.27	332.36
654.42	327.68
654.56	308.95
654.71	262.14
654.85	283.20
655.00	278.52
655.14	201.29
655.29	173.20
655.43	182.56
655.57	229.37
655.72	212.99
655.86	243.42
656.01	252.78
656.15	191.92
656.30	299.59
656.44	152.13
656.58	262.14
656.73	215.33
656.87	217.67
657.01	208.31
657.16	243.42
657.30	292.57
657.45	301.93
657.59	287.89
657.73	212.99
657.88	128.73
658.02	231.71
658.16	224.69
658.31	271.50
658.45	234.05
658.60	205.97
658.74	250.44
658.88	194.26
659.03	227.03
659.17	294.91
659.31	812.17
659.46	2597.99
659.60	4805.12
659.74	6677.55
659.89	5884.11
660.03	4252.75
660.17	2972.48
660.32	1881.79
660.46	1125.80
660.60	624.92
660.74	390.87
660.89	362.78
661.03	280.86
661.17	290.23
661.32	229.37
661.46	212.99
661.60	187.24
661.74	264.48
661.89	278.52
662.03	262.14
662.17	297.25
662.31	248.10
662.46	266.82
662.60	250.44
662.74	234.05
662.88	217.67
663.03	217.67
663.17	210.65
663.31	175.54
663.45	285.55
663.60	236.39
663.74	170.86
663.88	231.71
664.02	184.90
664.17	252.78
664.31	280.86
664.45	208.31
664.59	229.37
664.73	177.88
664.88	245.76
665.02	245.76
665.16	330.02
665.30	187.24
665.44	201.29
665.59	222.35
665.73	271.50
665.87	208.31
666.01	227.03
666.15	236.39
666.29	191.92
666.44	294.91
666.58	290.23
666.72	205.97
666.86	285.55
667.00	390.87
667.14	484.49
667.28	1462.83
667.43	4573.41
667.57	8655.30
667.71	11204.14
667.85	9767.06
667.99	7222.89
668.13	4594.47
668.27	2661.19
668.41	1460.49
668.56	919.83
668.70	575.77
668.84	397.89
668.98	341.72
669.12	262.14
669.26	262.14
669.40	313.63
669.54	294.91
669.68	285.55
669.82	220.01
669.96	285.55
670.10	259.80
670.25	290.23
670.39	191.92
670.53	238.73
670.67	294.91
670.81	220.01
670.95	337.04
671.09	505.56
671.23	1851.36
671.37	4035.08
671.51	6310.08
671.65	6836.70
671.79	5617.29
671.93	3843.16
672.07	2497.35
672.21	1420.71
672.35	826.21
672.49	587.47
672.63	428.32
672.77	304.27
672.91	376.83
673.05	269.16
673.19	276.18
673.33	278.52
673.47	250.44
673.61	241.08
673.75	196.60
673.89	177.88
674.03	250.44
674.17	250.44
674.31	177.88
674.45	229.37
674.59	238.73
674.73	227.03
674.87	229.37
675.01	294.91
675.15	306.61
675.29	337.04
675.43	325.33
675.56	330.02
675.70	271.50
675.84	215.33
675.98	224.69
676.12	133.41
676.26	224.69
676.40	236.39
676.54	205.97
676.68	217.67
676.82	140.43
676.96	210.65
677.10	269.16
677.23	152.13
677.37	156.82
677.51	152.13
677.65	353.42
677.79	112.35
677.93	154.48
678.07	177.88
678.21	184.90
678.34	208.31
678.48	212.99
678.62	215.33
678.76	203.63
678.90	166.18
679.04	227.03
679.18	250.44
679.31	117.03
679.45	140.43
679.59	222.35
679.73	222.35
679.87	159.16
680.00	147.45
680.14	154.48
680.28	243.42
680.42	173.20
680.56	222.35
680.70	196.60
680.83	182.56
680.97	161.50
681.11	177.88
681.25	234.05
681.39	191.92
681.52	168.52
681.66	177.88
681.80	229.37
681.94	198.95
682.07	159.16
682.21	205.97
682.35	170.86
682.49	229.37
682.62	217.67
682.76	259.80
682.90	154.48
683.04	142.77
683.17	191.92
683.31	180.22
683.45	238.73
683.59	229.37
683.72	145.11
683.86	159.16
684.00	234.05
684.13	234.05
684.27	227.03
684.41	229.37
684.55	163.84
684.68	224.69
684.82	128.73
684.96	231.71
685.09	184.90
685.23	257.46
685.37	177.88
685.50	159.16
685.64	212.99
685.78	147.45
685.91	252.78
686.05	271.50
686.19	142.77
686.32	175.54
686.46	217.67
686.60	227.03
686.73	266.82
686.87	196.60
687.01	287.89
687.14	220.01
687.28	224.69
687.42	238.73
687.55	170.86
687.69	243.42
687.82	121.71
687.96	168.52
688.10	212.99
688.23	170.86
688.37	152.13
688.50	161.50
688.64	229.37
688.78	222.35
688.91	217.67
689.05	121.71
689.18	175.54
689.32	208.31
689.46	177.88
689.59	262.14
689.73	201.29
689.86	149.79
690.00	208.31
690.13	182.56
690.27	191.92
690.41	205.97
690.54	285.55
690.68	184.90
690.81	126.39
690.95	159.16
691.08	170.86
691.22	191.92
691.35	166.18
691.49	133.41
691.62	173.20
691.76	215.33
691.89	198.95
692.03	156.82
692.16	236.39
692.30	262.14
692.43	655.35
692.57	1900.52
692.70	3742.52
692.84	4791.08
692.97	4571.07
693.11	3361.01
693.24	2452.88
693.38	1743.70
693.51	1212.40
693.65	784.08
693.78	557.05
693.92	423.64
694.05	273.84
694.19	255.12
694.32	212.99
694.45	149.79
694.59	238.73
694.72	217.67
694.86	205.97
694.99	243.42
695.13	234.05
695.26	208.31
695.39	152.13
695.53	182.56
695.66	196.60
695.80	224.69
695.93	147.45
696.07	212.99
696.20	308.95
696.33	454.06
696.47	482.15
696.60	552.37
696.73	425.98
696.87	416.62
697.00	344.06
697.14	252.78
697.27	215.33
697.40	269.16
697.54	215.33
697.67	194.26
697.80	191.92
697.94	184.90
698.07	215.33
698.21	187.24
698.34	177.88
698.47	180.22
698.61	133.41
698.74	241.08
698.87	234.05
699.01	177.88
699.14	84.26
699.27	241.08
699.40	330.02
699.54	142.77
699.67	234.05
699.80	215.33
699.94	182.56
700.07	180.22
700.20	189.58
700.34	168.52
700.47	203.63
700.60	210.65
700.73	138.09
700.87	229.37
701.00	194.26
701.13	161.50
701.26	198.95
701.40	227.03
701.53	182.56
701.66	161.50
701.79	182.56
701.93	163.84
702.06	301.93
702.19	339.38
702.32	418.96
702.46	489.17
702.59	447.04
702.72	777.06
702.85	2626.08
702.99	5741.33
703.12	8470.40
703.25	9577.47
703.38	8039.74
703.51	6574.56
703.65	5032.15
703.78	3630.17
703.91	2380.32
704.04	1544.75
704.17	978.34
704.31	629.60
704.44	451.72
704.57	353.42
704.70	248.10
704.83	308.95
704.96	264.48
705.10	205.97
705.23	248.10
>>>>>End Processed Spectral Data<<<<<
