SpectraSuite Data File
++++++++++++++++++++++++++++++++++++
Date: Fri Oct 04 11:34:00 GMT-05:00 2013
User: price-jones
Dark Spectrum Present: No
Reference Spectrum Present: No
Number of Sampled Component Spectra: 1
Spectrometers: USB2+H05261
Integration Time (usec): 100000 (USB2+H05261)
Spectra Averaged: 1 (USB2+H05261)
Boxcar Smoothing: 0 (USB2+H05261)
Correct for Electrical Dark: No (USB2+H05261)
Strobe/Lamp Enabled: No (USB2+H05261)
Correct for Detector Non-linearity: No (USB2+H05261)
Correct for Stray Light: No (USB2+H05261)
Number of Pixels in Processed Spectrum: 2048
>>>>>Begin Processed Spectral Data<<<<<
365.73	63.19
365.92	63.19
366.12	63.19
366.32	53.83
366.52	7.02
366.72	44.47
366.91	0.00
367.11	0.00
367.31	7.02
367.51	0.00
367.70	0.00
367.90	0.00
368.10	0.00
368.30	11.70
368.49	0.00
368.69	23.41
368.89	0.00
369.09	0.00
369.28	0.00
369.48	0.00
369.68	0.00
369.87	30.43
370.07	32.77
370.27	95.96
370.47	30.43
370.66	30.43
370.86	72.56
371.06	79.58
371.25	86.60
371.45	42.13
371.65	42.13
371.84	117.03
372.04	121.71
372.24	161.50
372.44	140.43
372.63	110.01
372.83	128.73
373.03	135.75
373.22	152.13
373.42	126.39
373.62	149.79
373.81	149.79
374.01	110.01
374.21	269.16
374.40	159.16
374.60	182.56
374.79	166.18
374.99	88.94
375.19	126.39
375.38	205.97
375.58	138.09
375.78	93.62
375.97	138.09
376.17	156.82
376.37	142.77
376.56	170.86
376.76	142.77
376.95	175.54
377.15	149.79
377.35	145.11
377.54	112.35
377.74	121.71
377.93	166.18
378.13	170.86
378.33	189.58
378.52	212.99
378.72	149.79
378.91	145.11
379.11	138.09
379.31	98.30
379.50	166.18
379.70	175.54
379.89	135.75
380.09	145.11
380.28	124.05
380.48	159.16
380.68	126.39
380.87	222.35
381.07	133.41
381.26	184.90
381.46	175.54
381.65	212.99
381.85	88.94
382.04	98.30
382.24	100.64
382.43	135.75
382.63	156.82
382.83	131.07
383.02	140.43
383.22	147.45
383.41	159.16
383.61	131.07
383.80	135.75
384.00	107.66
384.19	152.13
384.39	187.24
384.58	135.75
384.78	227.03
384.97	243.42
385.17	140.43
385.36	128.73
385.56	138.09
385.75	154.48
385.95	152.13
386.14	163.84
386.34	152.13
386.53	135.75
386.72	180.22
386.92	135.75
387.11	196.60
387.31	126.39
387.50	88.94
387.70	152.13
387.89	159.16
388.09	133.41
388.28	77.24
388.48	67.88
388.67	166.18
388.86	182.56
389.06	168.52
389.25	191.92
389.45	154.48
389.64	105.32
389.84	140.43
390.03	102.98
390.22	152.13
390.42	166.18
390.61	163.84
390.81	110.01
391.00	187.24
391.19	210.65
391.39	149.79
391.58	39.79
391.78	215.33
391.97	119.37
392.16	152.13
392.36	156.82
392.55	154.48
392.75	91.28
392.94	93.62
393.13	79.58
393.33	121.71
393.52	170.86
393.71	166.18
393.91	201.29
394.10	152.13
394.29	121.71
394.49	133.41
394.68	140.43
394.88	114.69
395.07	166.18
395.26	156.82
395.46	196.60
395.65	180.22
395.84	173.20
396.04	210.65
396.23	114.69
396.42	74.90
396.62	156.82
396.81	168.52
397.00	210.65
397.19	203.63
397.39	198.95
397.58	194.26
397.77	124.05
397.97	107.66
398.16	210.65
398.35	142.77
398.55	74.90
398.74	154.48
398.93	156.82
399.12	168.52
399.32	84.26
399.51	142.77
399.70	133.41
399.90	194.26
400.09	194.26
400.28	194.26
400.47	156.82
400.67	91.28
400.86	142.77
401.05	227.03
401.24	170.86
401.44	135.75
401.63	215.33
401.82	166.18
402.01	145.11
402.21	175.54
402.40	177.88
402.59	133.41
402.78	152.13
402.97	100.64
403.17	163.84
403.36	175.54
403.55	177.88
403.74	154.48
403.93	252.78
404.13	262.14
404.32	290.23
404.51	168.52
404.70	166.18
404.89	205.97
405.09	189.58
405.28	154.48
405.47	210.65
405.66	161.50
405.85	205.97
406.05	191.92
406.24	262.14
406.43	170.86
406.62	243.42
406.81	222.35
407.00	182.56
407.20	170.86
407.39	110.01
407.58	191.92
407.77	138.09
407.96	212.99
408.15	131.07
408.34	84.26
408.54	222.35
408.73	166.18
408.92	154.48
409.11	313.63
409.30	175.54
409.49	105.32
409.68	102.98
409.87	63.19
410.07	163.84
410.26	140.43
410.45	196.60
410.64	175.54
410.83	159.16
411.02	189.58
411.21	222.35
411.40	119.37
411.59	168.52
411.78	140.43
411.98	215.33
412.17	117.03
412.36	170.86
412.55	121.71
412.74	177.88
412.93	257.46
413.12	152.13
413.31	145.11
413.50	175.54
413.69	212.99
413.88	166.18
414.07	175.54
414.26	135.75
414.45	126.39
414.64	222.35
414.83	198.95
415.02	154.48
415.22	229.37
415.41	215.33
415.60	65.54
415.79	194.26
415.98	194.26
416.17	156.82
416.36	236.39
416.55	205.97
416.74	198.95
416.93	203.63
417.12	234.05
417.31	217.67
417.50	121.71
417.69	212.99
417.88	124.05
418.07	196.60
418.26	166.18
418.45	229.37
418.64	243.42
418.83	238.73
419.02	215.33
419.21	205.97
419.39	95.96
419.58	198.95
419.77	145.11
419.96	147.45
420.15	252.78
420.34	210.65
420.53	236.39
420.72	159.16
420.91	187.24
421.10	180.22
421.29	187.24
421.48	138.09
421.67	191.92
421.86	166.18
422.05	173.20
422.24	152.13
422.43	198.95
422.61	110.01
422.80	182.56
422.99	149.79
423.18	166.18
423.37	252.78
423.56	201.29
423.75	196.60
423.94	152.13
424.13	168.52
424.32	145.11
424.50	166.18
424.69	163.84
424.88	168.52
425.07	145.11
425.26	236.39
425.45	252.78
425.64	159.16
425.83	205.97
426.01	215.33
426.20	191.92
426.39	142.77
426.58	142.77
426.77	124.05
426.96	173.20
427.15	191.92
427.33	182.56
427.52	210.65
427.71	180.22
427.90	133.41
428.09	142.77
428.28	112.35
428.46	168.52
428.65	180.22
428.84	142.77
429.03	227.03
429.22	161.50
429.40	133.41
429.59	154.48
429.78	229.37
429.97	168.52
430.16	149.79
430.34	168.52
430.53	222.35
430.72	241.08
430.91	154.48
431.10	112.35
431.28	210.65
431.47	238.73
431.66	191.92
431.85	222.35
432.03	173.20
432.22	166.18
432.41	124.05
432.60	234.05
432.79	163.84
432.97	255.12
433.16	287.89
433.35	161.50
433.54	201.29
433.72	250.44
433.91	189.58
434.10	196.60
434.28	170.86
434.47	156.82
434.66	217.67
434.85	187.24
435.03	245.76
435.22	397.89
435.41	447.04
435.59	423.64
435.78	365.12
435.97	266.82
436.16	117.03
436.34	105.32
436.53	189.58
436.72	180.22
436.90	156.82
437.09	168.52
437.28	142.77
437.46	154.48
437.65	189.58
437.84	210.65
438.02	189.58
438.21	243.42
438.40	189.58
438.58	194.26
438.77	196.60
438.96	135.75
439.14	142.77
439.33	189.58
439.52	147.45
439.70	215.33
439.89	259.80
440.08	227.03
440.26	180.22
440.45	234.05
440.63	236.39
440.82	269.16
441.01	248.10
441.19	166.18
441.38	175.54
441.57	133.41
441.75	184.90
441.94	154.48
442.12	145.11
442.31	170.86
442.50	170.86
442.68	156.82
442.87	163.84
443.05	72.56
443.24	133.41
443.43	147.45
443.61	280.86
443.80	224.69
443.98	166.18
444.17	140.43
444.35	210.65
444.54	175.54
444.73	215.33
444.91	173.20
445.10	196.60
445.28	180.22
445.47	138.09
445.65	152.13
445.84	152.13
446.02	159.16
446.21	191.92
446.39	217.67
446.58	224.69
446.77	133.41
446.95	135.75
447.14	203.63
447.32	224.69
447.51	210.65
447.69	117.03
447.88	217.67
448.06	175.54
448.25	212.99
448.43	198.95
448.62	163.84
448.80	215.33
448.99	201.29
449.17	234.05
449.36	184.90
449.54	215.33
449.73	198.95
449.91	271.50
450.10	166.18
450.28	140.43
450.46	250.44
450.65	231.71
450.83	224.69
451.02	147.45
451.20	203.63
451.39	217.67
451.57	227.03
451.76	131.07
451.94	262.14
452.13	161.50
452.31	255.12
452.49	187.24
452.68	138.09
452.86	210.65
453.05	238.73
453.23	255.12
453.42	198.95
453.60	177.88
453.78	236.39
453.97	187.24
454.15	126.39
454.34	145.11
454.52	203.63
454.70	222.35
454.89	173.20
455.07	194.26
455.26	262.14
455.44	198.95
455.62	224.69
455.81	140.43
455.99	180.22
456.17	173.20
456.36	173.20
456.54	175.54
456.73	142.77
456.91	201.29
457.09	189.58
457.28	170.86
457.46	201.29
457.64	229.37
457.83	189.58
458.01	79.58
458.19	245.76
458.38	212.99
458.56	224.69
458.74	180.22
458.93	238.73
459.11	220.01
459.29	173.20
459.48	241.08
459.66	299.59
459.84	203.63
460.03	269.16
460.21	203.63
460.39	236.39
460.57	196.60
460.76	173.20
460.94	100.64
461.12	241.08
461.31	245.76
461.49	138.09
461.67	224.69
461.85	229.37
462.04	215.33
462.22	566.41
462.40	229.37
462.59	227.03
462.77	159.16
462.95	184.90
463.13	191.92
463.32	236.39
463.50	198.95
463.68	196.60
463.86	119.37
464.05	138.09
464.23	203.63
464.41	175.54
464.59	187.24
464.78	205.97
464.96	163.84
465.14	184.90
465.32	189.58
465.50	191.92
465.69	135.75
465.87	194.26
466.05	159.16
466.23	175.54
466.41	124.05
466.60	203.63
466.78	175.54
466.96	147.45
467.14	201.29
467.32	175.54
467.51	203.63
467.69	238.73
467.87	154.48
468.05	203.63
468.23	220.01
468.41	243.42
468.60	203.63
468.78	231.71
468.96	234.05
469.14	262.14
469.32	175.54
469.50	175.54
469.69	191.92
469.87	182.56
470.05	177.88
470.23	208.31
470.41	201.29
470.59	198.95
470.77	210.65
470.95	238.73
471.14	241.08
471.32	196.60
471.50	220.01
471.68	128.73
471.86	231.71
472.04	189.58
472.22	241.08
472.40	208.31
472.58	173.20
472.77	98.30
472.95	241.08
473.13	208.31
473.31	196.60
473.49	229.37
473.67	210.65
473.85	168.52
474.03	208.31
474.21	217.67
474.39	189.58
474.57	252.78
474.75	196.60
474.93	222.35
475.12	156.82
475.30	208.31
475.48	177.88
475.66	250.44
475.84	147.45
476.02	224.69
476.20	304.27
476.38	163.84
476.56	194.26
476.74	161.50
476.92	152.13
477.10	234.05
477.28	245.76
477.46	229.37
477.64	252.78
477.82	269.16
478.00	215.33
478.18	222.35
478.36	184.90
478.54	222.35
478.72	133.41
478.90	203.63
479.08	210.65
479.26	208.31
479.44	212.99
479.62	170.86
479.80	156.82
479.98	215.33
480.16	196.60
480.34	234.05
480.52	205.97
480.70	215.33
480.88	252.78
481.06	177.88
481.24	203.63
481.41	196.60
481.59	280.86
481.77	180.22
481.95	189.58
482.13	311.29
482.31	220.01
482.49	208.31
482.67	264.48
482.85	238.73
483.03	177.88
483.21	236.39
483.39	238.73
483.57	184.90
483.74	299.59
483.92	208.31
484.10	182.56
484.28	142.77
484.46	257.46
484.64	264.48
484.82	259.80
485.00	304.27
485.18	227.03
485.35	264.48
485.53	208.31
485.71	252.78
485.89	182.56
486.07	245.76
486.25	257.46
486.43	353.42
486.61	243.42
486.78	238.73
486.96	220.01
487.14	266.82
487.32	248.10
487.50	229.37
487.68	262.14
487.85	241.08
488.03	236.39
488.21	280.86
488.39	210.65
488.57	250.44
488.75	285.55
488.92	491.51
489.10	266.82
489.28	322.99
489.46	245.76
489.64	266.82
489.81	283.20
489.99	341.72
490.17	252.78
490.35	337.04
490.53	311.29
490.70	184.90
490.88	306.61
491.06	283.20
491.24	224.69
491.41	271.50
491.59	227.03
491.77	196.60
491.95	220.01
492.13	180.22
492.30	283.20
492.48	273.84
492.66	245.76
492.84	297.25
493.01	250.44
493.19	292.57
493.37	276.18
493.54	259.80
493.72	224.69
493.90	299.59
494.08	198.95
494.25	330.02
494.43	304.27
494.61	278.52
494.79	287.89
494.96	231.71
495.14	280.86
495.32	297.25
495.49	266.82
495.67	262.14
495.85	273.84
496.02	273.84
496.20	245.76
496.38	236.39
496.55	227.03
496.73	297.25
496.91	290.23
497.09	285.55
497.26	222.35
497.44	205.97
497.62	308.95
497.79	266.82
497.97	278.52
498.14	311.29
498.32	248.10
498.50	259.80
498.67	271.50
498.85	255.12
499.03	248.10
499.20	299.59
499.38	203.63
499.56	269.16
499.73	299.59
499.91	318.31
500.08	276.18
500.26	250.44
500.44	203.63
500.61	191.92
500.79	205.97
500.97	318.31
501.14	259.80
501.32	285.55
501.49	337.04
501.67	220.01
501.84	250.44
502.02	208.31
502.20	231.71
502.37	276.18
502.55	236.39
502.72	283.20
502.90	273.84
503.07	215.33
503.25	280.86
503.43	271.50
503.60	180.22
503.78	294.91
503.95	191.92
504.13	238.73
504.30	341.72
504.48	222.35
504.65	294.91
504.83	362.78
505.01	283.20
505.18	245.76
505.36	210.65
505.53	182.56
505.71	189.58
505.88	318.31
506.06	238.73
506.23	194.26
506.41	283.20
506.58	341.72
506.76	264.48
506.93	234.05
507.11	215.33
507.28	177.88
507.46	250.44
507.63	257.46
507.81	259.80
507.98	271.50
508.16	231.71
508.33	304.27
508.50	238.73
508.68	276.18
508.85	278.52
509.03	189.58
509.20	252.78
509.38	264.48
509.55	287.89
509.73	299.59
509.90	297.25
510.08	234.05
510.25	266.82
510.42	236.39
510.60	227.03
510.77	315.97
510.95	315.97
511.12	180.22
511.30	283.20
511.47	238.73
511.64	369.80
511.82	346.40
511.99	264.48
512.17	217.67
512.34	208.31
512.51	217.67
512.69	187.24
512.86	269.16
513.04	248.10
513.21	278.52
513.38	278.52
513.56	236.39
513.73	330.02
513.90	208.31
514.08	252.78
514.25	208.31
514.43	248.10
514.60	301.93
514.77	271.50
514.95	290.23
515.12	280.86
515.29	264.48
515.47	283.20
515.64	257.46
515.81	248.10
515.99	264.48
516.16	217.67
516.33	294.91
516.51	304.27
516.68	177.88
516.85	259.80
517.03	250.44
517.20	294.91
517.37	234.05
517.54	227.03
517.72	287.89
517.89	271.50
518.06	154.48
518.24	250.44
518.41	292.57
518.58	262.14
518.75	255.12
518.93	287.89
519.10	161.50
519.27	238.73
519.45	252.78
519.62	262.14
519.79	278.52
519.96	229.37
520.14	234.05
520.31	318.31
520.48	234.05
520.65	278.52
520.83	264.48
521.00	259.80
521.17	205.97
521.34	234.05
521.52	308.95
521.69	224.69
521.86	224.69
522.03	234.05
522.20	297.25
522.38	276.18
522.55	212.99
522.72	245.76
522.89	301.93
523.07	248.10
523.24	231.71
523.41	238.73
523.58	280.86
523.75	234.05
523.92	222.35
524.10	269.16
524.27	290.23
524.44	259.80
524.61	301.93
524.78	187.24
524.96	243.42
525.13	294.91
525.30	234.05
525.47	304.27
525.64	299.59
525.81	262.14
525.98	304.27
526.16	217.67
526.33	191.92
526.50	215.33
526.67	266.82
526.84	231.71
527.01	252.78
527.18	198.95
527.36	227.03
527.53	339.38
527.70	255.12
527.87	294.91
528.04	325.33
528.21	292.57
528.38	276.18
528.55	196.60
528.72	278.52
528.89	322.99
529.07	266.82
529.24	259.80
529.41	320.65
529.58	243.42
529.75	285.55
529.92	330.02
530.09	285.55
530.26	313.63
530.43	234.05
530.60	259.80
530.77	252.78
530.94	308.95
531.11	250.44
531.28	252.78
531.46	315.97
531.63	294.91
531.80	241.08
531.97	227.03
532.14	341.72
532.31	201.29
532.48	339.38
532.65	379.17
532.82	308.95
532.99	248.10
533.16	320.65
533.33	325.33
533.50	334.70
533.67	264.48
533.84	351.08
534.01	362.78
534.18	311.29
534.35	362.78
534.52	304.27
534.69	358.10
534.86	287.89
535.03	273.84
535.20	208.31
535.37	208.31
535.54	227.03
535.71	315.97
535.88	306.61
536.05	299.59
536.22	245.76
536.38	220.01
536.55	292.57
536.72	320.65
536.89	334.70
537.06	325.33
537.23	313.63
537.40	287.89
537.57	271.50
537.74	313.63
537.91	337.04
538.08	313.63
538.25	273.84
538.42	294.91
538.59	344.06
538.75	367.46
538.92	299.59
539.09	355.76
539.26	388.53
539.43	517.26
539.60	870.68
539.77	1200.69
539.94	1116.44
540.11	856.64
540.28	713.86
540.44	589.82
540.61	458.74
540.78	493.85
540.95	475.13
541.12	573.43
541.29	578.11
541.46	543.00
541.62	540.66
541.79	500.87
541.96	444.70
542.13	500.87
542.30	421.30
542.47	573.43
542.63	482.15
542.80	524.28
542.97	554.71
543.14	418.96
543.31	512.58
543.48	489.17
543.64	557.05
543.81	463.43
543.98	545.34
544.15	433.00
544.32	458.74
544.48	505.56
544.65	475.13
544.82	407.25
544.99	423.64
545.16	500.87
545.32	500.87
545.49	758.33
545.66	880.04
545.83	1027.50
546.00	894.08
546.16	573.43
546.33	514.92
546.50	510.24
546.67	507.90
546.83	421.30
547.00	472.79
547.17	416.62
547.34	381.51
547.50	428.32
547.67	498.53
547.84	339.38
548.00	381.51
548.17	320.65
548.34	346.40
548.51	468.11
548.67	393.21
548.84	414.27
549.01	346.40
549.18	372.15
549.34	379.17
549.51	304.27
549.68	369.80
549.84	325.33
550.01	322.99
550.18	397.89
550.34	400.23
550.51	280.86
550.68	243.42
550.84	320.65
551.01	297.25
551.18	341.72
551.34	294.91
551.51	362.78
551.68	285.55
551.84	365.12
552.01	367.46
552.18	276.18
552.34	383.85
552.51	337.04
552.68	344.06
552.84	299.59
553.01	299.59
553.18	322.99
553.34	301.93
553.51	320.65
553.67	308.95
553.84	299.59
554.01	238.73
554.17	344.06
554.34	341.72
554.51	285.55
554.67	292.57
554.84	231.71
555.00	330.02
555.17	283.20
555.33	304.27
555.50	229.37
555.67	306.61
555.83	210.65
556.00	250.44
556.16	482.15
556.33	271.50
556.50	301.93
556.66	334.70
556.83	255.12
556.99	266.82
557.16	308.95
557.32	320.65
557.49	215.33
557.65	229.37
557.82	355.76
557.98	252.78
558.15	315.97
558.32	236.39
558.48	325.33
558.65	285.55
558.81	337.04
558.98	234.05
559.14	212.99
559.31	297.25
559.47	271.50
559.64	248.10
559.80	278.52
559.97	290.23
560.13	187.24
560.30	248.10
560.46	297.25
560.63	262.14
560.79	271.50
560.96	297.25
561.12	217.67
561.29	278.52
561.45	220.01
561.61	227.03
561.78	315.97
561.94	248.10
562.11	283.20
562.27	241.08
562.44	252.78
562.60	325.33
562.77	245.76
562.93	322.99
563.10	285.55
563.26	304.27
563.42	252.78
563.59	287.89
563.75	266.82
563.92	358.10
564.08	266.82
564.24	236.39
564.41	318.31
564.57	264.48
564.74	250.44
564.90	269.16
565.07	315.97
565.23	320.65
565.39	245.76
565.56	262.14
565.72	322.99
565.88	217.67
566.05	243.42
566.21	243.42
566.38	271.50
566.54	266.82
566.70	224.69
566.87	180.22
567.03	308.95
567.19	259.80
567.36	229.37
567.52	234.05
567.68	243.42
567.85	255.12
568.01	252.78
568.17	236.39
568.34	262.14
568.50	285.55
568.66	250.44
568.83	311.29
568.99	243.42
569.15	163.84
569.32	241.08
569.48	280.86
569.64	238.73
569.81	287.89
569.97	259.80
570.13	290.23
570.30	297.25
570.46	248.10
570.62	341.72
570.78	191.92
570.95	227.03
571.11	264.48
571.27	269.16
571.43	297.25
571.60	243.42
571.76	271.50
571.92	217.67
572.09	224.69
572.25	266.82
572.41	227.03
572.57	241.08
572.74	266.82
572.90	358.10
573.06	255.12
573.22	351.08
573.38	266.82
573.55	339.38
573.71	285.55
573.87	341.72
574.03	269.16
574.20	297.25
574.36	320.65
574.52	285.55
574.68	311.29
574.84	271.50
575.01	304.27
575.17	297.25
575.33	234.05
575.49	318.31
575.65	280.86
575.82	388.53
575.98	554.71
576.14	580.45
576.30	524.28
576.46	435.34
576.62	528.96
576.79	470.45
576.95	367.46
577.11	376.83
577.27	266.82
577.43	325.33
577.59	308.95
577.75	355.76
577.92	318.31
578.08	252.78
578.24	283.20
578.40	348.74
578.56	393.21
578.72	397.89
578.88	486.83
579.04	369.80
579.21	390.87
579.37	245.76
579.53	311.29
579.69	381.51
579.85	322.99
580.01	430.66
580.17	355.76
580.33	369.80
580.49	409.59
580.65	327.68
580.82	315.97
580.98	297.25
581.14	301.93
581.30	334.70
581.46	400.23
581.62	493.85
581.78	472.79
581.94	528.96
582.10	390.87
582.26	402.57
582.42	433.00
582.58	407.25
582.74	390.87
582.90	477.47
583.06	472.79
583.22	416.62
583.38	416.62
583.54	433.00
583.70	507.90
583.86	601.52
584.02	578.11
584.18	784.08
584.34	851.96
584.50	2136.91
584.66	15082.41
584.82	37240.26
584.98	48765.06
585.14	43262.46
585.30	27201.71
585.46	16470.35
585.62	10104.09
585.78	4908.10
585.94	2017.54
586.10	1069.62
586.26	798.12
586.42	730.25
586.58	589.82
586.74	648.33
586.90	575.77
587.06	603.86
587.22	479.81
587.38	538.32
587.54	978.34
587.70	2324.15
587.86	3456.97
588.02	3524.85
588.18	2558.21
588.34	1788.17
588.49	1198.35
588.65	767.70
588.81	526.62
588.97	383.85
589.13	337.04
589.29	322.99
589.45	365.12
589.61	313.63
589.77	393.21
589.93	393.21
590.08	353.42
590.24	376.83
590.40	353.42
590.56	379.17
590.72	301.93
590.88	418.96
591.04	353.42
591.20	330.02
591.35	353.42
591.51	339.38
591.67	292.57
591.83	318.31
591.99	292.57
592.15	320.65
592.31	278.52
592.46	381.51
592.62	381.51
592.78	381.51
592.94	386.19
593.10	334.70
593.26	414.27
593.41	423.64
593.57	369.80
593.73	498.53
593.89	2087.76
594.05	4594.47
594.20	6387.32
594.36	5699.20
594.52	4018.70
594.68	2516.08
594.84	1802.21
594.99	992.39
595.15	566.41
595.31	351.08
595.47	472.79
595.62	334.70
595.78	353.42
595.94	292.57
596.10	365.12
596.25	423.64
596.41	397.89
596.57	315.97
596.73	367.46
596.88	477.47
597.04	1069.62
597.20	1437.09
597.36	1732.00
597.51	1313.04
597.67	945.58
597.83	638.97
597.99	414.27
598.14	425.98
598.30	353.42
598.46	372.15
598.61	414.27
598.77	374.49
598.93	318.31
599.09	262.14
599.24	402.57
599.40	409.59
599.56	358.10
599.71	320.65
599.87	315.97
600.03	290.23
600.18	231.71
600.34	299.59
600.50	301.93
600.65	273.84
600.81	276.18
600.97	250.44
601.12	292.57
601.28	383.85
601.44	294.91
601.59	306.61
601.75	283.20
601.91	245.76
602.06	351.08
602.22	421.30
602.37	606.20
602.53	1203.04
602.69	1689.87
602.84	1659.44
603.00	1177.29
603.16	866.00
603.31	748.97
603.47	491.51
603.62	308.95
603.78	367.46
603.94	341.72
604.09	224.69
604.25	379.17
604.40	334.70
604.56	313.63
604.71	327.68
604.87	280.86
605.03	280.86
605.18	322.99
605.34	379.17
605.49	280.86
605.65	367.46
605.80	320.65
605.96	294.91
606.12	217.67
606.27	358.10
606.43	308.95
606.58	404.91
606.74	676.41
606.89	2293.72
607.05	4304.25
607.20	5256.84
607.36	4339.35
607.51	3028.65
607.67	2108.82
607.82	1497.94
607.98	828.55
608.13	617.90
608.29	425.98
608.44	468.11
608.60	468.11
608.75	531.30
608.91	976.00
609.06	3695.71
609.22	7246.30
609.37	8997.02
609.53	7815.05
609.68	5472.17
609.84	3646.55
609.99	2609.70
610.15	1528.37
610.30	968.98
610.46	784.08
610.61	767.70
610.76	983.02
610.92	889.40
611.07	1090.69
611.23	1001.75
611.38	973.66
611.54	882.38
611.69	753.65
611.84	716.20
612.00	676.41
612.15	613.22
612.31	664.71
612.46	720.88
612.62	699.82
612.77	802.80
612.92	645.99
613.08	667.05
613.23	512.58
613.39	582.79
613.54	730.25
613.69	3297.81
613.85	8931.48
614.00	13811.50
614.15	14040.87
614.31	10078.35
614.46	6892.88
614.62	4538.30
614.77	2890.56
614.92	1427.73
615.08	816.85
615.23	550.03
615.38	550.03
615.54	557.05
615.69	770.04
615.84	1874.77
616.00	3311.86
616.15	3836.14
616.30	3272.07
616.46	2349.90
616.61	1614.97
616.76	1139.84
616.92	702.16
617.07	496.19
617.22	423.64
617.37	330.02
617.53	294.91
617.68	358.10
617.83	308.95
617.99	386.19
618.14	383.85
618.29	369.80
618.45	339.38
618.60	313.63
618.75	217.67
618.90	327.68
619.06	322.99
619.21	351.08
619.36	358.10
619.51	327.68
619.67	311.29
619.82	215.33
619.97	362.78
620.12	339.38
620.28	322.99
620.43	330.02
620.58	332.36
620.73	334.70
620.89	395.55
621.04	472.79
621.19	1102.39
621.34	1825.62
621.49	2284.36
621.65	2043.29
621.80	1652.42
621.95	1151.54
622.10	828.55
622.25	535.98
622.41	451.72
622.56	407.25
622.71	315.97
622.86	299.59
623.01	271.50
623.16	404.91
623.32	269.16
623.47	346.40
623.62	374.49
623.77	339.38
623.92	283.20
624.07	269.16
624.23	285.55
624.38	301.93
624.53	301.93
624.68	322.99
624.83	322.99
624.98	320.65
625.13	262.14
625.29	306.61
625.44	315.97
625.59	339.38
625.74	318.31
625.89	461.09
626.04	1579.86
626.19	4493.83
626.34	6626.06
626.49	7117.57
626.65	5135.14
626.80	3595.06
626.95	2588.63
627.10	1689.87
627.25	903.45
627.40	528.96
627.55	402.57
627.70	416.62
627.85	320.65
628.00	287.89
628.15	299.59
628.30	320.65
628.45	248.10
628.60	245.76
628.76	292.57
628.91	276.18
629.06	294.91
629.21	287.89
629.36	318.31
629.51	262.14
629.66	320.65
629.81	369.80
629.96	1060.26
630.11	1640.72
630.26	2090.10
630.41	1872.43
630.56	1338.79
630.71	952.60
630.86	812.17
631.01	458.74
631.16	381.51
631.31	500.87
631.46	245.76
631.61	334.70
631.76	294.91
631.91	241.08
632.06	252.78
632.21	264.48
632.36	318.31
632.51	271.50
632.66	386.19
632.81	863.66
632.96	2593.31
633.10	4355.74
633.25	5034.49
633.40	4060.83
633.55	2888.22
633.70	1977.75
633.85	1441.77
634.00	777.06
634.15	517.26
634.30	367.46
634.45	320.65
634.60	287.89
634.75	250.44
634.90	205.97
635.05	255.12
635.19	257.46
635.34	234.05
635.49	294.91
635.64	259.80
635.79	257.46
635.94	252.78
636.09	330.02
636.24	231.71
636.39	238.73
636.53	351.08
636.68	248.10
636.83	250.44
636.98	290.23
637.13	259.80
637.28	346.40
637.43	337.04
637.57	587.47
637.72	2122.87
637.87	5650.05
638.02	8402.52
638.17	8980.64
638.32	6827.34
638.46	4809.80
638.61	3368.03
638.76	2024.56
638.91	1078.99
639.06	613.22
639.20	425.98
639.35	447.04
639.50	627.26
639.65	3101.21
639.80	8769.99
639.94	12814.43
640.09	13429.99
640.24	10401.34
640.39	7283.75
640.54	4702.14
640.68	2956.10
640.83	1537.73
640.98	718.54
641.13	425.98
641.27	362.78
641.42	320.65
641.57	351.08
641.72	292.57
641.86	297.25
642.01	215.33
642.16	276.18
642.31	250.44
642.45	280.86
642.60	280.86
642.75	189.58
642.90	318.31
643.04	245.76
643.19	250.44
643.34	227.03
643.48	278.52
643.63	177.88
643.78	271.50
643.93	271.50
644.07	266.82
644.22	276.18
644.37	196.60
644.51	234.05
644.66	224.69
644.81	245.76
644.95	280.86
645.10	264.48
645.25	159.16
645.39	273.84
645.54	205.97
645.69	315.97
645.83	245.76
645.98	297.25
646.13	222.35
646.27	257.46
646.42	149.79
646.57	283.20
646.71	224.69
646.86	201.29
647.00	238.73
647.15	224.69
647.30	189.58
647.44	208.31
647.59	154.48
647.74	220.01
647.88	198.95
648.03	234.05
648.17	252.78
648.32	208.31
648.47	222.35
648.61	210.65
648.76	229.37
648.90	269.16
649.05	248.10
649.20	215.33
649.34	234.05
649.49	187.24
649.63	245.76
649.78	304.27
649.92	290.23
650.07	1366.87
650.21	3791.67
650.36	6078.37
650.51	7101.19
650.65	5769.42
650.80	4243.39
650.94	2843.75
651.09	1905.20
651.23	997.07
651.38	578.11
651.52	414.27
651.67	257.46
651.81	325.33
651.96	374.49
652.10	304.27
652.25	301.93
652.39	266.82
652.54	283.20
652.68	578.11
652.83	1308.36
652.97	2129.89
653.12	2654.17
653.26	2392.03
653.41	1692.21
653.55	1313.04
653.70	880.04
653.84	519.60
653.99	414.27
654.13	259.80
654.27	215.33
654.42	154.48
654.56	273.84
654.71	266.82
654.85	203.63
655.00	191.92
655.14	180.22
655.29	184.90
655.43	135.75
655.57	220.01
655.72	147.45
655.86	217.67
656.01	208.31
656.15	212.99
656.30	194.26
656.44	250.44
656.58	227.03
656.73	222.35
656.87	212.99
657.01	224.69
657.16	215.33
657.30	220.01
657.45	231.71
657.59	245.76
657.73	224.69
657.88	238.73
658.02	231.71
658.16	161.50
658.31	215.33
658.45	308.95
658.60	238.73
658.74	245.76
658.88	238.73
659.03	194.26
659.17	257.46
659.31	587.47
659.46	1795.19
659.60	3035.67
659.74	3726.13
659.89	3194.83
660.03	2338.20
660.17	1722.63
660.32	1128.14
660.46	746.63
660.60	472.79
660.74	339.38
660.89	224.69
661.03	234.05
661.17	147.45
661.32	149.79
661.46	173.20
661.60	201.29
661.74	180.22
661.89	234.05
662.03	170.86
662.17	301.93
662.31	234.05
662.46	292.57
662.60	227.03
662.74	248.10
662.88	217.67
663.03	154.48
663.17	252.78
663.31	201.29
663.45	196.60
663.60	250.44
663.74	241.08
663.88	138.09
664.02	266.82
664.17	292.57
664.31	175.54
664.45	236.39
664.59	180.22
664.73	205.97
664.88	245.76
665.02	264.48
665.16	198.95
665.30	313.63
665.44	229.37
665.59	156.82
665.73	215.33
665.87	220.01
666.01	255.12
666.15	198.95
666.29	205.97
666.44	227.03
666.58	227.03
666.72	280.86
666.86	245.76
667.00	262.14
667.14	379.17
667.28	1294.32
667.43	3302.50
667.57	5317.70
667.71	6026.88
667.85	5401.96
667.99	4093.60
668.13	2644.81
668.27	1600.93
668.41	973.66
668.56	543.00
668.70	449.38
668.84	287.89
668.98	280.86
669.12	257.46
669.26	262.14
669.40	287.89
669.54	243.42
669.68	236.39
669.82	196.60
669.96	224.69
670.10	224.69
670.25	229.37
670.39	140.43
670.53	121.71
670.67	124.05
670.81	257.46
670.95	241.08
671.09	327.68
671.23	1261.55
671.37	2768.85
671.51	3679.32
671.65	3875.93
671.79	3012.27
671.93	2345.22
672.07	1479.22
672.21	835.57
672.35	540.66
672.49	360.44
672.63	278.52
672.77	173.20
672.91	222.35
673.05	205.97
673.19	231.71
673.33	189.58
673.47	245.76
673.61	227.03
673.75	163.84
673.89	170.86
674.03	184.90
674.17	210.65
674.31	227.03
674.45	184.90
674.59	168.52
674.73	245.76
674.87	266.82
675.01	238.73
675.15	276.18
675.29	283.20
675.43	294.91
675.56	205.97
675.70	255.12
675.84	205.97
675.98	191.92
676.12	201.29
676.26	175.54
676.40	243.42
676.54	166.18
676.68	168.52
676.82	217.67
676.96	173.20
677.10	222.35
677.23	152.13
677.37	100.64
677.51	152.13
677.65	269.16
677.79	166.18
677.93	191.92
678.07	198.95
678.21	182.56
678.34	175.54
678.48	180.22
678.62	215.33
678.76	88.94
678.90	224.69
679.04	259.80
679.18	110.01
679.31	271.50
679.45	229.37
679.59	227.03
679.73	220.01
679.87	156.82
680.00	184.90
680.14	170.86
680.28	194.26
680.42	173.20
680.56	217.67
680.70	175.54
680.83	196.60
680.97	208.31
681.11	203.63
681.25	252.78
681.39	217.67
681.52	168.52
681.66	175.54
681.80	163.84
681.94	191.92
682.07	133.41
682.21	121.71
682.35	182.56
682.49	208.31
682.62	236.39
682.76	142.77
682.90	173.20
683.04	215.33
683.17	208.31
683.31	245.76
683.45	205.97
683.59	191.92
683.72	210.65
683.86	67.88
684.00	210.65
684.13	241.08
684.27	210.65
684.41	229.37
684.55	177.88
684.68	210.65
684.82	177.88
684.96	131.07
685.09	191.92
685.23	189.58
685.37	177.88
685.50	145.11
685.64	187.24
685.78	215.33
685.91	107.66
686.05	138.09
686.19	163.84
686.32	152.13
686.46	217.67
686.60	154.48
686.73	271.50
686.87	175.54
687.01	262.14
687.14	189.58
687.28	159.16
687.42	271.50
687.55	203.63
687.69	231.71
687.82	243.42
687.96	198.95
688.10	266.82
688.23	191.92
688.37	182.56
688.50	145.11
688.64	147.45
688.78	159.16
688.91	198.95
689.05	175.54
689.18	170.86
689.32	156.82
689.46	168.52
689.59	147.45
689.73	210.65
689.86	114.69
690.00	126.39
690.13	189.58
690.27	215.33
690.41	173.20
690.54	191.92
690.68	203.63
690.81	170.86
690.95	79.58
691.08	187.24
691.22	67.88
691.35	112.35
691.49	138.09
691.62	138.09
691.76	173.20
691.89	184.90
692.03	203.63
692.16	163.84
692.30	234.05
692.43	461.09
692.57	1320.06
692.70	2115.84
692.84	2787.58
692.97	2459.90
693.11	1886.47
693.24	1397.30
693.38	954.94
693.51	634.29
693.65	533.64
693.78	456.40
693.92	250.44
694.05	229.37
694.19	215.33
694.32	243.42
694.45	191.92
694.59	173.20
694.72	117.03
694.86	198.95
694.99	170.86
695.13	201.29
695.26	203.63
695.39	161.50
695.53	173.20
695.66	168.52
695.80	201.29
695.93	149.79
696.07	175.54
696.20	245.76
696.33	367.46
696.47	259.80
696.60	318.31
696.73	264.48
696.87	276.18
697.00	264.48
697.14	269.16
697.27	154.48
697.40	257.46
697.54	152.13
697.67	234.05
697.80	215.33
697.94	133.41
698.07	215.33
698.21	124.05
698.34	84.26
698.47	98.30
698.61	112.35
698.74	191.92
698.87	159.16
699.01	271.50
699.14	208.31
699.27	147.45
699.40	280.86
699.54	140.43
699.67	161.50
699.80	191.92
699.94	128.73
700.07	212.99
700.20	182.56
700.34	161.50
700.47	163.84
700.60	170.86
700.73	248.10
700.87	248.10
701.00	145.11
701.13	241.08
701.26	163.84
701.40	198.95
701.53	208.31
701.66	156.82
701.79	217.67
701.93	243.42
702.06	327.68
702.19	301.93
702.32	348.74
702.46	285.55
702.59	259.80
702.72	638.97
702.85	1858.39
702.99	3536.55
703.12	4777.03
703.25	5102.37
703.38	4472.76
703.51	3581.02
703.65	2661.19
703.78	1954.35
703.91	1322.40
704.04	901.11
704.17	592.16
704.31	437.68
704.44	294.91
704.57	208.31
704.70	248.10
704.83	243.42
704.96	145.11
705.10	212.99
705.23	156.82
>>>>>End Processed Spectral Data<<<<<
