SpectraSuite Data File
++++++++++++++++++++++++++++++++++++
Date: Fri Oct 04 11:34:09 GMT-05:00 2013
User: price-jones
Dark Spectrum Present: No
Reference Spectrum Present: No
Number of Sampled Component Spectra: 1
Spectrometers: USB2+H05261
Integration Time (usec): 100000 (USB2+H05261)
Spectra Averaged: 1 (USB2+H05261)
Boxcar Smoothing: 0 (USB2+H05261)
Correct for Electrical Dark: No (USB2+H05261)
Strobe/Lamp Enabled: No (USB2+H05261)
Correct for Detector Non-linearity: No (USB2+H05261)
Correct for Stray Light: No (USB2+H05261)
Number of Pixels in Processed Spectrum: 2048
>>>>>Begin Processed Spectral Data<<<<<
365.73	67.88
365.92	67.88
366.12	67.88
366.32	0.00
366.52	0.00
366.72	0.00
366.91	0.00
367.11	0.00
367.31	0.00
367.51	0.00
367.70	0.00
367.90	0.00
368.10	11.70
368.30	23.41
368.49	0.00
368.69	0.00
368.89	0.00
369.09	0.00
369.28	0.00
369.48	11.70
369.68	0.00
369.87	21.06
370.07	74.90
370.27	56.17
370.47	11.70
370.66	112.35
370.86	65.54
371.06	100.64
371.25	138.09
371.45	67.88
371.65	128.73
371.84	114.69
372.04	65.54
372.24	88.94
372.44	105.32
372.63	154.48
372.83	222.35
373.03	156.82
373.22	128.73
373.42	159.16
373.62	138.09
373.81	166.18
374.01	93.62
374.21	133.41
374.40	140.43
374.60	187.24
374.79	208.31
374.99	210.65
375.19	114.69
375.38	159.16
375.58	112.35
375.78	201.29
375.97	180.22
376.17	175.54
376.37	189.58
376.56	175.54
376.76	191.92
376.95	117.03
377.15	105.32
377.35	168.52
377.54	212.99
377.74	205.97
377.93	166.18
378.13	84.26
378.33	166.18
378.52	147.45
378.72	152.13
378.91	147.45
379.11	107.66
379.31	105.32
379.50	28.09
379.70	163.84
379.89	131.07
380.09	79.58
380.28	149.79
380.48	170.86
380.68	56.17
380.87	121.71
381.07	91.28
381.26	114.69
381.46	95.96
381.65	166.18
381.85	93.62
382.04	110.01
382.24	117.03
382.43	112.35
382.63	145.11
382.83	168.52
383.02	194.26
383.22	156.82
383.41	84.26
383.61	175.54
383.80	93.62
384.00	140.43
384.19	105.32
384.39	135.75
384.58	145.11
384.78	142.77
384.97	126.39
385.17	102.98
385.36	98.30
385.56	177.88
385.75	74.90
385.95	173.20
386.14	191.92
386.34	140.43
386.53	107.66
386.72	63.19
386.92	222.35
387.11	152.13
387.31	126.39
387.50	147.45
387.70	117.03
387.89	184.90
388.09	142.77
388.28	215.33
388.48	168.52
388.67	187.24
388.86	112.35
389.06	203.63
389.25	135.75
389.45	131.07
389.64	93.62
389.84	173.20
390.03	173.20
390.22	138.09
390.42	152.13
390.61	142.77
390.81	98.30
391.00	140.43
391.19	117.03
391.39	201.29
391.58	170.86
391.78	156.82
391.97	168.52
392.16	114.69
392.36	161.50
392.55	182.56
392.75	91.28
392.94	88.94
393.13	138.09
393.33	119.37
393.52	175.54
393.71	189.58
393.91	152.13
394.10	177.88
394.29	159.16
394.49	182.56
394.68	191.92
394.88	175.54
395.07	229.37
395.26	70.22
395.46	142.77
395.65	194.26
395.84	154.48
396.04	252.78
396.23	126.39
396.42	105.32
396.62	177.88
396.81	189.58
397.00	222.35
397.19	119.37
397.39	112.35
397.58	238.73
397.77	117.03
397.97	121.71
398.16	114.69
398.35	170.86
398.55	177.88
398.74	110.01
398.93	163.84
399.12	229.37
399.32	91.28
399.51	168.52
399.70	147.45
399.90	194.26
400.09	128.73
400.28	124.05
400.47	140.43
400.67	154.48
400.86	138.09
401.05	159.16
401.24	203.63
401.44	152.13
401.63	196.60
401.82	212.99
402.01	227.03
402.21	173.20
402.40	182.56
402.59	138.09
402.78	187.24
402.97	180.22
403.17	147.45
403.36	159.16
403.55	133.41
403.74	140.43
403.93	229.37
404.13	344.06
404.32	238.73
404.51	234.05
404.70	182.56
404.89	212.99
405.09	163.84
405.28	163.84
405.47	91.28
405.66	229.37
405.85	236.39
406.05	152.13
406.24	110.01
406.43	177.88
406.62	168.52
406.81	180.22
407.00	135.75
407.20	173.20
407.39	156.82
407.58	124.05
407.77	175.54
407.96	215.33
408.15	163.84
408.34	147.45
408.54	114.69
408.73	203.63
408.92	133.41
409.11	205.97
409.30	124.05
409.49	126.39
409.68	135.75
409.87	121.71
410.07	70.22
410.26	182.56
410.45	126.39
410.64	138.09
410.83	79.58
411.02	93.62
411.21	196.60
411.40	175.54
411.59	121.71
411.78	117.03
411.98	201.29
412.17	201.29
412.36	210.65
412.55	156.82
412.74	119.37
412.93	175.54
413.12	124.05
413.31	210.65
413.50	135.75
413.69	205.97
413.88	182.56
414.07	105.32
414.26	217.67
414.45	166.18
414.64	191.92
414.83	135.75
415.02	182.56
415.22	215.33
415.41	175.54
415.60	177.88
415.79	154.48
415.98	210.65
416.17	182.56
416.36	140.43
416.55	191.92
416.74	166.18
416.93	257.46
417.12	184.90
417.31	159.16
417.50	152.13
417.69	236.39
417.88	290.23
418.07	212.99
418.26	173.20
418.45	175.54
418.64	322.99
418.83	271.50
419.02	304.27
419.21	212.99
419.39	212.99
419.58	217.67
419.77	201.29
419.96	341.72
420.15	220.01
420.34	241.08
420.53	196.60
420.72	203.63
420.91	119.37
421.10	208.31
421.29	201.29
421.48	210.65
421.67	152.13
421.86	173.20
422.05	163.84
422.24	166.18
422.43	191.92
422.61	182.56
422.80	93.62
422.99	266.82
423.18	156.82
423.37	177.88
423.56	227.03
423.75	241.08
423.94	124.05
424.13	152.13
424.32	135.75
424.50	187.24
424.69	114.69
424.88	222.35
425.07	145.11
425.26	177.88
425.45	234.05
425.64	290.23
425.83	250.44
426.01	301.93
426.20	210.65
426.39	135.75
426.58	161.50
426.77	138.09
426.96	189.58
427.15	203.63
427.33	138.09
427.52	145.11
427.71	110.01
427.90	145.11
428.09	201.29
428.28	196.60
428.46	154.48
428.65	187.24
428.84	154.48
429.03	255.12
429.22	170.86
429.40	224.69
429.59	91.28
429.78	229.37
429.97	91.28
430.16	159.16
430.34	142.77
430.53	177.88
430.72	175.54
430.91	187.24
431.10	177.88
431.28	210.65
431.47	177.88
431.66	126.39
431.85	159.16
432.03	177.88
432.22	271.50
432.41	210.65
432.60	217.67
432.79	215.33
432.97	355.76
433.16	318.31
433.35	292.57
433.54	243.42
433.72	236.39
433.91	231.71
434.10	238.73
434.28	243.42
434.47	280.86
434.66	269.16
434.85	147.45
435.03	266.82
435.22	353.42
435.41	475.13
435.59	470.45
435.78	297.25
435.97	250.44
436.16	241.08
436.34	161.50
436.53	194.26
436.72	280.86
436.90	212.99
437.09	180.22
437.28	173.20
437.46	177.88
437.65	205.97
437.84	238.73
438.02	227.03
438.21	198.95
438.40	84.26
438.58	189.58
438.77	187.24
438.96	264.48
439.14	86.60
439.33	166.18
439.52	210.65
439.70	175.54
439.89	208.31
440.08	205.97
440.26	177.88
440.45	212.99
440.63	203.63
440.82	175.54
441.01	126.39
441.19	250.44
441.38	180.22
441.57	149.79
441.75	138.09
441.94	166.18
442.12	198.95
442.31	201.29
442.50	124.05
442.68	208.31
442.87	205.97
443.05	173.20
443.24	166.18
443.43	194.26
443.61	229.37
443.80	217.67
443.98	189.58
444.17	177.88
444.35	220.01
444.54	210.65
444.73	245.76
444.91	184.90
445.10	84.26
445.28	187.24
445.47	205.97
445.65	201.29
445.84	203.63
446.02	227.03
446.21	203.63
446.39	191.92
446.58	161.50
446.77	140.43
446.95	140.43
447.14	187.24
447.32	196.60
447.51	215.33
447.69	198.95
447.88	184.90
448.06	229.37
448.25	140.43
448.43	203.63
448.62	175.54
448.80	194.26
448.99	180.22
449.17	241.08
449.36	175.54
449.54	191.92
449.73	145.11
449.91	182.56
450.10	236.39
450.28	201.29
450.46	241.08
450.65	196.60
450.83	217.67
451.02	189.58
451.20	271.50
451.39	88.94
451.57	91.28
451.76	208.31
451.94	212.99
452.13	145.11
452.31	215.33
452.49	245.76
452.68	269.16
452.86	177.88
453.05	212.99
453.23	224.69
453.42	175.54
453.60	220.01
453.78	210.65
453.97	142.77
454.15	238.73
454.34	187.24
454.52	161.50
454.70	236.39
454.89	131.07
455.07	175.54
455.26	248.10
455.44	229.37
455.62	222.35
455.81	124.05
455.99	107.66
456.17	215.33
456.36	215.33
456.54	182.56
456.73	147.45
456.91	203.63
457.09	180.22
457.28	177.88
457.46	175.54
457.64	184.90
457.83	182.56
458.01	208.31
458.19	166.18
458.38	184.90
458.56	152.13
458.74	149.79
458.93	231.71
459.11	131.07
459.29	140.43
459.48	252.78
459.66	170.86
459.84	212.99
460.03	315.97
460.21	231.71
460.39	243.42
460.57	252.78
460.76	184.90
460.94	175.54
461.12	285.55
461.31	215.33
461.49	191.92
461.67	175.54
461.85	100.64
462.04	168.52
462.22	386.19
462.40	154.48
462.59	201.29
462.77	234.05
462.95	217.67
463.13	222.35
463.32	203.63
463.50	201.29
463.68	198.95
463.86	203.63
464.05	159.16
464.23	259.80
464.41	175.54
464.59	154.48
464.78	163.84
464.96	189.58
465.14	231.71
465.32	215.33
465.50	168.52
465.69	175.54
465.87	201.29
466.05	271.50
466.23	224.69
466.41	173.20
466.60	217.67
466.78	152.13
466.96	182.56
467.14	215.33
467.32	255.12
467.51	243.42
467.69	180.22
467.87	189.58
468.05	191.92
468.23	250.44
468.41	276.18
468.60	208.31
468.78	163.84
468.96	175.54
469.14	255.12
469.32	205.97
469.50	173.20
469.69	205.97
469.87	194.26
470.05	166.18
470.23	196.60
470.41	142.77
470.59	212.99
470.77	170.86
470.95	224.69
471.14	203.63
471.32	210.65
471.50	358.10
471.68	133.41
471.86	201.29
472.04	184.90
472.22	245.76
472.40	241.08
472.58	184.90
472.77	243.42
472.95	210.65
473.13	241.08
473.31	170.86
473.49	182.56
473.67	227.03
473.85	264.48
474.03	245.76
474.21	187.24
474.39	266.82
474.57	203.63
474.75	170.86
474.93	166.18
475.12	203.63
475.30	252.78
475.48	234.05
475.66	168.52
475.84	191.92
476.02	168.52
476.20	191.92
476.38	161.50
476.56	266.82
476.74	194.26
476.92	196.60
477.10	243.42
477.28	133.41
477.46	152.13
477.64	243.42
477.82	201.29
478.00	243.42
478.18	187.24
478.36	231.71
478.54	119.37
478.72	262.14
478.90	229.37
479.08	224.69
479.26	203.63
479.44	205.97
479.62	168.52
479.80	238.73
479.98	241.08
480.16	182.56
480.34	191.92
480.52	241.08
480.70	170.86
480.88	117.03
481.06	182.56
481.24	145.11
481.41	257.46
481.59	236.39
481.77	121.71
481.95	245.76
482.13	203.63
482.31	224.69
482.49	196.60
482.67	205.97
482.85	255.12
483.03	325.33
483.21	306.61
483.39	182.56
483.57	245.76
483.74	255.12
483.92	259.80
484.10	222.35
484.28	212.99
484.46	231.71
484.64	222.35
484.82	208.31
485.00	194.26
485.18	220.01
485.35	262.14
485.53	234.05
485.71	220.01
485.89	241.08
486.07	203.63
486.25	276.18
486.43	212.99
486.61	294.91
486.78	327.68
486.96	161.50
487.14	299.59
487.32	262.14
487.50	287.89
487.68	287.89
487.85	196.60
488.03	337.04
488.21	294.91
488.39	299.59
488.57	273.84
488.75	283.20
488.92	559.39
489.10	236.39
489.28	301.93
489.46	215.33
489.64	304.27
489.81	222.35
489.99	212.99
490.17	266.82
490.35	341.72
490.53	287.89
490.70	231.71
490.88	236.39
491.06	294.91
491.24	252.78
491.41	262.14
491.59	252.78
491.77	252.78
491.95	292.57
492.13	250.44
492.30	220.01
492.48	320.65
492.66	276.18
492.84	255.12
493.01	294.91
493.19	227.03
493.37	332.36
493.54	327.68
493.72	271.50
493.90	241.08
494.08	238.73
494.25	285.55
494.43	306.61
494.61	259.80
494.79	280.86
494.96	248.10
495.14	212.99
495.32	255.12
495.49	238.73
495.67	243.42
495.85	287.89
496.02	198.95
496.20	290.23
496.38	320.65
496.55	152.13
496.73	285.55
496.91	259.80
497.09	353.42
497.26	259.80
497.44	276.18
497.62	278.52
497.79	224.69
497.97	269.16
498.14	273.84
498.32	241.08
498.50	248.10
498.67	187.24
498.85	231.71
499.03	276.18
499.20	241.08
499.38	205.97
499.56	203.63
499.73	257.46
499.91	269.16
500.08	259.80
500.26	234.05
500.44	231.71
500.61	283.20
500.79	285.55
500.97	184.90
501.14	273.84
501.32	264.48
501.49	276.18
501.67	269.16
501.84	271.50
502.02	301.93
502.20	259.80
502.37	271.50
502.55	266.82
502.72	278.52
502.90	311.29
503.07	255.12
503.25	276.18
503.43	315.97
503.60	313.63
503.78	311.29
503.95	304.27
504.13	250.44
504.30	299.59
504.48	201.29
504.65	269.16
504.83	238.73
505.01	234.05
505.18	283.20
505.36	210.65
505.53	234.05
505.71	236.39
505.88	215.33
506.06	290.23
506.23	241.08
506.41	269.16
506.58	215.33
506.76	248.10
506.93	255.12
507.11	276.18
507.28	311.29
507.46	234.05
507.63	271.50
507.81	201.29
507.98	243.42
508.16	276.18
508.33	243.42
508.50	264.48
508.68	292.57
508.85	245.76
509.03	248.10
509.20	294.91
509.38	231.71
509.55	276.18
509.73	306.61
509.90	327.68
510.08	245.76
510.25	241.08
510.42	241.08
510.60	294.91
510.77	255.12
510.95	269.16
511.12	271.50
511.30	337.04
511.47	311.29
511.64	306.61
511.82	313.63
511.99	311.29
512.17	278.52
512.34	161.50
512.51	266.82
512.69	222.35
512.86	283.20
513.04	327.68
513.21	248.10
513.38	201.29
513.56	180.22
513.73	205.97
513.90	273.84
514.08	250.44
514.25	287.89
514.43	271.50
514.60	250.44
514.77	238.73
514.95	271.50
515.12	264.48
515.29	304.27
515.47	283.20
515.64	287.89
515.81	315.97
515.99	308.95
516.16	301.93
516.33	294.91
516.51	217.67
516.68	227.03
516.85	243.42
517.03	308.95
517.20	367.46
517.37	262.14
517.54	280.86
517.72	238.73
517.89	241.08
518.06	168.52
518.24	255.12
518.41	290.23
518.58	322.99
518.75	292.57
518.93	243.42
519.10	292.57
519.27	224.69
519.45	290.23
519.62	278.52
519.79	315.97
519.96	269.16
520.14	255.12
520.31	301.93
520.48	224.69
520.65	262.14
520.83	355.76
521.00	203.63
521.17	294.91
521.34	304.27
521.52	208.31
521.69	308.95
521.86	273.84
522.03	278.52
522.20	271.50
522.38	234.05
522.55	278.52
522.72	243.42
522.89	351.08
523.07	348.74
523.24	278.52
523.41	322.99
523.58	292.57
523.75	285.55
523.92	222.35
524.10	264.48
524.27	264.48
524.44	220.01
524.61	248.10
524.78	266.82
524.96	287.89
525.13	252.78
525.30	337.04
525.47	280.86
525.64	222.35
525.81	325.33
525.98	229.37
526.16	231.71
526.33	299.59
526.50	287.89
526.67	285.55
526.84	262.14
527.01	252.78
527.18	287.89
527.36	276.18
527.53	311.29
527.70	269.16
527.87	259.80
528.04	266.82
528.21	252.78
528.38	367.46
528.55	231.71
528.72	269.16
528.89	283.20
529.07	245.76
529.24	140.43
529.41	318.31
529.58	301.93
529.75	299.59
529.92	280.86
530.09	241.08
530.26	320.65
530.43	325.33
530.60	306.61
530.77	245.76
530.94	255.12
531.11	318.31
531.28	222.35
531.46	269.16
531.63	341.72
531.80	301.93
531.97	278.52
532.14	308.95
532.31	311.29
532.48	327.68
532.65	381.51
532.82	433.00
532.99	444.70
533.16	369.80
533.33	334.70
533.50	367.46
533.67	400.23
533.84	479.81
534.01	582.79
534.18	442.36
534.35	367.46
534.52	306.61
534.69	393.21
534.86	273.84
535.03	304.27
535.20	344.06
535.37	358.10
535.54	262.14
535.71	299.59
535.88	269.16
536.05	287.89
536.22	325.33
536.38	322.99
536.55	264.48
536.72	304.27
536.89	322.99
537.06	262.14
537.23	330.02
537.40	311.29
537.57	346.40
537.74	327.68
537.91	353.42
538.08	362.78
538.25	294.91
538.42	325.33
538.59	360.44
538.75	346.40
538.92	322.99
539.09	358.10
539.26	355.76
539.43	671.73
539.60	1299.00
539.77	1935.62
539.94	1877.11
540.11	1259.21
540.28	840.25
540.44	744.29
540.61	547.69
540.78	519.60
540.95	472.79
541.12	566.41
541.29	575.77
541.46	676.41
541.62	557.05
541.79	554.71
541.96	617.90
542.13	505.56
542.30	557.05
542.47	557.05
542.63	482.15
542.80	552.37
542.97	535.98
543.14	538.32
543.31	557.05
543.48	475.13
543.64	528.96
543.81	524.28
543.98	519.60
544.15	514.92
544.32	540.66
544.48	524.28
544.65	503.22
544.82	496.19
544.99	465.77
545.16	587.47
545.32	491.51
545.49	730.25
545.66	985.37
545.83	1032.18
546.00	868.34
546.16	685.78
546.33	608.54
546.50	507.90
546.67	430.66
546.83	440.02
547.00	383.85
547.17	472.79
547.34	409.59
547.50	428.32
547.67	374.49
547.84	367.46
548.00	418.96
548.17	435.34
548.34	322.99
548.51	414.27
548.67	411.93
548.84	430.66
549.01	360.44
549.18	449.38
549.34	447.04
549.51	421.30
549.68	414.27
549.84	353.42
550.01	414.27
550.18	454.06
550.34	369.80
550.51	255.12
550.68	402.57
550.84	351.08
551.01	318.31
551.18	400.23
551.34	341.72
551.51	362.78
551.68	299.59
551.84	322.99
552.01	341.72
552.18	404.91
552.34	372.15
552.51	344.06
552.68	395.55
552.84	285.55
553.01	337.04
553.18	308.95
553.34	372.15
553.51	297.25
553.67	407.25
553.84	348.74
554.01	276.18
554.17	374.49
554.34	280.86
554.51	330.02
554.67	306.61
554.84	332.36
555.00	374.49
555.17	308.95
555.33	252.78
555.50	330.02
555.67	318.31
555.83	301.93
556.00	311.29
556.16	402.57
556.33	339.38
556.50	332.36
556.66	292.57
556.83	224.69
556.99	229.37
557.16	341.72
557.32	241.08
557.49	365.12
557.65	248.10
557.82	273.84
557.98	234.05
558.15	262.14
558.32	283.20
558.48	259.80
558.65	353.42
558.81	238.73
558.98	271.50
559.14	285.55
559.31	337.04
559.47	271.50
559.64	241.08
559.80	339.38
559.97	236.39
560.13	325.33
560.30	308.95
560.46	283.20
560.63	299.59
560.79	311.29
560.96	332.36
561.12	283.20
561.29	346.40
561.45	341.72
561.61	301.93
561.78	311.29
561.94	308.95
562.11	285.55
562.27	294.91
562.44	292.57
562.60	252.78
562.77	236.39
562.93	400.23
563.10	245.76
563.26	278.52
563.42	280.86
563.59	276.18
563.75	308.95
563.92	259.80
564.08	372.15
564.24	220.01
564.41	273.84
564.57	229.37
564.74	330.02
564.90	294.91
565.07	273.84
565.23	266.82
565.39	365.12
565.56	271.50
565.72	301.93
565.88	337.04
566.05	280.86
566.21	353.42
566.38	327.68
566.54	355.76
566.70	257.46
566.87	273.84
567.03	308.95
567.19	262.14
567.36	297.25
567.52	290.23
567.68	276.18
567.85	257.46
568.01	276.18
568.17	255.12
568.34	308.95
568.50	381.51
568.66	278.52
568.83	486.83
568.99	374.49
569.15	238.73
569.32	208.31
569.48	212.99
569.64	250.44
569.81	227.03
569.97	278.52
570.13	245.76
570.30	287.89
570.46	236.39
570.62	234.05
570.78	280.86
570.95	234.05
571.11	273.84
571.27	299.59
571.43	311.29
571.60	280.86
571.76	318.31
571.92	308.95
572.09	292.57
572.25	217.67
572.41	255.12
572.57	318.31
572.74	334.70
572.90	231.71
573.06	344.06
573.22	299.59
573.38	266.82
573.55	217.67
573.71	269.16
573.87	341.72
574.03	325.33
574.20	308.95
574.36	372.15
574.52	397.89
574.68	454.06
574.84	367.46
575.01	318.31
575.17	287.89
575.33	306.61
575.49	353.42
575.65	393.21
575.82	348.74
575.98	610.88
576.14	770.04
576.30	922.17
576.46	718.54
576.62	755.99
576.79	601.52
576.95	433.00
577.11	397.89
577.27	348.74
577.43	341.72
577.59	360.44
577.75	344.06
577.92	299.59
578.08	372.15
578.24	306.61
578.40	479.81
578.56	456.40
578.72	425.98
578.88	526.62
579.04	465.77
579.21	463.43
579.37	374.49
579.53	423.64
579.69	461.09
579.85	425.98
580.01	493.85
580.17	505.56
580.33	411.93
580.49	463.43
580.65	414.27
580.82	404.91
580.98	498.53
581.14	451.72
581.30	470.45
581.46	543.00
581.62	793.44
581.78	788.76
581.94	727.91
582.10	585.13
582.26	585.13
582.42	491.51
582.58	444.70
582.74	561.73
582.90	531.30
583.06	603.86
583.22	580.45
583.38	636.63
583.54	650.67
583.70	704.50
583.86	821.53
584.02	964.30
584.18	1095.37
584.34	1406.66
584.50	3351.65
584.66	24657.54
584.82	59203.85
584.98	65535.00
585.14	65535.00
585.30	57499.94
585.46	35372.52
585.62	22099.34
585.78	9982.38
585.94	4105.30
586.10	1947.33
586.26	1315.38
586.42	1055.58
586.58	863.66
586.74	816.85
586.90	802.80
587.06	826.21
587.22	746.63
587.38	671.73
587.54	1338.79
587.70	3922.74
587.86	6799.26
588.02	7957.82
588.18	5483.88
588.34	3524.85
588.49	2340.54
588.65	1369.21
588.81	826.21
588.97	479.81
589.13	496.19
589.29	407.25
589.45	367.46
589.61	369.80
589.77	540.66
589.93	543.00
590.08	521.94
590.24	521.94
590.40	465.77
590.56	517.26
590.72	423.64
590.88	414.27
591.04	477.47
591.20	463.43
591.35	461.09
591.51	404.91
591.67	374.49
591.83	393.21
591.99	433.00
592.15	353.42
592.31	411.93
592.46	451.72
592.62	409.59
592.78	383.85
592.94	475.13
593.10	456.40
593.26	414.27
593.41	470.45
593.57	463.43
593.73	676.41
593.89	3030.99
594.05	8404.86
594.20	13238.07
594.36	12617.83
594.52	8397.84
594.68	5275.57
594.84	3405.48
594.99	1952.01
595.15	933.87
595.31	606.20
595.47	475.13
595.62	454.06
595.78	374.49
595.94	423.64
596.10	437.68
596.25	526.62
596.41	479.81
596.57	355.76
596.73	458.74
596.88	643.65
597.04	1624.33
597.20	2764.17
597.36	3288.45
597.51	2623.74
597.67	1823.28
597.83	1233.46
597.99	868.34
598.14	566.41
598.30	435.34
598.46	465.77
598.61	444.70
598.77	416.62
598.93	411.93
599.09	423.64
599.24	318.31
599.40	425.98
599.56	367.46
599.71	325.33
599.87	318.31
600.03	306.61
600.18	290.23
600.34	304.27
600.50	330.02
600.65	294.91
600.81	381.51
600.97	379.17
601.12	301.93
601.28	379.17
601.44	283.20
601.59	360.44
601.75	332.36
601.91	390.87
602.06	292.57
602.22	367.46
602.37	819.19
602.53	2066.69
602.69	3192.49
602.84	3569.32
603.00	2583.95
603.16	1767.10
603.31	1282.61
603.47	814.51
603.62	447.04
603.78	447.04
603.94	320.65
604.09	315.97
604.25	297.25
604.40	365.12
604.56	388.53
604.71	292.57
604.87	341.72
605.03	320.65
605.18	348.74
605.34	339.38
605.49	369.80
605.65	404.91
605.80	400.23
605.96	414.27
606.12	411.93
606.27	374.49
606.43	451.72
606.58	496.19
606.74	894.08
606.89	3754.22
607.05	8058.46
607.20	11344.58
607.36	9439.38
607.51	6516.05
607.67	4163.81
607.82	2883.54
607.98	1605.61
608.13	891.74
608.29	568.75
608.44	589.82
608.60	627.26
608.75	730.25
608.91	1268.57
609.06	5961.34
609.22	14164.92
609.37	20100.52
609.53	17336.35
609.68	11618.42
609.84	7400.77
609.99	5048.54
610.15	2956.10
610.30	1467.52
610.46	1048.56
610.61	1071.97
610.76	1125.80
610.92	1139.84
611.07	1186.65
611.23	1210.06
611.38	1284.95
611.54	1006.43
611.69	922.17
611.84	889.40
612.00	763.01
612.15	751.31
612.31	849.61
612.46	1013.45
612.62	1043.88
612.77	1137.50
612.92	901.11
613.08	819.19
613.23	692.80
613.39	751.31
613.54	1104.73
613.69	5153.86
613.85	16510.14
614.00	28884.55
614.15	31618.30
614.31	22207.00
614.46	14457.49
614.62	9610.24
614.77	5884.11
614.92	2738.43
615.08	1373.89
615.23	812.17
615.38	772.38
615.54	720.88
615.69	1057.92
615.84	3150.36
616.00	6326.47
616.15	8032.72
616.30	6895.22
616.46	4699.80
616.61	3108.23
616.76	2200.10
616.92	1196.01
617.07	608.54
617.22	528.96
617.37	493.85
617.53	425.98
617.68	418.96
617.83	428.32
617.99	484.49
618.14	472.79
618.29	437.68
618.45	430.66
618.60	390.87
618.75	334.70
618.90	327.68
619.06	332.36
619.21	355.76
619.36	393.21
619.51	339.38
619.67	318.31
619.82	327.68
619.97	423.64
620.12	348.74
620.28	346.40
620.43	351.08
620.58	365.12
620.73	409.59
620.89	372.15
621.04	578.11
621.19	1715.61
621.34	3281.43
621.49	4744.27
621.65	4374.46
621.80	3049.72
621.95	2040.95
622.10	1476.88
622.25	835.57
622.41	617.90
622.56	404.91
622.71	393.21
622.86	374.49
623.01	285.55
623.16	383.85
623.32	388.53
623.47	334.70
623.62	322.99
623.77	313.63
623.92	395.55
624.07	334.70
624.23	351.08
624.38	381.51
624.53	341.72
624.68	346.40
624.83	379.17
624.98	379.17
625.13	386.19
625.29	407.25
625.44	290.23
625.59	388.53
625.74	470.45
625.89	599.18
626.04	2525.44
626.19	7983.57
626.34	14054.92
626.49	16306.51
626.65	11948.43
626.80	8180.17
626.95	5507.28
627.10	3328.24
627.25	1750.72
627.40	763.01
627.55	524.28
627.70	486.83
627.85	463.43
628.00	339.38
628.15	313.63
628.30	407.25
628.45	332.36
628.60	341.72
628.76	308.95
628.91	264.48
629.06	348.74
629.21	304.27
629.36	397.89
629.51	280.86
629.66	407.25
629.81	484.49
629.96	1453.47
630.11	2892.90
630.26	4215.30
630.41	3847.84
630.56	2780.56
630.71	1886.47
630.86	1355.17
631.01	1013.45
631.16	566.41
631.31	482.15
631.46	437.68
631.61	332.36
631.76	388.53
631.91	325.33
632.06	416.62
632.21	374.49
632.36	374.49
632.51	440.02
632.66	519.60
632.81	1261.55
632.96	4283.18
633.10	8493.80
633.25	10998.18
633.40	8833.18
633.55	6167.31
633.70	4231.69
633.85	2909.29
634.00	1551.78
634.15	755.99
634.30	531.30
634.45	442.36
634.60	376.83
634.75	271.50
634.90	252.78
635.05	369.80
635.19	271.50
635.34	355.76
635.49	365.12
635.64	360.44
635.79	315.97
635.94	360.44
636.09	402.57
636.24	320.65
636.39	318.31
636.53	423.64
636.68	360.44
636.83	322.99
636.98	402.57
637.13	395.55
637.28	423.64
637.43	575.77
637.57	800.46
637.72	3590.38
637.87	10200.05
638.02	18352.14
638.17	20704.38
638.32	15126.88
638.46	10328.78
638.61	6977.14
638.76	4280.84
638.91	2036.27
639.06	1090.69
639.20	744.29
639.35	720.88
639.50	1118.78
639.65	4961.94
639.80	16271.40
639.94	27819.61
640.09	31695.53
640.24	23452.17
640.39	15506.05
640.54	10328.78
640.68	6335.83
640.83	3066.10
640.98	1390.28
641.13	840.25
641.27	589.82
641.42	496.19
641.57	472.79
641.72	386.19
641.86	365.12
642.01	369.80
642.16	400.23
642.31	292.57
642.45	255.12
642.60	280.86
642.75	278.52
642.90	355.76
643.04	234.05
643.19	168.52
643.34	313.63
643.48	269.16
643.63	266.82
643.78	358.10
643.93	294.91
644.07	252.78
644.22	283.20
644.37	212.99
644.51	313.63
644.66	248.10
644.81	264.48
644.95	248.10
645.10	212.99
645.25	241.08
645.39	304.27
645.54	306.61
645.69	320.65
645.83	187.24
645.98	318.31
646.13	224.69
646.27	322.99
646.42	241.08
646.57	285.55
646.71	313.63
646.86	142.77
647.00	191.92
647.15	266.82
647.30	255.12
647.44	269.16
647.59	269.16
647.74	231.71
647.88	311.29
648.03	285.55
648.17	351.08
648.32	297.25
648.47	203.63
648.61	297.25
648.76	266.82
648.90	264.48
649.05	308.95
649.20	250.44
649.34	229.37
649.49	306.61
649.63	297.25
649.78	414.27
649.92	475.13
650.07	1919.24
650.21	6759.47
650.36	12765.28
650.51	16498.44
650.65	13418.29
650.80	9467.47
650.94	6157.95
651.09	3978.91
651.23	1994.14
651.38	957.28
651.52	587.47
651.67	367.46
651.81	369.80
651.96	292.57
652.10	292.57
652.25	376.83
652.39	379.17
652.54	397.89
652.68	709.18
652.83	2183.72
652.97	4299.56
653.12	5930.92
653.26	5207.69
653.41	3709.75
653.55	2619.06
653.70	1781.15
653.84	1083.67
653.99	617.90
654.13	411.93
654.27	266.82
654.42	262.14
654.56	278.52
654.71	248.10
654.85	234.05
655.00	152.13
655.14	212.99
655.29	229.37
655.43	320.65
655.57	322.99
655.72	252.78
655.86	280.86
656.01	259.80
656.15	229.37
656.30	292.57
656.44	243.42
656.58	276.18
656.73	215.33
656.87	346.40
657.01	264.48
657.16	315.97
657.30	306.61
657.45	283.20
657.59	236.39
657.73	234.05
657.88	250.44
658.02	325.33
658.16	236.39
658.31	245.76
658.45	271.50
658.60	222.35
658.74	264.48
658.88	287.89
659.03	285.55
659.17	358.10
659.31	854.30
659.46	2949.08
659.60	6169.65
659.74	8194.22
659.89	6970.12
660.03	5188.97
660.17	3714.43
660.32	2239.89
660.46	1238.14
660.60	727.91
660.74	533.64
660.89	360.44
661.03	194.26
661.17	294.91
661.32	245.76
661.46	311.29
661.60	266.82
661.74	271.50
661.89	278.52
662.03	152.13
662.17	252.78
662.31	255.12
662.46	346.40
662.60	203.63
662.74	259.80
662.88	304.27
663.03	266.82
663.17	259.80
663.31	290.23
663.45	227.03
663.60	234.05
663.74	248.10
663.88	273.84
664.02	238.73
664.17	161.50
664.31	222.35
664.45	229.37
664.59	229.37
664.73	215.33
664.88	264.48
665.02	308.95
665.16	205.97
665.30	332.36
665.44	252.78
665.59	269.16
665.73	241.08
665.87	208.31
666.01	266.82
666.15	287.89
666.29	187.24
666.44	346.40
666.58	271.50
666.72	252.78
666.86	322.99
667.00	358.10
667.14	475.13
667.28	1891.15
667.43	6073.69
667.57	11082.44
667.71	14492.60
667.85	12397.82
667.99	9055.53
668.13	5856.02
668.27	3398.46
668.41	1888.81
668.56	1121.12
668.70	748.97
668.84	482.15
668.98	365.12
669.12	311.29
669.26	252.78
669.40	271.50
669.54	308.95
669.68	294.91
669.82	227.03
669.96	276.18
670.10	273.84
670.25	227.03
670.39	210.65
670.53	337.04
670.67	257.46
670.81	308.95
670.95	280.86
671.09	603.86
671.23	2263.30
671.37	5114.07
671.51	7903.99
671.65	8910.42
671.79	6988.84
671.93	4926.83
672.07	3045.04
672.21	1708.59
672.35	976.00
672.49	664.71
672.63	545.34
672.77	341.72
672.91	280.86
673.05	294.91
673.19	266.82
673.33	180.22
673.47	318.31
673.61	201.29
673.75	170.86
673.89	222.35
674.03	208.31
674.17	149.79
674.31	196.60
674.45	243.42
674.59	271.50
674.73	248.10
674.87	173.20
675.01	294.91
675.15	278.52
675.29	365.12
675.43	318.31
675.56	287.89
675.70	177.88
675.84	194.26
675.98	220.01
676.12	142.77
676.26	187.24
676.40	168.52
676.54	194.26
676.68	276.18
676.82	241.08
676.96	201.29
677.10	252.78
677.23	184.90
677.37	163.84
677.51	161.50
677.65	264.48
677.79	145.11
677.93	196.60
678.07	222.35
678.21	173.20
678.34	156.82
678.48	182.56
678.62	224.69
678.76	187.24
678.90	241.08
679.04	198.95
679.18	154.48
679.31	175.54
679.45	135.75
679.59	299.59
679.73	196.60
679.87	189.58
680.00	182.56
680.14	229.37
680.28	191.92
680.42	187.24
680.56	184.90
680.70	217.67
680.83	210.65
680.97	215.33
681.11	182.56
681.25	215.33
681.39	154.48
681.52	222.35
681.66	189.58
681.80	170.86
681.94	124.05
682.07	194.26
682.21	126.39
682.35	205.97
682.49	152.13
682.62	191.92
682.76	159.16
682.90	152.13
683.04	245.76
683.17	285.55
683.31	131.07
683.45	177.88
683.59	184.90
683.72	222.35
683.86	203.63
684.00	234.05
684.13	243.42
684.27	227.03
684.41	257.46
684.55	201.29
684.68	156.82
684.82	180.22
684.96	161.50
685.09	145.11
685.23	180.22
685.37	163.84
685.50	236.39
685.64	198.95
685.78	142.77
685.91	156.82
686.05	149.79
686.19	257.46
686.32	191.92
686.46	156.82
686.60	161.50
686.73	252.78
686.87	290.23
687.01	269.16
687.14	285.55
687.28	161.50
687.42	276.18
687.55	224.69
687.69	262.14
687.82	201.29
687.96	170.86
688.10	208.31
688.23	276.18
688.37	182.56
688.50	215.33
688.64	191.92
688.78	177.88
688.91	163.84
689.05	201.29
689.18	212.99
689.32	170.86
689.46	152.13
689.59	168.52
689.73	182.56
689.86	121.71
690.00	126.39
690.13	241.08
690.27	135.75
690.41	173.20
690.54	196.60
690.68	131.07
690.81	114.69
690.95	100.64
691.08	184.90
691.22	154.48
691.35	166.18
691.49	215.33
691.62	187.24
691.76	175.54
691.89	220.01
692.03	145.11
692.16	135.75
692.30	278.52
692.43	807.48
692.57	2368.62
692.70	4662.35
692.84	6211.78
692.97	5760.06
693.11	4234.03
693.24	3007.59
693.38	2108.82
693.51	1308.36
693.65	1001.75
693.78	648.33
693.92	449.38
694.05	301.93
694.19	325.33
694.32	224.69
694.45	161.50
694.59	198.95
694.72	142.77
694.86	217.67
694.99	201.29
695.13	149.79
695.26	266.82
695.39	257.46
695.53	262.14
695.66	224.69
695.80	163.84
695.93	168.52
696.07	236.39
696.20	416.62
696.33	510.24
696.47	517.26
696.60	545.34
696.73	421.30
696.87	402.57
697.00	355.76
697.14	259.80
697.27	184.90
697.40	278.52
697.54	191.92
697.67	203.63
697.80	145.11
697.94	201.29
698.07	194.26
698.21	175.54
698.34	201.29
698.47	119.37
698.61	182.56
698.74	212.99
698.87	166.18
699.01	231.71
699.14	180.22
699.27	271.50
699.40	278.52
699.54	234.05
699.67	250.44
699.80	215.33
699.94	245.76
700.07	114.69
700.20	203.63
700.34	182.56
700.47	205.97
700.60	159.16
700.73	208.31
700.87	198.95
701.00	163.84
701.13	135.75
701.26	196.60
701.40	248.10
701.53	255.12
701.66	154.48
701.79	198.95
701.93	168.52
702.06	388.53
702.19	521.94
702.32	552.37
702.46	514.92
702.59	601.52
702.72	1048.56
702.85	3019.29
702.99	6953.73
703.12	10785.19
703.25	12030.35
703.38	10300.70
703.51	8442.31
703.65	6366.26
703.78	4507.87
703.91	2981.84
704.04	1820.94
704.17	1130.48
704.31	793.44
704.44	524.28
704.57	334.70
704.70	257.46
704.83	266.82
704.96	257.46
705.10	259.80
705.23	203.63
>>>>>End Processed Spectral Data<<<<<
