SpectraSuite Data File
++++++++++++++++++++++++++++++++++++
Date: Fri Oct 04 11:33:47 GMT-05:00 2013
User: price-jones
Dark Spectrum Present: No
Reference Spectrum Present: No
Number of Sampled Component Spectra: 1
Spectrometers: USB2+H05261
Integration Time (usec): 100000 (USB2+H05261)
Spectra Averaged: 1 (USB2+H05261)
Boxcar Smoothing: 0 (USB2+H05261)
Correct for Electrical Dark: No (USB2+H05261)
Strobe/Lamp Enabled: No (USB2+H05261)
Correct for Detector Non-linearity: No (USB2+H05261)
Correct for Stray Light: No (USB2+H05261)
Number of Pixels in Processed Spectrum: 2048
>>>>>Begin Processed Spectral Data<<<<<
365.73	42.13
365.92	42.13
366.12	42.13
366.32	11.70
366.52	0.00
366.72	0.00
366.91	0.00
367.11	0.00
367.31	0.00
367.51	0.00
367.70	0.00
367.90	0.00
368.10	0.00
368.30	0.00
368.49	0.00
368.69	0.00
368.89	0.00
369.09	0.00
369.28	9.36
369.48	0.00
369.68	0.00
369.87	37.45
370.07	46.81
370.27	51.49
370.47	51.49
370.66	0.00
370.86	67.88
371.06	161.50
371.25	156.82
371.45	119.37
371.65	173.20
371.84	65.54
372.04	60.85
372.24	138.09
372.44	102.98
372.63	180.22
372.83	175.54
373.03	105.32
373.22	180.22
373.42	170.86
373.62	161.50
373.81	112.35
374.01	131.07
374.21	170.86
374.40	145.11
374.60	217.67
374.79	154.48
374.99	140.43
375.19	212.99
375.38	201.29
375.58	198.95
375.78	159.16
375.97	175.54
376.17	243.42
376.37	208.31
376.56	191.92
376.76	98.30
376.95	149.79
377.15	173.20
377.35	159.16
377.54	110.01
377.74	140.43
377.93	168.52
378.13	131.07
378.33	208.31
378.52	117.03
378.72	133.41
378.91	187.24
379.11	117.03
379.31	173.20
379.50	107.66
379.70	152.13
379.89	147.45
380.09	152.13
380.28	152.13
380.48	86.60
380.68	117.03
380.87	124.05
381.07	170.86
381.26	140.43
381.46	154.48
381.65	156.82
381.85	149.79
382.04	114.69
382.24	84.26
382.43	98.30
382.63	156.82
382.83	110.01
383.02	140.43
383.22	180.22
383.41	105.32
383.61	163.84
383.80	102.98
384.00	110.01
384.19	67.88
384.39	105.32
384.58	77.24
384.78	152.13
384.97	140.43
385.17	147.45
385.36	119.37
385.56	168.52
385.75	117.03
385.95	126.39
386.14	140.43
386.34	154.48
386.53	217.67
386.72	147.45
386.92	149.79
387.11	110.01
387.31	187.24
387.50	191.92
387.70	180.22
387.89	107.66
388.09	156.82
388.28	168.52
388.48	124.05
388.67	135.75
388.86	212.99
389.06	243.42
389.25	121.71
389.45	88.94
389.64	102.98
389.84	243.42
390.03	126.39
390.22	152.13
390.42	131.07
390.61	121.71
390.81	184.90
391.00	117.03
391.19	182.56
391.39	166.18
391.58	168.52
391.78	114.69
391.97	203.63
392.16	159.16
392.36	222.35
392.55	161.50
392.75	168.52
392.94	248.10
393.13	177.88
393.33	128.73
393.52	81.92
393.71	131.07
393.91	189.58
394.10	145.11
394.29	117.03
394.49	140.43
394.68	170.86
394.88	175.54
395.07	119.37
395.26	145.11
395.46	180.22
395.65	112.35
395.84	168.52
396.04	217.67
396.23	145.11
396.42	86.60
396.62	138.09
396.81	126.39
397.00	88.94
397.19	131.07
397.39	175.54
397.58	140.43
397.77	102.98
397.97	88.94
398.16	133.41
398.35	208.31
398.55	124.05
398.74	107.66
398.93	163.84
399.12	168.52
399.32	238.73
399.51	145.11
399.70	105.32
399.90	145.11
400.09	98.30
400.28	149.79
400.47	142.77
400.67	117.03
400.86	170.86
401.05	220.01
401.24	177.88
401.44	208.31
401.63	259.80
401.82	184.90
402.01	156.82
402.21	149.79
402.40	140.43
402.59	168.52
402.78	152.13
402.97	198.95
403.17	126.39
403.36	187.24
403.55	138.09
403.74	133.41
403.93	166.18
404.13	170.86
404.32	217.67
404.51	238.73
404.70	105.32
404.89	121.71
405.09	224.69
405.28	142.77
405.47	147.45
405.66	222.35
405.85	147.45
406.05	203.63
406.24	229.37
406.43	121.71
406.62	201.29
406.81	210.65
407.00	135.75
407.20	128.73
407.39	105.32
407.58	114.69
407.77	191.92
407.96	166.18
408.15	142.77
408.34	142.77
408.54	189.58
408.73	159.16
408.92	154.48
409.11	168.52
409.30	224.69
409.49	201.29
409.68	84.26
409.87	187.24
410.07	145.11
410.26	182.56
410.45	124.05
410.64	135.75
410.83	147.45
411.02	138.09
411.21	241.08
411.40	187.24
411.59	133.41
411.78	107.66
411.98	133.41
412.17	215.33
412.36	180.22
412.55	147.45
412.74	175.54
412.93	201.29
413.12	191.92
413.31	140.43
413.50	220.01
413.69	112.35
413.88	222.35
414.07	266.82
414.26	196.60
414.45	95.96
414.64	138.09
414.83	177.88
415.02	154.48
415.22	168.52
415.41	156.82
415.60	147.45
415.79	173.20
415.98	203.63
416.17	203.63
416.36	149.79
416.55	23.41
416.74	182.56
416.93	168.52
417.12	170.86
417.31	180.22
417.50	159.16
417.69	201.29
417.88	198.95
418.07	227.03
418.26	161.50
418.45	208.31
418.64	74.90
418.83	170.86
419.02	238.73
419.21	234.05
419.39	201.29
419.58	110.01
419.77	152.13
419.96	142.77
420.15	119.37
420.34	175.54
420.53	257.46
420.72	177.88
420.91	241.08
421.10	161.50
421.29	205.97
421.48	215.33
421.67	224.69
421.86	187.24
422.05	177.88
422.24	131.07
422.43	177.88
422.61	168.52
422.80	145.11
422.99	170.86
423.18	210.65
423.37	250.44
423.56	187.24
423.75	182.56
423.94	173.20
424.13	133.41
424.32	163.84
424.50	182.56
424.69	189.58
424.88	180.22
425.07	182.56
425.26	180.22
425.45	196.60
425.64	182.56
425.83	121.71
426.01	262.14
426.20	170.86
426.39	175.54
426.58	145.11
426.77	168.52
426.96	184.90
427.15	159.16
427.33	161.50
427.52	203.63
427.71	175.54
427.90	152.13
428.09	166.18
428.28	84.26
428.46	173.20
428.65	145.11
428.84	175.54
429.03	133.41
429.22	126.39
429.40	124.05
429.59	201.29
429.78	297.25
429.97	142.77
430.16	182.56
430.34	215.33
430.53	138.09
430.72	189.58
430.91	196.60
431.10	208.31
431.28	147.45
431.47	196.60
431.66	173.20
431.85	163.84
432.03	114.69
432.22	229.37
432.41	173.20
432.60	248.10
432.79	159.16
432.97	210.65
433.16	180.22
433.35	170.86
433.54	152.13
433.72	191.92
433.91	205.97
434.10	175.54
434.28	175.54
434.47	210.65
434.66	210.65
434.85	215.33
435.03	243.42
435.22	386.19
435.41	461.09
435.59	407.25
435.78	358.10
435.97	257.46
436.16	210.65
436.34	182.56
436.53	238.73
436.72	222.35
436.90	198.95
437.09	168.52
437.28	166.18
437.46	229.37
437.65	187.24
437.84	168.52
438.02	182.56
438.21	191.92
438.40	168.52
438.58	224.69
438.77	245.76
438.96	163.84
439.14	128.73
439.33	203.63
439.52	271.50
439.70	227.03
439.89	187.24
440.08	208.31
440.26	194.26
440.45	306.61
440.63	224.69
440.82	142.77
441.01	187.24
441.19	245.76
441.38	142.77
441.57	95.96
441.75	243.42
441.94	229.37
442.12	222.35
442.31	140.43
442.50	187.24
442.68	259.80
442.87	290.23
443.05	182.56
443.24	184.90
443.43	196.60
443.61	163.84
443.80	201.29
443.98	180.22
444.17	180.22
444.35	175.54
444.54	175.54
444.73	180.22
444.91	180.22
445.10	212.99
445.28	161.50
445.47	142.77
445.65	189.58
445.84	149.79
446.02	220.01
446.21	180.22
446.39	175.54
446.58	203.63
446.77	154.48
446.95	170.86
447.14	259.80
447.32	180.22
447.51	212.99
447.69	217.67
447.88	114.69
448.06	241.08
448.25	227.03
448.43	145.11
448.62	154.48
448.80	159.16
448.99	234.05
449.17	189.58
449.36	222.35
449.54	205.97
449.73	138.09
449.91	259.80
450.10	266.82
450.28	313.63
450.46	208.31
450.65	208.31
450.83	205.97
451.02	205.97
451.20	189.58
451.39	191.92
451.57	224.69
451.76	140.43
451.94	196.60
452.13	215.33
452.31	278.52
452.49	184.90
452.68	215.33
452.86	182.56
453.05	320.65
453.23	269.16
453.42	222.35
453.60	163.84
453.78	175.54
453.97	184.90
454.15	217.67
454.34	210.65
454.52	147.45
454.70	131.07
454.89	234.05
455.07	173.20
455.26	217.67
455.44	187.24
455.62	215.33
455.81	234.05
455.99	271.50
456.17	184.90
456.36	273.84
456.54	187.24
456.73	161.50
456.91	203.63
457.09	182.56
457.28	189.58
457.46	205.97
457.64	152.13
457.83	191.92
458.01	224.69
458.19	276.18
458.38	182.56
458.56	227.03
458.74	163.84
458.93	166.18
459.11	177.88
459.29	163.84
459.48	205.97
459.66	203.63
459.84	229.37
460.03	271.50
460.21	187.24
460.39	203.63
460.57	315.97
460.76	182.56
460.94	231.71
461.12	182.56
461.31	236.39
461.49	203.63
461.67	184.90
461.85	182.56
462.04	250.44
462.22	676.41
462.40	227.03
462.59	236.39
462.77	163.84
462.95	138.09
463.13	152.13
463.32	208.31
463.50	126.39
463.68	175.54
463.86	152.13
464.05	234.05
464.23	156.82
464.41	175.54
464.59	156.82
464.78	196.60
464.96	180.22
465.14	156.82
465.32	189.58
465.50	229.37
465.69	229.37
465.87	114.69
466.05	241.08
466.23	159.16
466.41	234.05
466.60	224.69
466.78	248.10
466.96	173.20
467.14	194.26
467.32	194.26
467.51	266.82
467.69	201.29
467.87	212.99
468.05	229.37
468.23	222.35
468.41	208.31
468.60	177.88
468.78	152.13
468.96	196.60
469.14	198.95
469.32	149.79
469.50	147.45
469.69	248.10
469.87	217.67
470.05	215.33
470.23	205.97
470.41	161.50
470.59	262.14
470.77	194.26
470.95	198.95
471.14	217.67
471.32	245.76
471.50	177.88
471.68	210.65
471.86	229.37
472.04	180.22
472.22	266.82
472.40	231.71
472.58	184.90
472.77	236.39
472.95	177.88
473.13	255.12
473.31	234.05
473.49	203.63
473.67	191.92
473.85	189.58
474.03	248.10
474.21	161.50
474.39	191.92
474.57	271.50
474.75	191.92
474.93	180.22
475.12	145.11
475.30	210.65
475.48	175.54
475.66	208.31
475.84	168.52
476.02	196.60
476.20	245.76
476.38	180.22
476.56	292.57
476.74	222.35
476.92	259.80
477.10	262.14
477.28	250.44
477.46	177.88
477.64	194.26
477.82	257.46
478.00	229.37
478.18	189.58
478.36	177.88
478.54	227.03
478.72	180.22
478.90	208.31
479.08	241.08
479.26	264.48
479.44	245.76
479.62	201.29
479.80	234.05
479.98	229.37
480.16	191.92
480.34	234.05
480.52	245.76
480.70	278.52
480.88	140.43
481.06	255.12
481.24	173.20
481.41	215.33
481.59	241.08
481.77	234.05
481.95	198.95
482.13	220.01
482.31	201.29
482.49	234.05
482.67	203.63
482.85	194.26
483.03	292.57
483.21	229.37
483.39	255.12
483.57	308.95
483.74	271.50
483.92	266.82
484.10	177.88
484.28	220.01
484.46	245.76
484.64	269.16
484.82	224.69
485.00	238.73
485.18	283.20
485.35	220.01
485.53	285.55
485.71	241.08
485.89	245.76
486.07	205.97
486.25	280.86
486.43	177.88
486.61	170.86
486.78	269.16
486.96	285.55
487.14	280.86
487.32	283.20
487.50	238.73
487.68	201.29
487.85	322.99
488.03	217.67
488.21	346.40
488.39	245.76
488.57	271.50
488.75	271.50
488.92	559.39
489.10	287.89
489.28	306.61
489.46	292.57
489.64	341.72
489.81	276.18
489.99	243.42
490.17	222.35
490.35	276.18
490.53	278.52
490.70	271.50
490.88	241.08
491.06	311.29
491.24	187.24
491.41	231.71
491.59	187.24
491.77	198.95
491.95	222.35
492.13	271.50
492.30	262.14
492.48	212.99
492.66	299.59
492.84	241.08
493.01	234.05
493.19	205.97
493.37	264.48
493.54	290.23
493.72	262.14
493.90	262.14
494.08	285.55
494.25	241.08
494.43	264.48
494.61	294.91
494.79	276.18
494.96	241.08
495.14	344.06
495.32	220.01
495.49	341.72
495.67	287.89
495.85	243.42
496.02	283.20
496.20	259.80
496.38	259.80
496.55	339.38
496.73	201.29
496.91	191.92
497.09	278.52
497.26	262.14
497.44	262.14
497.62	280.86
497.79	220.01
497.97	229.37
498.14	280.86
498.32	262.14
498.50	264.48
498.67	257.46
498.85	276.18
499.03	318.31
499.20	222.35
499.38	271.50
499.56	358.10
499.73	311.29
499.91	294.91
500.08	210.65
500.26	327.68
500.44	330.02
500.61	241.08
500.79	304.27
500.97	294.91
501.14	297.25
501.32	339.38
501.49	315.97
501.67	269.16
501.84	339.38
502.02	330.02
502.20	283.20
502.37	227.03
502.55	285.55
502.72	227.03
502.90	243.42
503.07	250.44
503.25	257.46
503.43	224.69
503.60	278.52
503.78	241.08
503.95	280.86
504.13	250.44
504.30	271.50
504.48	231.71
504.65	283.20
504.83	287.89
505.01	287.89
505.18	252.78
505.36	271.50
505.53	259.80
505.71	208.31
505.88	294.91
506.06	262.14
506.23	304.27
506.41	287.89
506.58	315.97
506.76	304.27
506.93	252.78
507.11	283.20
507.28	245.76
507.46	245.76
507.63	290.23
507.81	327.68
507.98	276.18
508.16	264.48
508.33	203.63
508.50	250.44
508.68	241.08
508.85	287.89
509.03	304.27
509.20	252.78
509.38	285.55
509.55	217.67
509.73	278.52
509.90	294.91
510.08	248.10
510.25	266.82
510.42	248.10
510.60	236.39
510.77	208.31
510.95	311.29
511.12	304.27
511.30	311.29
511.47	318.31
511.64	301.93
511.82	320.65
511.99	280.86
512.17	243.42
512.34	245.76
512.51	201.29
512.69	224.69
512.86	259.80
513.04	227.03
513.21	276.18
513.38	308.95
513.56	271.50
513.73	252.78
513.90	269.16
514.08	208.31
514.25	257.46
514.43	243.42
514.60	259.80
514.77	201.29
514.95	339.38
515.12	252.78
515.29	311.29
515.47	304.27
515.64	318.31
515.81	205.97
515.99	285.55
516.16	250.44
516.33	248.10
516.51	264.48
516.68	257.46
516.85	248.10
517.03	198.95
517.20	280.86
517.37	285.55
517.54	308.95
517.72	198.95
517.89	306.61
518.06	227.03
518.24	315.97
518.41	330.02
518.58	332.36
518.75	215.33
518.93	215.33
519.10	257.46
519.27	273.84
519.45	287.89
519.62	283.20
519.79	322.99
519.96	294.91
520.14	212.99
520.31	325.33
520.48	351.08
520.65	341.72
520.83	266.82
521.00	301.93
521.17	287.89
521.34	290.23
521.52	327.68
521.69	315.97
521.86	311.29
522.03	294.91
522.20	280.86
522.38	337.04
522.55	315.97
522.72	222.35
522.89	287.89
523.07	395.55
523.24	315.97
523.41	280.86
523.58	271.50
523.75	241.08
523.92	205.97
524.10	332.36
524.27	306.61
524.44	393.21
524.61	287.89
524.78	222.35
524.96	252.78
525.13	353.42
525.30	290.23
525.47	322.99
525.64	327.68
525.81	325.33
525.98	304.27
526.16	292.57
526.33	306.61
526.50	255.12
526.67	301.93
526.84	203.63
527.01	245.76
527.18	259.80
527.36	276.18
527.53	301.93
527.70	294.91
527.87	334.70
528.04	311.29
528.21	285.55
528.38	313.63
528.55	315.97
528.72	304.27
528.89	287.89
529.07	346.40
529.24	266.82
529.41	353.42
529.58	278.52
529.75	304.27
529.92	313.63
530.09	297.25
530.26	337.04
530.43	231.71
530.60	322.99
530.77	334.70
530.94	339.38
531.11	304.27
531.28	301.93
531.46	264.48
531.63	259.80
531.80	215.33
531.97	243.42
532.14	318.31
532.31	238.73
532.48	334.70
532.65	311.29
532.82	257.46
532.99	229.37
533.16	320.65
533.33	334.70
533.50	327.68
533.67	301.93
533.84	353.42
534.01	252.78
534.18	330.02
534.35	285.55
534.52	341.72
534.69	393.21
534.86	257.46
535.03	301.93
535.20	332.36
535.37	386.19
535.54	407.25
535.71	294.91
535.88	393.21
536.05	304.27
536.22	386.19
536.38	280.86
536.55	299.59
536.72	252.78
536.89	304.27
537.06	351.08
537.23	381.51
537.40	327.68
537.57	315.97
537.74	334.70
537.91	395.55
538.08	334.70
538.25	325.33
538.42	369.80
538.59	360.44
538.75	311.29
538.92	381.51
539.09	360.44
539.26	339.38
539.43	402.57
539.60	397.89
539.77	475.13
539.94	447.04
540.11	463.43
540.28	528.96
540.44	615.56
540.61	414.27
540.78	472.79
540.95	444.70
541.12	507.90
541.29	568.75
541.46	594.50
541.62	585.13
541.79	564.07
541.96	535.98
542.13	517.26
542.30	543.00
542.47	468.11
542.63	538.32
542.80	397.89
542.97	484.49
543.14	568.75
543.31	571.09
543.48	568.75
543.64	557.05
543.81	519.60
543.98	468.11
544.15	585.13
544.32	477.47
544.48	603.86
544.65	585.13
544.82	447.04
544.99	493.85
545.16	528.96
545.32	507.90
545.49	786.42
545.66	1046.22
545.83	1153.88
546.00	978.34
546.16	692.80
546.33	585.13
546.50	582.79
546.67	517.26
546.83	545.34
547.00	440.02
547.17	477.47
547.34	461.09
547.50	425.98
547.67	409.59
547.84	440.02
548.00	472.79
548.17	440.02
548.34	470.45
548.51	468.11
548.67	463.43
548.84	454.06
549.01	409.59
549.18	390.87
549.34	395.55
549.51	421.30
549.68	337.04
549.84	386.19
550.01	433.00
550.18	465.77
550.34	397.89
550.51	369.80
550.68	468.11
550.84	383.85
551.01	353.42
551.18	367.46
551.34	290.23
551.51	280.86
551.68	311.29
551.84	297.25
552.01	404.91
552.18	322.99
552.34	381.51
552.51	341.72
552.68	393.21
552.84	313.63
553.01	365.12
553.18	383.85
553.34	257.46
553.51	292.57
553.67	353.42
553.84	311.29
554.01	294.91
554.17	332.36
554.34	322.99
554.51	332.36
554.67	252.78
554.84	400.23
555.00	397.89
555.17	322.99
555.33	287.89
555.50	259.80
555.67	365.12
555.83	337.04
556.00	285.55
556.16	512.58
556.33	245.76
556.50	234.05
556.66	273.84
556.83	285.55
556.99	271.50
557.16	283.20
557.32	290.23
557.49	262.14
557.65	248.10
557.82	285.55
557.98	297.25
558.15	290.23
558.32	297.25
558.48	238.73
558.65	194.26
558.81	337.04
558.98	341.72
559.14	334.70
559.31	280.86
559.47	339.38
559.64	294.91
559.80	306.61
559.97	285.55
560.13	283.20
560.30	308.95
560.46	294.91
560.63	273.84
560.79	308.95
560.96	248.10
561.12	224.69
561.29	308.95
561.45	262.14
561.61	304.27
561.78	428.32
561.94	304.27
562.11	306.61
562.27	308.95
562.44	238.73
562.60	217.67
562.77	285.55
562.93	379.17
563.10	287.89
563.26	369.80
563.42	315.97
563.59	353.42
563.75	250.44
563.92	344.06
564.08	238.73
564.24	234.05
564.41	334.70
564.57	271.50
564.74	287.89
564.90	325.33
565.07	325.33
565.23	241.08
565.39	313.63
565.56	322.99
565.72	224.69
565.88	243.42
566.05	294.91
566.21	369.80
566.38	236.39
566.54	287.89
566.70	255.12
566.87	238.73
567.03	243.42
567.19	273.84
567.36	299.59
567.52	248.10
567.68	245.76
567.85	311.29
568.01	278.52
568.17	238.73
568.34	339.38
568.50	325.33
568.66	362.78
568.83	255.12
568.99	229.37
569.15	278.52
569.32	217.67
569.48	255.12
569.64	243.42
569.81	229.37
569.97	320.65
570.13	215.33
570.30	273.84
570.46	227.03
570.62	229.37
570.78	294.91
570.95	248.10
571.11	395.55
571.27	358.10
571.43	273.84
571.60	250.44
571.76	271.50
571.92	290.23
572.09	271.50
572.25	210.65
572.41	276.18
572.57	215.33
572.74	250.44
572.90	330.02
573.06	255.12
573.22	308.95
573.38	280.86
573.55	348.74
573.71	259.80
573.87	383.85
574.03	231.71
574.20	376.83
574.36	355.76
574.52	273.84
574.68	280.86
574.84	276.18
575.01	283.20
575.17	259.80
575.33	227.03
575.49	320.65
575.65	299.59
575.82	266.82
575.98	362.78
576.14	278.52
576.30	320.65
576.46	423.64
576.62	381.51
576.79	428.32
576.95	355.76
577.11	301.93
577.27	262.14
577.43	297.25
577.59	344.06
577.75	292.57
577.92	191.92
578.08	210.65
578.24	283.20
578.40	238.73
578.56	348.74
578.72	402.57
578.88	418.96
579.04	339.38
579.21	337.04
579.37	362.78
579.53	381.51
579.69	297.25
579.85	283.20
580.01	325.33
580.17	327.68
580.33	325.33
580.49	330.02
580.65	308.95
580.82	269.16
580.98	252.78
581.14	308.95
581.30	353.42
581.46	287.89
581.62	290.23
581.78	315.97
581.94	346.40
582.10	341.72
582.26	400.23
582.42	341.72
582.58	332.36
582.74	332.36
582.90	341.72
583.06	337.04
583.22	369.80
583.38	346.40
583.54	348.74
583.70	379.17
583.86	353.42
584.02	374.49
584.18	447.04
584.34	444.70
584.50	559.39
584.66	1612.63
584.82	3489.74
584.98	4978.32
585.14	4557.02
585.30	2956.10
585.46	1930.94
585.62	1303.68
585.78	774.72
585.94	468.11
586.10	447.04
586.26	334.70
586.42	318.31
586.58	411.93
586.74	348.74
586.90	313.63
587.06	491.51
587.22	421.30
587.38	383.85
587.54	489.17
587.70	585.13
587.86	634.29
588.02	636.63
588.18	580.45
588.34	463.43
588.49	299.59
588.65	376.83
588.81	299.59
588.97	337.04
589.13	212.99
589.29	334.70
589.45	280.86
589.61	283.20
589.77	315.97
589.93	292.57
590.08	236.39
590.24	315.97
590.40	304.27
590.56	311.29
590.72	383.85
590.88	297.25
591.04	318.31
591.20	308.95
591.35	341.72
591.51	245.76
591.67	306.61
591.83	290.23
591.99	348.74
592.15	369.80
592.31	379.17
592.46	341.72
592.62	341.72
592.78	358.10
592.94	271.50
593.10	421.30
593.26	299.59
593.41	330.02
593.57	369.80
593.73	294.91
593.89	458.74
594.05	802.80
594.20	903.45
594.36	968.98
594.52	608.54
594.68	543.00
594.84	404.91
594.99	397.89
595.15	290.23
595.31	301.93
595.47	362.78
595.62	341.72
595.78	262.14
595.94	264.48
596.10	259.80
596.25	334.70
596.41	297.25
596.57	315.97
596.73	297.25
596.88	379.17
597.04	400.23
597.20	402.57
597.36	428.32
597.51	402.57
597.67	400.23
597.83	362.78
597.99	355.76
598.14	351.08
598.30	339.38
598.46	313.63
598.61	404.91
598.77	379.17
598.93	276.18
599.09	292.57
599.24	278.52
599.40	367.46
599.56	346.40
599.71	222.35
599.87	304.27
600.03	290.23
600.18	379.17
600.34	264.48
600.50	315.97
600.65	306.61
600.81	341.72
600.97	266.82
601.12	299.59
601.28	297.25
601.44	353.42
601.59	252.78
601.75	313.63
601.91	327.68
602.06	294.91
602.22	365.12
602.37	334.70
602.53	360.44
602.69	482.15
602.84	409.59
603.00	390.87
603.16	379.17
603.31	311.29
603.47	311.29
603.62	250.44
603.78	278.52
603.94	297.25
604.09	257.46
604.25	344.06
604.40	262.14
604.56	259.80
604.71	306.61
604.87	234.05
605.03	313.63
605.18	191.92
605.34	332.36
605.49	304.27
605.65	266.82
605.80	224.69
605.96	262.14
606.12	362.78
606.27	351.08
606.43	313.63
606.58	287.89
606.74	320.65
606.89	449.38
607.05	734.93
607.20	889.40
607.36	706.84
607.51	622.58
607.67	540.66
607.82	400.23
607.98	472.79
608.13	318.31
608.29	308.95
608.44	346.40
608.60	315.97
608.75	468.11
608.91	395.55
609.06	730.25
609.22	1062.60
609.37	1188.99
609.53	1179.63
609.68	1015.79
609.84	788.76
609.99	702.16
610.15	594.50
610.30	603.86
610.46	662.37
610.61	842.59
610.76	844.93
610.92	1001.75
611.07	1060.26
611.23	1153.88
611.38	1090.69
611.54	943.24
611.69	856.64
611.84	638.97
612.00	655.35
612.15	592.16
612.31	559.39
612.46	615.56
612.62	519.60
612.77	594.50
612.92	524.28
613.08	433.00
613.23	477.47
613.39	486.83
613.54	444.70
613.69	685.78
613.85	1273.25
614.00	1708.59
614.15	1863.07
614.31	1385.60
614.46	1142.18
614.62	926.85
614.77	690.46
614.92	561.73
615.08	430.66
615.23	409.59
615.38	400.23
615.54	435.34
615.69	393.21
615.84	433.00
616.00	638.97
616.15	739.61
616.30	636.63
616.46	512.58
616.61	418.96
616.76	360.44
616.92	437.68
617.07	285.55
617.22	351.08
617.37	308.95
617.53	318.31
617.68	278.52
617.83	334.70
617.99	325.33
618.14	339.38
618.29	334.70
618.45	341.72
618.60	318.31
618.75	280.86
618.90	287.89
619.06	351.08
619.21	360.44
619.36	299.59
619.51	320.65
619.67	322.99
619.82	304.27
619.97	322.99
620.12	351.08
620.28	348.74
620.43	276.18
620.58	236.39
620.73	264.48
620.89	255.12
621.04	301.93
621.19	425.98
621.34	418.96
621.49	477.47
621.65	524.28
621.80	503.22
621.95	390.87
622.10	372.15
622.25	318.31
622.41	245.76
622.56	318.31
622.71	264.48
622.86	360.44
623.01	346.40
623.16	325.33
623.32	299.59
623.47	248.10
623.62	241.08
623.77	269.16
623.92	304.27
624.07	271.50
624.23	269.16
624.38	341.72
624.53	322.99
624.68	308.95
624.83	358.10
624.98	285.55
625.13	285.55
625.29	266.82
625.44	290.23
625.59	330.02
625.74	332.36
625.89	294.91
626.04	430.66
626.19	678.76
626.34	858.98
626.49	1107.07
626.65	767.70
626.80	645.99
626.95	524.28
627.10	433.00
627.25	372.15
627.40	271.50
627.55	344.06
627.70	318.31
627.85	257.46
628.00	236.39
628.15	222.35
628.30	238.73
628.45	327.68
628.60	313.63
628.76	236.39
628.91	322.99
629.06	299.59
629.21	255.12
629.36	290.23
629.51	222.35
629.66	297.25
629.81	290.23
629.96	379.17
630.11	477.47
630.26	421.30
630.41	519.60
630.56	477.47
630.71	433.00
630.86	440.02
631.01	276.18
631.16	383.85
631.31	294.91
631.46	376.83
631.61	294.91
631.76	236.39
631.91	280.86
632.06	273.84
632.21	266.82
632.36	255.12
632.51	255.12
632.66	255.12
632.81	322.99
632.96	472.79
633.10	564.07
633.25	732.59
633.40	674.07
633.55	564.07
633.70	414.27
633.85	337.04
634.00	266.82
634.15	304.27
634.30	280.86
634.45	238.73
634.60	245.76
634.75	234.05
634.90	259.80
635.05	224.69
635.19	287.89
635.34	231.71
635.49	257.46
635.64	205.97
635.79	222.35
635.94	231.71
636.09	365.12
636.24	220.01
636.39	220.01
636.53	318.31
636.68	248.10
636.83	271.50
636.98	276.18
637.13	262.14
637.28	344.06
637.43	252.78
637.57	308.95
637.72	472.79
637.87	795.78
638.02	1041.54
638.17	1210.06
638.32	912.81
638.46	711.52
638.61	526.62
638.76	416.62
638.91	327.68
639.06	241.08
639.20	306.61
639.35	358.10
639.50	297.25
639.65	484.49
639.80	1008.77
639.94	1481.56
640.09	1680.50
640.24	1359.85
640.39	1041.54
640.54	702.16
640.68	498.53
640.83	395.55
640.98	301.93
641.13	290.23
641.27	259.80
641.42	184.90
641.57	257.46
641.72	250.44
641.86	238.73
642.01	252.78
642.16	283.20
642.31	248.10
642.45	283.20
642.60	248.10
642.75	217.67
642.90	257.46
643.04	248.10
643.19	229.37
643.34	245.76
643.48	252.78
643.63	264.48
643.78	220.01
643.93	306.61
644.07	227.03
644.22	201.29
644.37	243.42
644.51	177.88
644.66	220.01
644.81	220.01
644.95	297.25
645.10	245.76
645.25	245.76
645.39	287.89
645.54	222.35
645.69	236.39
645.83	203.63
645.98	255.12
646.13	189.58
646.27	297.25
646.42	203.63
646.57	168.52
646.71	220.01
646.86	280.86
647.00	227.03
647.15	215.33
647.30	259.80
647.44	231.71
647.59	177.88
647.74	173.20
647.88	234.05
648.03	187.24
648.17	231.71
648.32	238.73
648.47	238.73
648.61	257.46
648.76	243.42
648.90	285.55
649.05	210.65
649.20	259.80
649.34	189.58
649.49	243.42
649.63	217.67
649.78	234.05
649.92	287.89
650.07	386.19
650.21	571.09
650.36	877.70
650.51	1032.18
650.65	957.28
650.80	641.31
650.94	505.56
651.09	435.34
651.23	273.84
651.38	322.99
651.52	203.63
651.67	266.82
651.81	269.16
651.96	266.82
652.10	290.23
652.25	266.82
652.39	245.76
652.54	212.99
652.68	313.63
652.83	283.20
652.97	482.15
653.12	564.07
653.26	433.00
653.41	454.06
653.55	327.68
653.70	280.86
653.84	287.89
653.99	271.50
654.13	212.99
654.27	273.84
654.42	149.79
654.56	262.14
654.71	250.44
654.85	180.22
655.00	236.39
655.14	196.60
655.29	191.92
655.43	280.86
655.57	266.82
655.72	215.33
655.86	243.42
656.01	133.41
656.15	255.12
656.30	227.03
656.44	191.92
656.58	194.26
656.73	313.63
656.87	262.14
657.01	269.16
657.16	255.12
657.30	259.80
657.45	198.95
657.59	250.44
657.73	227.03
657.88	248.10
658.02	311.29
658.16	180.22
658.31	166.18
658.45	252.78
658.60	238.73
658.74	227.03
658.88	210.65
659.03	243.42
659.17	252.78
659.31	236.39
659.46	262.14
659.60	514.92
659.74	587.47
659.89	564.07
660.03	397.89
660.17	400.23
660.32	327.68
660.46	339.38
660.60	259.80
660.74	196.60
660.89	198.95
661.03	250.44
661.17	248.10
661.32	212.99
661.46	180.22
661.60	236.39
661.74	299.59
661.89	241.08
662.03	184.90
662.17	229.37
662.31	222.35
662.46	212.99
662.60	175.54
662.74	161.50
662.88	222.35
663.03	229.37
663.17	252.78
663.31	198.95
663.45	198.95
663.60	198.95
663.74	191.92
663.88	205.97
664.02	280.86
664.17	215.33
664.31	215.33
664.45	182.56
664.59	271.50
664.73	229.37
664.88	224.69
665.02	243.42
665.16	196.60
665.30	245.76
665.44	257.46
665.59	217.67
665.73	194.26
665.87	210.65
666.01	168.52
666.15	215.33
666.29	238.73
666.44	175.54
666.58	322.99
666.72	184.90
666.86	201.29
667.00	311.29
667.14	210.65
667.28	276.18
667.43	559.39
667.57	753.65
667.71	931.53
667.85	753.65
667.99	610.88
668.13	456.40
668.27	376.83
668.41	346.40
668.56	271.50
668.70	306.61
668.84	227.03
668.98	278.52
669.12	194.26
669.26	273.84
669.40	236.39
669.54	245.76
669.68	182.56
669.82	100.64
669.96	210.65
670.10	262.14
670.25	278.52
670.39	252.78
670.53	222.35
670.67	145.11
670.81	175.54
670.95	227.03
671.09	191.92
671.23	388.53
671.37	517.26
671.51	580.45
671.65	685.78
671.79	578.11
671.93	416.62
672.07	348.74
672.21	346.40
672.35	285.55
672.49	212.99
672.63	245.76
672.77	280.86
672.91	156.82
673.05	231.71
673.19	203.63
673.33	243.42
673.47	264.48
673.61	231.71
673.75	205.97
673.89	126.39
674.03	210.65
674.17	198.95
674.31	170.86
674.45	273.84
674.59	220.01
674.73	166.18
674.87	252.78
675.01	280.86
675.15	175.54
675.29	290.23
675.43	220.01
675.56	212.99
675.70	224.69
675.84	205.97
675.98	203.63
676.12	140.43
676.26	222.35
676.40	114.69
676.54	198.95
676.68	203.63
676.82	189.58
676.96	170.86
677.10	201.29
677.23	168.52
677.37	175.54
677.51	177.88
677.65	187.24
677.79	250.44
677.93	212.99
678.07	154.48
678.21	241.08
678.34	210.65
678.48	196.60
678.62	243.42
678.76	252.78
678.90	194.26
679.04	208.31
679.18	121.71
679.31	187.24
679.45	205.97
679.59	217.67
679.73	161.50
679.87	161.50
680.00	156.82
680.14	191.92
680.28	175.54
680.42	156.82
680.56	161.50
680.70	201.29
680.83	259.80
680.97	196.60
681.11	177.88
681.25	149.79
681.39	231.71
681.52	170.86
681.66	175.54
681.80	173.20
681.94	142.77
682.07	182.56
682.21	154.48
682.35	220.01
682.49	177.88
682.62	234.05
682.76	175.54
682.90	170.86
683.04	212.99
683.17	231.71
683.31	135.75
683.45	173.20
683.59	245.76
683.72	170.86
683.86	159.16
684.00	140.43
684.13	187.24
684.27	201.29
684.41	269.16
684.55	140.43
684.68	180.22
684.82	152.13
684.96	182.56
685.09	177.88
685.23	182.56
685.37	234.05
685.50	231.71
685.64	222.35
685.78	212.99
685.91	215.33
686.05	243.42
686.19	220.01
686.32	222.35
686.46	210.65
686.60	110.01
686.73	308.95
686.87	280.86
687.01	63.19
687.14	203.63
687.28	220.01
687.42	198.95
687.55	161.50
687.69	196.60
687.82	184.90
687.96	208.31
688.10	191.92
688.23	187.24
688.37	220.01
688.50	184.90
688.64	203.63
688.78	147.45
688.91	210.65
689.05	145.11
689.18	135.75
689.32	191.92
689.46	133.41
689.59	149.79
689.73	187.24
689.86	187.24
690.00	224.69
690.13	180.22
690.27	131.07
690.41	182.56
690.54	234.05
690.68	215.33
690.81	175.54
690.95	201.29
691.08	131.07
691.22	145.11
691.35	145.11
691.49	131.07
691.62	220.01
691.76	133.41
691.89	170.86
692.03	121.71
692.16	191.92
692.30	266.82
692.43	210.65
692.57	330.02
692.70	374.49
692.84	510.24
692.97	379.17
693.11	318.31
693.24	374.49
693.38	229.37
693.51	252.78
693.65	227.03
693.78	163.84
693.92	140.43
694.05	196.60
694.19	131.07
694.32	224.69
694.45	187.24
694.59	161.50
694.72	168.52
694.86	161.50
694.99	196.60
695.13	154.48
695.26	177.88
695.39	168.52
695.53	187.24
695.66	184.90
695.80	140.43
695.93	135.75
696.07	119.37
696.20	133.41
696.33	245.76
696.47	177.88
696.60	170.86
696.73	131.07
696.87	161.50
697.00	238.73
697.14	126.39
697.27	201.29
697.40	198.95
697.54	201.29
697.67	283.20
697.80	194.26
697.94	175.54
698.07	161.50
698.21	63.19
698.34	88.94
698.47	194.26
698.61	86.60
698.74	173.20
698.87	191.92
699.01	248.10
699.14	168.52
699.27	152.13
699.40	194.26
699.54	159.16
699.67	121.71
699.80	140.43
699.94	166.18
700.07	126.39
700.20	159.16
700.34	117.03
700.47	117.03
700.60	142.77
700.73	159.16
700.87	264.48
701.00	159.16
701.13	145.11
701.26	187.24
701.40	212.99
701.53	184.90
701.66	42.13
701.79	182.56
701.93	182.56
702.06	220.01
702.19	208.31
702.32	238.73
702.46	170.86
702.59	170.86
702.72	88.94
702.85	344.06
702.99	540.66
703.12	660.03
703.25	730.25
703.38	580.45
703.51	528.96
703.65	437.68
703.78	388.53
703.91	339.38
704.04	301.93
704.17	189.58
704.31	168.52
704.44	152.13
704.57	112.35
704.70	262.14
704.83	222.35
704.96	241.08
705.10	163.84
705.23	187.24
>>>>>End Processed Spectral Data<<<<<
