SpectraSuite Data File
++++++++++++++++++++++++++++++++++++
Date: Fri Oct 04 11:33:54 GMT-05:00 2013
User: price-jones
Dark Spectrum Present: No
Reference Spectrum Present: No
Number of Sampled Component Spectra: 1
Spectrometers: USB2+H05261
Integration Time (usec): 100000 (USB2+H05261)
Spectra Averaged: 1 (USB2+H05261)
Boxcar Smoothing: 0 (USB2+H05261)
Correct for Electrical Dark: No (USB2+H05261)
Strobe/Lamp Enabled: No (USB2+H05261)
Correct for Detector Non-linearity: No (USB2+H05261)
Correct for Stray Light: No (USB2+H05261)
Number of Pixels in Processed Spectrum: 2048
>>>>>Begin Processed Spectral Data<<<<<
365.73	53.83
365.92	53.83
366.12	53.83
366.32	11.70
366.52	0.00
366.72	0.00
366.91	0.00
367.11	0.00
367.31	0.00
367.51	0.00
367.70	0.00
367.90	0.00
368.10	0.00
368.30	0.00
368.49	0.00
368.69	0.00
368.89	9.36
369.09	0.00
369.28	0.00
369.48	0.00
369.68	37.45
369.87	37.45
370.07	0.00
370.27	105.32
370.47	95.96
370.66	16.38
370.86	88.94
371.06	131.07
371.25	126.39
371.45	196.60
371.65	86.60
371.84	60.85
372.04	51.49
372.24	128.73
372.44	102.98
372.63	177.88
372.83	147.45
373.03	173.20
373.22	124.05
373.42	161.50
373.62	100.64
373.81	163.84
374.01	205.97
374.21	177.88
374.40	208.31
374.60	224.69
374.79	175.54
374.99	149.79
375.19	145.11
375.38	177.88
375.58	163.84
375.78	147.45
375.97	168.52
376.17	224.69
376.37	128.73
376.56	191.92
376.76	39.79
376.95	140.43
377.15	119.37
377.35	119.37
377.54	124.05
377.74	72.56
377.93	126.39
378.13	131.07
378.33	131.07
378.52	79.58
378.72	177.88
378.91	175.54
379.11	142.77
379.31	175.54
379.50	220.01
379.70	177.88
379.89	163.84
380.09	119.37
380.28	187.24
380.48	159.16
380.68	131.07
380.87	77.24
381.07	145.11
381.26	163.84
381.46	177.88
381.65	198.95
381.85	117.03
382.04	166.18
382.24	163.84
382.43	203.63
382.63	114.69
382.83	140.43
383.02	79.58
383.22	220.01
383.41	110.01
383.61	91.28
383.80	119.37
384.00	112.35
384.19	142.77
384.39	131.07
384.58	159.16
384.78	140.43
384.97	105.32
385.17	168.52
385.36	114.69
385.56	163.84
385.75	72.56
385.95	135.75
386.14	191.92
386.34	147.45
386.53	166.18
386.72	145.11
386.92	168.52
387.11	140.43
387.31	173.20
387.50	133.41
387.70	124.05
387.89	135.75
388.09	98.30
388.28	77.24
388.48	154.48
388.67	194.26
388.86	98.30
389.06	131.07
389.25	194.26
389.45	147.45
389.64	140.43
389.84	212.99
390.03	184.90
390.22	147.45
390.42	86.60
390.61	161.50
390.81	107.66
391.00	145.11
391.19	173.20
391.39	121.71
391.58	119.37
391.78	98.30
391.97	177.88
392.16	117.03
392.36	175.54
392.55	119.37
392.75	131.07
392.94	56.17
393.13	147.45
393.33	191.92
393.52	98.30
393.71	196.60
393.91	149.79
394.10	177.88
394.29	149.79
394.49	250.44
394.68	194.26
394.88	152.13
395.07	147.45
395.26	161.50
395.46	147.45
395.65	201.29
395.84	238.73
396.04	255.12
396.23	184.90
396.42	128.73
396.62	175.54
396.81	159.16
397.00	121.71
397.19	112.35
397.39	145.11
397.58	135.75
397.77	126.39
397.97	112.35
398.16	100.64
398.35	72.56
398.55	133.41
398.74	142.77
398.93	119.37
399.12	145.11
399.32	124.05
399.51	196.60
399.70	166.18
399.90	133.41
400.09	86.60
400.28	182.56
400.47	154.48
400.67	149.79
400.86	140.43
401.05	168.52
401.24	182.56
401.44	205.97
401.63	187.24
401.82	177.88
402.01	72.56
402.21	175.54
402.40	175.54
402.59	217.67
402.78	131.07
402.97	177.88
403.17	234.05
403.36	140.43
403.55	117.03
403.74	145.11
403.93	191.92
404.13	243.42
404.32	234.05
404.51	266.82
404.70	205.97
404.89	159.16
405.09	156.82
405.28	161.50
405.47	156.82
405.66	135.75
405.85	124.05
406.05	135.75
406.24	147.45
406.43	154.48
406.62	208.31
406.81	177.88
407.00	152.13
407.20	187.24
407.39	114.69
407.58	149.79
407.77	133.41
407.96	182.56
408.15	220.01
408.34	170.86
408.54	189.58
408.73	210.65
408.92	107.66
409.11	95.96
409.30	128.73
409.49	156.82
409.68	88.94
409.87	117.03
410.07	79.58
410.26	154.48
410.45	135.75
410.64	149.79
410.83	182.56
411.02	135.75
411.21	187.24
411.40	184.90
411.59	145.11
411.78	128.73
411.98	182.56
412.17	168.52
412.36	166.18
412.55	133.41
412.74	161.50
412.93	198.95
413.12	142.77
413.31	170.86
413.50	173.20
413.69	142.77
413.88	133.41
414.07	198.95
414.26	100.64
414.45	105.32
414.64	117.03
414.83	203.63
415.02	152.13
415.22	210.65
415.41	173.20
415.60	175.54
415.79	238.73
415.98	287.89
416.17	180.22
416.36	222.35
416.55	194.26
416.74	159.16
416.93	184.90
417.12	191.92
417.31	212.99
417.50	133.41
417.69	276.18
417.88	259.80
418.07	255.12
418.26	173.20
418.45	212.99
418.64	269.16
418.83	271.50
419.02	196.60
419.21	243.42
419.39	238.73
419.58	163.84
419.77	224.69
419.96	250.44
420.15	208.31
420.34	184.90
420.53	163.84
420.72	166.18
420.91	177.88
421.10	191.92
421.29	168.52
421.48	208.31
421.67	229.37
421.86	145.11
422.05	182.56
422.24	107.66
422.43	168.52
422.61	131.07
422.80	170.86
422.99	112.35
423.18	180.22
423.37	173.20
423.56	159.16
423.75	208.31
423.94	121.71
424.13	187.24
424.32	100.64
424.50	114.69
424.69	126.39
424.88	159.16
425.07	262.14
425.26	222.35
425.45	262.14
425.64	322.99
425.83	269.16
426.01	191.92
426.20	126.39
426.39	168.52
426.58	161.50
426.77	173.20
426.96	189.58
427.15	187.24
427.33	182.56
427.52	147.45
427.71	147.45
427.90	208.31
428.09	177.88
428.28	205.97
428.46	196.60
428.65	147.45
428.84	215.33
429.03	196.60
429.22	131.07
429.40	184.90
429.59	189.58
429.78	245.76
429.97	117.03
430.16	93.62
430.34	152.13
430.53	163.84
430.72	161.50
430.91	255.12
431.10	152.13
431.28	175.54
431.47	126.39
431.66	180.22
431.85	142.77
432.03	138.09
432.22	210.65
432.41	156.82
432.60	290.23
432.79	257.46
432.97	301.93
433.16	320.65
433.35	238.73
433.54	198.95
433.72	168.52
433.91	205.97
434.10	203.63
434.28	205.97
434.47	201.29
434.66	201.29
434.85	161.50
435.03	166.18
435.22	330.02
435.41	294.91
435.59	304.27
435.78	372.15
435.97	159.16
436.16	212.99
436.34	208.31
436.53	217.67
436.72	243.42
436.90	154.48
437.09	187.24
437.28	250.44
437.46	227.03
437.65	180.22
437.84	191.92
438.02	234.05
438.21	168.52
438.40	88.94
438.58	191.92
438.77	231.71
438.96	191.92
439.14	170.86
439.33	152.13
439.52	133.41
439.70	198.95
439.89	149.79
440.08	194.26
440.26	259.80
440.45	243.42
440.63	187.24
440.82	152.13
441.01	152.13
441.19	189.58
441.38	180.22
441.57	140.43
441.75	194.26
441.94	191.92
442.12	229.37
442.31	205.97
442.50	208.31
442.68	110.01
442.87	131.07
443.05	156.82
443.24	203.63
443.43	224.69
443.61	163.84
443.80	168.52
443.98	156.82
444.17	180.22
444.35	292.57
444.54	250.44
444.73	161.50
444.91	208.31
445.10	126.39
445.28	128.73
445.47	126.39
445.65	180.22
445.84	156.82
446.02	198.95
446.21	131.07
446.39	187.24
446.58	175.54
446.77	154.48
446.95	170.86
447.14	255.12
447.32	201.29
447.51	173.20
447.69	252.78
447.88	163.84
448.06	145.11
448.25	138.09
448.43	224.69
448.62	156.82
448.80	224.69
448.99	201.29
449.17	173.20
449.36	163.84
449.54	250.44
449.73	168.52
449.91	173.20
450.10	180.22
450.28	147.45
450.46	273.84
450.65	107.66
450.83	205.97
451.02	161.50
451.20	241.08
451.39	191.92
451.57	215.33
451.76	196.60
451.94	107.66
452.13	222.35
452.31	131.07
452.49	175.54
452.68	187.24
452.86	217.67
453.05	264.48
453.23	245.76
453.42	128.73
453.60	168.52
453.78	154.48
453.97	187.24
454.15	163.84
454.34	231.71
454.52	110.01
454.70	217.67
454.89	217.67
455.07	234.05
455.26	187.24
455.44	187.24
455.62	161.50
455.81	117.03
455.99	224.69
456.17	166.18
456.36	201.29
456.54	168.52
456.73	142.77
456.91	203.63
457.09	217.67
457.28	175.54
457.46	187.24
457.64	131.07
457.83	149.79
458.01	222.35
458.19	182.56
458.38	156.82
458.56	177.88
458.74	189.58
458.93	180.22
459.11	177.88
459.29	154.48
459.48	234.05
459.66	194.26
459.84	163.84
460.03	276.18
460.21	234.05
460.39	231.71
460.57	191.92
460.76	126.39
460.94	187.24
461.12	191.92
461.31	245.76
461.49	114.69
461.67	170.86
461.85	203.63
462.04	220.01
462.22	744.29
462.40	234.05
462.59	175.54
462.77	217.67
462.95	175.54
463.13	138.09
463.32	245.76
463.50	156.82
463.68	154.48
463.86	231.71
464.05	170.86
464.23	212.99
464.41	238.73
464.59	173.20
464.78	140.43
464.96	170.86
465.14	241.08
465.32	112.35
465.50	196.60
465.69	252.78
465.87	102.98
466.05	203.63
466.23	208.31
466.41	184.90
466.60	229.37
466.78	187.24
466.96	198.95
467.14	201.29
467.32	241.08
467.51	180.22
467.69	201.29
467.87	224.69
468.05	196.60
468.23	311.29
468.41	180.22
468.60	182.56
468.78	231.71
468.96	241.08
469.14	236.39
469.32	163.84
469.50	163.84
469.69	234.05
469.87	208.31
470.05	229.37
470.23	236.39
470.41	215.33
470.59	191.92
470.77	287.89
470.95	191.92
471.14	205.97
471.32	212.99
471.50	210.65
471.68	177.88
471.86	205.97
472.04	182.56
472.22	266.82
472.40	147.45
472.58	194.26
472.77	182.56
472.95	215.33
473.13	222.35
473.31	184.90
473.49	227.03
473.67	156.82
473.85	210.65
474.03	236.39
474.21	220.01
474.39	229.37
474.57	264.48
474.75	149.79
474.93	161.50
475.12	121.71
475.30	205.97
475.48	177.88
475.66	177.88
475.84	184.90
476.02	180.22
476.20	180.22
476.38	231.71
476.56	285.55
476.74	187.24
476.92	220.01
477.10	189.58
477.28	187.24
477.46	170.86
477.64	194.26
477.82	222.35
478.00	168.52
478.18	196.60
478.36	210.65
478.54	184.90
478.72	184.90
478.90	243.42
479.08	203.63
479.26	220.01
479.44	191.92
479.62	224.69
479.80	201.29
479.98	196.60
480.16	152.13
480.34	215.33
480.52	182.56
480.70	140.43
480.88	168.52
481.06	203.63
481.24	234.05
481.41	187.24
481.59	301.93
481.77	238.73
481.95	142.77
482.13	215.33
482.31	145.11
482.49	222.35
482.67	210.65
482.85	220.01
483.03	220.01
483.21	290.23
483.39	227.03
483.57	241.08
483.74	210.65
483.92	224.69
484.10	212.99
484.28	262.14
484.46	376.83
484.64	180.22
484.82	194.26
485.00	259.80
485.18	224.69
485.35	203.63
485.53	229.37
485.71	311.29
485.89	229.37
486.07	287.89
486.25	266.82
486.43	250.44
486.61	222.35
486.78	255.12
486.96	318.31
487.14	262.14
487.32	222.35
487.50	201.29
487.68	173.20
487.85	271.50
488.03	236.39
488.21	320.65
488.39	337.04
488.57	290.23
488.75	262.14
488.92	512.58
489.10	248.10
489.28	285.55
489.46	205.97
489.64	266.82
489.81	290.23
489.99	245.76
490.17	280.86
490.35	283.20
490.53	283.20
490.70	313.63
490.88	252.78
491.06	224.69
491.24	201.29
491.41	278.52
491.59	229.37
491.77	285.55
491.95	215.33
492.13	220.01
492.30	264.48
492.48	194.26
492.66	131.07
492.84	287.89
493.01	287.89
493.19	252.78
493.37	212.99
493.54	238.73
493.72	241.08
493.90	266.82
494.08	306.61
494.25	297.25
494.43	280.86
494.61	224.69
494.79	231.71
494.96	222.35
495.14	273.84
495.32	348.74
495.49	215.33
495.67	278.52
495.85	215.33
496.02	215.33
496.20	252.78
496.38	266.82
496.55	227.03
496.73	252.78
496.91	238.73
497.09	285.55
497.26	283.20
497.44	234.05
497.62	313.63
497.79	255.12
497.97	220.01
498.14	306.61
498.32	210.65
498.50	250.44
498.67	276.18
498.85	224.69
499.03	191.92
499.20	215.33
499.38	241.08
499.56	255.12
499.73	273.84
499.91	259.80
500.08	337.04
500.26	264.48
500.44	180.22
500.61	229.37
500.79	259.80
500.97	325.33
501.14	255.12
501.32	238.73
501.49	308.95
501.67	168.52
501.84	229.37
502.02	208.31
502.20	264.48
502.37	266.82
502.55	177.88
502.72	257.46
502.90	262.14
503.07	297.25
503.25	311.29
503.43	215.33
503.60	264.48
503.78	285.55
503.95	243.42
504.13	224.69
504.30	297.25
504.48	224.69
504.65	313.63
504.83	332.36
505.01	278.52
505.18	212.99
505.36	210.65
505.53	234.05
505.71	280.86
505.88	311.29
506.06	325.33
506.23	320.65
506.41	234.05
506.58	231.71
506.76	264.48
506.93	285.55
507.11	262.14
507.28	248.10
507.46	238.73
507.63	325.33
507.81	205.97
507.98	285.55
508.16	306.61
508.33	367.46
508.50	252.78
508.68	278.52
508.85	238.73
509.03	194.26
509.20	264.48
509.38	201.29
509.55	283.20
509.73	332.36
509.90	292.57
510.08	241.08
510.25	234.05
510.42	290.23
510.60	311.29
510.77	294.91
510.95	285.55
511.12	210.65
511.30	346.40
511.47	313.63
511.64	369.80
511.82	234.05
511.99	299.59
512.17	325.33
512.34	266.82
512.51	177.88
512.69	276.18
512.86	243.42
513.04	278.52
513.21	248.10
513.38	250.44
513.56	339.38
513.73	252.78
513.90	248.10
514.08	322.99
514.25	308.95
514.43	311.29
514.60	266.82
514.77	238.73
514.95	287.89
515.12	217.67
515.29	222.35
515.47	299.59
515.64	294.91
515.81	212.99
515.99	269.16
516.16	278.52
516.33	220.01
516.51	259.80
516.68	271.50
516.85	212.99
517.03	241.08
517.20	299.59
517.37	271.50
517.54	269.16
517.72	308.95
517.89	276.18
518.06	135.75
518.24	276.18
518.41	374.49
518.58	313.63
518.75	276.18
518.93	353.42
519.10	227.03
519.27	280.86
519.45	287.89
519.62	257.46
519.79	243.42
519.96	236.39
520.14	299.59
520.31	276.18
520.48	280.86
520.65	273.84
520.83	276.18
521.00	290.23
521.17	264.48
521.34	220.01
521.52	290.23
521.69	229.37
521.86	327.68
522.03	294.91
522.20	322.99
522.38	234.05
522.55	184.90
522.72	224.69
522.89	341.72
523.07	271.50
523.24	175.54
523.41	306.61
523.58	290.23
523.75	299.59
523.92	189.58
524.10	238.73
524.27	271.50
524.44	243.42
524.61	292.57
524.78	297.25
524.96	250.44
525.13	294.91
525.30	271.50
525.47	292.57
525.64	313.63
525.81	234.05
525.98	220.01
526.16	294.91
526.33	264.48
526.50	147.45
526.67	198.95
526.84	243.42
527.01	269.16
527.18	299.59
527.36	276.18
527.53	229.37
527.70	332.36
527.87	259.80
528.04	294.91
528.21	241.08
528.38	259.80
528.55	304.27
528.72	325.33
528.89	360.44
529.07	264.48
529.24	229.37
529.41	322.99
529.58	255.12
529.75	259.80
529.92	243.42
530.09	210.65
530.26	222.35
530.43	313.63
530.60	231.71
530.77	264.48
530.94	292.57
531.11	299.59
531.28	250.44
531.46	236.39
531.63	266.82
531.80	283.20
531.97	292.57
532.14	280.86
532.31	252.78
532.48	308.95
532.65	269.16
532.82	367.46
532.99	440.02
533.16	330.02
533.33	236.39
533.50	358.10
533.67	339.38
533.84	493.85
534.01	430.66
534.18	402.57
534.35	271.50
534.52	294.91
534.69	334.70
534.86	330.02
535.03	325.33
535.20	276.18
535.37	299.59
535.54	257.46
535.71	259.80
535.88	264.48
536.05	292.57
536.22	271.50
536.38	320.65
536.55	283.20
536.72	301.93
536.89	344.06
537.06	355.76
537.23	280.86
537.40	315.97
537.57	308.95
537.74	353.42
537.91	344.06
538.08	287.89
538.25	362.78
538.42	287.89
538.59	290.23
538.75	351.08
538.92	322.99
539.09	358.10
539.26	400.23
539.43	557.05
539.60	1001.75
539.77	1556.46
539.94	1717.95
540.11	1172.61
540.28	793.44
540.44	695.14
540.61	477.47
540.78	423.64
540.95	482.15
541.12	521.94
541.29	472.79
541.46	519.60
541.62	479.81
541.79	524.28
541.96	554.71
542.13	468.11
542.30	470.45
542.47	547.69
542.63	477.47
542.80	416.62
542.97	491.51
543.14	489.17
543.31	465.77
543.48	435.34
543.64	388.53
543.81	535.98
543.98	503.22
544.15	461.09
544.32	538.32
544.48	383.85
544.65	458.74
544.82	505.56
544.99	456.40
545.16	482.15
545.32	547.69
545.49	692.80
545.66	901.11
545.83	833.23
546.00	781.74
546.16	678.76
546.33	531.30
546.50	465.77
546.67	468.11
546.83	435.34
547.00	402.57
547.17	435.34
547.34	360.44
547.50	367.46
547.67	472.79
547.84	437.68
548.00	362.78
548.17	444.70
548.34	393.21
548.51	454.06
548.67	386.19
548.84	362.78
549.01	269.16
549.18	423.64
549.34	365.12
549.51	402.57
549.68	374.49
549.84	372.15
550.01	325.33
550.18	341.72
550.34	360.44
550.51	339.38
550.68	451.72
550.84	266.82
551.01	325.33
551.18	346.40
551.34	255.12
551.51	365.12
551.68	330.02
551.84	337.04
552.01	306.61
552.18	311.29
552.34	322.99
552.51	351.08
552.68	339.38
552.84	259.80
553.01	339.38
553.18	337.04
553.34	339.38
553.51	271.50
553.67	313.63
553.84	339.38
554.01	252.78
554.17	313.63
554.34	234.05
554.51	311.29
554.67	299.59
554.84	330.02
555.00	198.95
555.17	299.59
555.33	229.37
555.50	297.25
555.67	337.04
555.83	262.14
556.00	287.89
556.16	486.83
556.33	318.31
556.50	315.97
556.66	308.95
556.83	276.18
556.99	234.05
557.16	248.10
557.32	243.42
557.49	322.99
557.65	266.82
557.82	290.23
557.98	294.91
558.15	229.37
558.32	250.44
558.48	208.31
558.65	210.65
558.81	224.69
558.98	259.80
559.14	248.10
559.31	273.84
559.47	299.59
559.64	255.12
559.80	287.89
559.97	198.95
560.13	332.36
560.30	238.73
560.46	369.80
560.63	299.59
560.79	292.57
560.96	294.91
561.12	229.37
561.29	278.52
561.45	353.42
561.61	276.18
561.78	353.42
561.94	208.31
562.11	220.01
562.27	285.55
562.44	227.03
562.60	266.82
562.77	327.68
562.93	334.70
563.10	304.27
563.26	332.36
563.42	271.50
563.59	224.69
563.75	170.86
563.92	299.59
564.08	276.18
564.24	287.89
564.41	332.36
564.57	184.90
564.74	259.80
564.90	290.23
565.07	276.18
565.23	255.12
565.39	325.33
565.56	383.85
565.72	318.31
565.88	234.05
566.05	313.63
566.21	238.73
566.38	264.48
566.54	351.08
566.70	250.44
566.87	245.76
567.03	264.48
567.19	327.68
567.36	205.97
567.52	248.10
567.68	229.37
567.85	220.01
568.01	175.54
568.17	205.97
568.34	285.55
568.50	353.42
568.66	269.16
568.83	337.04
568.99	194.26
569.15	344.06
569.32	271.50
569.48	294.91
569.64	173.20
569.81	271.50
569.97	266.82
570.13	283.20
570.30	271.50
570.46	276.18
570.62	306.61
570.78	248.10
570.95	248.10
571.11	301.93
571.27	327.68
571.43	245.76
571.60	255.12
571.76	198.95
571.92	304.27
572.09	313.63
572.25	252.78
572.41	362.78
572.57	297.25
572.74	301.93
572.90	243.42
573.06	330.02
573.22	283.20
573.38	264.48
573.55	252.78
573.71	236.39
573.87	234.05
574.03	222.35
574.20	271.50
574.36	318.31
574.52	248.10
574.68	362.78
574.84	376.83
575.01	271.50
575.17	337.04
575.33	255.12
575.49	313.63
575.65	320.65
575.82	416.62
575.98	667.05
576.14	683.44
576.30	704.50
576.46	667.05
576.62	613.22
576.79	528.96
576.95	482.15
577.11	421.30
577.27	234.05
577.43	292.57
577.59	301.93
577.75	355.76
577.92	360.44
578.08	365.12
578.24	348.74
578.40	360.44
578.56	458.74
578.72	411.93
578.88	404.91
579.04	367.46
579.21	374.49
579.37	376.83
579.53	341.72
579.69	416.62
579.85	381.51
580.01	435.34
580.17	463.43
580.33	411.93
580.49	472.79
580.65	433.00
580.82	381.51
580.98	330.02
581.14	416.62
581.30	379.17
581.46	435.34
581.62	599.18
581.78	674.07
581.94	699.82
582.10	566.41
582.26	512.58
582.42	470.45
582.58	486.83
582.74	517.26
582.90	521.94
583.06	573.43
583.22	521.94
583.38	491.51
583.54	531.30
583.70	660.03
583.86	753.65
584.02	786.42
584.18	943.24
584.34	1238.14
584.50	2661.19
584.66	17717.86
584.82	51250.71
584.98	65535.00
585.14	65364.14
585.30	51318.59
585.46	30024.39
585.62	18637.69
585.78	8711.47
585.94	3391.44
586.10	1736.68
586.26	1144.52
586.42	922.17
586.58	805.14
586.74	711.52
586.90	730.25
587.06	657.69
587.22	695.14
587.38	667.05
587.54	1020.47
587.70	2906.95
587.86	5643.03
588.02	7178.42
588.18	4887.04
588.34	2937.37
588.49	2001.16
588.65	1310.70
588.81	631.94
588.97	505.56
589.13	411.93
589.29	433.00
589.45	381.51
589.61	383.85
589.77	404.91
589.93	407.25
590.08	599.18
590.24	449.38
590.40	447.04
590.56	496.19
590.72	433.00
590.88	440.02
591.04	458.74
591.20	367.46
591.35	472.79
591.51	341.72
591.67	416.62
591.83	383.85
591.99	386.19
592.15	348.74
592.31	433.00
592.46	421.30
592.62	456.40
592.78	395.55
592.94	402.57
593.10	395.55
593.26	411.93
593.41	407.25
593.57	447.04
593.73	554.71
593.89	2312.45
594.05	6342.85
594.20	10890.51
594.36	11435.86
594.52	7466.31
594.68	4440.00
594.84	3030.99
594.99	1666.46
595.15	828.55
595.31	519.60
595.47	458.74
595.62	421.30
595.78	337.04
595.94	383.85
596.10	416.62
596.25	484.49
596.41	437.68
596.57	367.46
596.73	315.97
596.88	585.13
597.04	1284.95
597.20	2221.17
597.36	3063.76
597.51	2270.32
597.67	1561.14
597.83	1032.18
597.99	716.20
598.14	489.17
598.30	379.17
598.46	341.72
598.61	484.49
598.77	461.09
598.93	388.53
599.09	421.30
599.24	299.59
599.40	423.64
599.56	322.99
599.71	330.02
599.87	255.12
600.03	318.31
600.18	341.72
600.34	313.63
600.50	241.08
600.65	266.82
600.81	346.40
600.97	327.68
601.12	330.02
601.28	250.44
601.44	280.86
601.59	311.29
601.75	365.12
601.91	311.29
602.06	322.99
602.22	365.12
602.37	664.71
602.53	1483.90
602.69	2726.72
602.84	3077.80
603.00	2230.53
603.16	1589.22
603.31	994.73
603.47	812.17
603.62	519.60
603.78	404.91
603.94	367.46
604.09	315.97
604.25	318.31
604.40	313.63
604.56	360.44
604.71	283.20
604.87	271.50
605.03	238.73
605.18	383.85
605.34	327.68
605.49	395.55
605.65	358.10
605.80	341.72
605.96	322.99
606.12	418.96
606.27	454.06
606.43	339.38
606.58	475.13
606.74	779.40
606.89	2806.30
607.05	6506.69
607.20	10218.78
607.36	8772.33
607.51	5626.65
607.67	3712.09
607.82	2410.75
607.98	1317.72
608.13	746.63
608.29	526.62
608.44	566.41
608.60	498.53
608.75	547.69
608.91	992.39
609.06	4245.73
609.22	10897.53
609.37	17376.14
609.53	15756.49
609.68	10293.68
609.84	6342.85
609.99	4425.95
610.15	2546.50
610.30	1249.85
610.46	884.72
610.61	877.70
610.76	910.47
610.92	1034.52
611.07	1048.56
611.23	1043.88
611.38	992.39
611.54	926.85
611.69	758.33
611.84	758.33
612.00	620.24
612.15	528.96
612.31	709.18
612.46	858.98
612.62	973.66
612.77	889.40
612.92	826.21
613.08	842.59
613.23	713.86
613.39	667.05
613.54	896.43
613.69	3754.22
613.85	12142.70
614.00	23417.06
614.15	28177.71
614.31	19770.51
614.46	12580.38
614.62	8013.99
614.77	4961.94
614.92	2275.00
615.08	1212.40
615.23	774.72
615.38	631.94
615.54	573.43
615.69	847.27
615.84	2370.96
616.00	4990.02
616.15	7412.48
616.30	6069.01
616.46	4121.68
616.61	2630.76
616.76	1898.17
616.92	1081.33
617.07	580.45
617.22	477.47
617.37	444.70
617.53	393.21
617.68	367.46
617.83	318.31
617.99	416.62
618.14	369.80
618.29	454.06
618.45	344.06
618.60	315.97
618.75	320.65
618.90	351.08
619.06	266.82
619.21	341.72
619.36	351.08
619.51	320.65
619.67	416.62
619.82	325.33
619.97	320.65
620.12	379.17
620.28	400.23
620.43	292.57
620.58	266.82
620.73	346.40
620.89	337.04
621.04	496.19
621.19	1327.08
621.34	2663.53
621.49	4105.30
621.65	3934.44
621.80	2698.64
621.95	1776.47
622.10	1301.34
622.25	751.31
622.41	540.66
622.56	393.21
622.71	388.53
622.86	330.02
623.01	276.18
623.16	308.95
623.32	327.68
623.47	278.52
623.62	355.76
623.77	351.08
623.92	257.46
624.07	327.68
624.23	250.44
624.38	372.15
624.53	369.80
624.68	257.46
624.83	337.04
624.98	355.76
625.13	339.38
625.29	358.10
625.44	299.59
625.59	292.57
625.74	447.04
625.89	510.24
626.04	1949.67
626.19	6043.26
626.34	11164.36
626.49	14293.65
626.65	10546.45
626.80	6810.96
626.95	4533.62
627.10	2892.90
627.25	1479.22
627.40	706.84
627.55	496.19
627.70	383.85
627.85	430.66
628.00	395.55
628.15	383.85
628.30	393.21
628.45	369.80
628.60	271.50
628.76	294.91
628.91	269.16
629.06	360.44
629.21	330.02
629.36	388.53
629.51	287.89
629.66	332.36
629.81	444.70
629.96	1254.53
630.11	2370.96
630.26	3581.02
630.41	3407.82
630.56	2417.77
630.71	1563.48
630.86	1210.06
631.01	774.72
631.16	617.90
631.31	519.60
631.46	334.70
631.61	344.06
631.76	372.15
631.91	337.04
632.06	337.04
632.21	290.23
632.36	365.12
632.51	381.51
632.66	477.47
632.81	1100.05
632.96	3201.85
633.10	6736.06
633.25	9701.52
633.40	7969.52
633.55	5313.02
633.70	3655.92
633.85	2450.54
634.00	1277.93
634.15	704.50
634.30	451.72
634.45	383.85
634.60	367.46
634.75	234.05
634.90	369.80
635.05	374.49
635.19	322.99
635.34	334.70
635.49	320.65
635.64	262.14
635.79	250.44
635.94	318.31
636.09	360.44
636.24	337.04
636.39	320.65
636.53	292.57
636.68	351.08
636.83	327.68
636.98	276.18
637.13	390.87
637.28	386.19
637.43	475.13
637.57	617.90
637.72	2679.91
637.87	7880.58
638.02	14544.09
638.17	19159.63
638.32	13446.38
638.46	8835.52
638.61	5778.78
638.76	3536.55
638.91	1834.98
639.06	971.32
639.20	683.44
639.35	655.35
639.50	910.47
639.65	3765.92
639.80	11602.04
639.94	22277.22
640.09	28643.48
640.24	20908.01
640.39	13446.38
640.54	8667.00
640.68	5217.05
640.83	2661.19
640.98	1240.48
641.13	674.07
641.27	550.03
641.42	402.57
641.57	470.45
641.72	353.42
641.86	383.85
642.01	259.80
642.16	322.99
642.31	327.68
642.45	411.93
642.60	327.68
642.75	231.71
642.90	276.18
643.04	271.50
643.19	304.27
643.34	297.25
643.48	273.84
643.63	215.33
643.78	290.23
643.93	280.86
644.07	212.99
644.22	285.55
644.37	231.71
644.51	262.14
644.66	276.18
644.81	189.58
644.95	276.18
645.10	248.10
645.25	271.50
645.39	292.57
645.54	208.31
645.69	346.40
645.83	262.14
645.98	330.02
646.13	318.31
646.27	266.82
646.42	257.46
646.57	215.33
646.71	292.57
646.86	229.37
647.00	203.63
647.15	215.33
647.30	287.89
647.44	334.70
647.59	255.12
647.74	201.29
647.88	283.20
648.03	191.92
648.17	297.25
648.32	222.35
648.47	245.76
648.61	238.73
648.76	290.23
648.90	308.95
649.05	208.31
649.20	231.71
649.34	264.48
649.49	348.74
649.63	332.36
649.78	346.40
649.92	524.28
650.07	1661.78
650.21	5181.95
650.36	10246.87
650.51	14829.63
650.65	11927.37
650.80	8318.26
650.94	5277.91
651.09	3279.09
651.23	1980.09
651.38	882.38
651.52	496.19
651.67	341.72
651.81	315.97
651.96	313.63
652.10	341.72
652.25	262.14
652.39	311.29
652.54	365.12
652.68	517.26
652.83	1675.82
652.97	3389.10
653.12	5296.63
653.26	4753.63
653.41	3407.82
653.55	2303.09
653.70	1479.22
653.84	856.64
653.99	524.28
654.13	381.51
654.27	266.82
654.42	229.37
654.56	271.50
654.71	273.84
654.85	304.27
655.00	248.10
655.14	187.24
655.29	276.18
655.43	231.71
655.57	227.03
655.72	266.82
655.86	198.95
656.01	227.03
656.15	257.46
656.30	259.80
656.44	283.20
656.58	168.52
656.73	264.48
656.87	217.67
657.01	210.65
657.16	236.39
657.30	262.14
657.45	245.76
657.59	198.95
657.73	262.14
657.88	184.90
658.02	252.78
658.16	212.99
658.31	220.01
658.45	205.97
658.60	238.73
658.74	250.44
658.88	215.33
659.03	325.33
659.17	313.63
659.31	746.63
659.46	2401.39
659.60	4856.61
659.74	7208.85
659.89	6509.03
660.03	4882.36
660.17	3213.56
660.32	1888.81
660.46	1245.16
660.60	655.35
660.74	524.28
660.89	332.36
661.03	250.44
661.17	201.29
661.32	271.50
661.46	255.12
661.60	131.07
661.74	250.44
661.89	290.23
662.03	301.93
662.17	198.95
662.31	304.27
662.46	257.46
662.60	196.60
662.74	285.55
662.88	184.90
663.03	224.69
663.17	259.80
663.31	187.24
663.45	280.86
663.60	220.01
663.74	227.03
663.88	194.26
664.02	271.50
664.17	292.57
664.31	243.42
664.45	140.43
664.59	236.39
664.73	238.73
664.88	262.14
665.02	229.37
665.16	271.50
665.30	374.49
665.44	205.97
665.59	308.95
665.73	301.93
665.87	278.52
666.01	224.69
666.15	212.99
666.29	278.52
666.44	241.08
666.58	294.91
666.72	318.31
666.86	255.12
667.00	304.27
667.14	402.57
667.28	1479.22
667.43	4358.08
667.57	8669.34
667.71	12556.97
667.85	10970.09
667.99	8037.40
668.13	5088.32
668.27	2998.23
668.41	1729.66
668.56	943.24
668.70	643.65
668.84	444.70
668.98	358.10
669.12	325.33
669.26	337.04
669.40	330.02
669.54	252.78
669.68	257.46
669.82	273.84
669.96	245.76
670.10	273.84
670.25	285.55
670.39	189.58
670.53	212.99
670.67	241.08
670.81	243.42
670.95	287.89
671.09	531.30
671.23	1715.61
671.37	4056.15
671.51	6438.81
671.65	8035.06
671.79	6263.27
671.93	4337.01
672.07	2736.09
672.21	1582.20
672.35	992.39
672.49	547.69
672.63	451.72
672.77	273.84
672.91	236.39
673.05	252.78
673.19	304.27
673.33	273.84
673.47	285.55
673.61	196.60
673.75	222.35
673.89	215.33
674.03	187.24
674.17	222.35
674.31	231.71
674.45	210.65
674.59	262.14
674.73	229.37
674.87	205.97
675.01	238.73
675.15	287.89
675.29	318.31
675.43	320.65
675.56	255.12
675.70	248.10
675.84	234.05
675.98	191.92
676.12	229.37
676.26	220.01
676.40	184.90
676.54	205.97
676.68	231.71
676.82	201.29
676.96	126.39
677.10	231.71
677.23	266.82
677.37	149.79
677.51	196.60
677.65	269.16
677.79	135.75
677.93	205.97
678.07	198.95
678.21	98.30
678.34	236.39
678.48	191.92
678.62	229.37
678.76	184.90
678.90	259.80
679.04	255.12
679.18	191.92
679.31	243.42
679.45	252.78
679.59	248.10
679.73	126.39
679.87	152.13
680.00	184.90
680.14	159.16
680.28	220.01
680.42	182.56
680.56	168.52
680.70	163.84
680.83	215.33
680.97	152.13
681.11	170.86
681.25	194.26
681.39	156.82
681.52	201.29
681.66	168.52
681.80	250.44
681.94	175.54
682.07	227.03
682.21	222.35
682.35	194.26
682.49	102.98
682.62	236.39
682.76	110.01
682.90	238.73
683.04	159.16
683.17	180.22
683.31	208.31
683.45	210.65
683.59	273.84
683.72	238.73
683.86	180.22
684.00	161.50
684.13	222.35
684.27	198.95
684.41	203.63
684.55	238.73
684.68	121.71
684.82	173.20
684.96	180.22
685.09	191.92
685.23	156.82
685.37	156.82
685.50	224.69
685.64	238.73
685.78	124.05
685.91	220.01
686.05	191.92
686.19	147.45
686.32	145.11
686.46	308.95
686.60	147.45
686.73	250.44
686.87	241.08
687.01	273.84
687.14	222.35
687.28	245.76
687.42	238.73
687.55	264.48
687.69	135.75
687.82	156.82
687.96	187.24
688.10	262.14
688.23	208.31
688.37	222.35
688.50	245.76
688.64	133.41
688.78	140.43
688.91	189.58
689.05	168.52
689.18	175.54
689.32	168.52
689.46	119.37
689.59	107.66
689.73	203.63
689.86	208.31
690.00	131.07
690.13	124.05
690.27	149.79
690.41	187.24
690.54	203.63
690.68	166.18
690.81	191.92
690.95	220.01
691.08	248.10
691.22	201.29
691.35	196.60
691.49	201.29
691.62	170.86
691.76	133.41
691.89	259.80
692.03	163.84
692.16	201.29
692.30	257.46
692.43	606.20
692.57	1877.11
692.70	3585.70
692.84	5582.18
692.97	5207.69
693.11	3639.53
693.24	2801.62
693.38	1968.39
693.51	1273.25
693.65	889.40
693.78	606.20
693.92	430.66
694.05	299.59
694.19	327.68
694.32	236.39
694.45	248.10
694.59	224.69
694.72	205.97
694.86	205.97
694.99	161.50
695.13	201.29
695.26	241.08
695.39	231.71
695.53	152.13
695.66	170.86
695.80	194.26
695.93	220.01
696.07	105.32
696.20	259.80
696.33	440.02
696.47	531.30
696.60	521.94
696.73	435.34
696.87	386.19
697.00	297.25
697.14	264.48
697.27	227.03
697.40	283.20
697.54	110.01
697.67	196.60
697.80	145.11
697.94	135.75
698.07	203.63
698.21	131.07
698.34	236.39
698.47	191.92
698.61	189.58
698.74	121.71
698.87	257.46
699.01	238.73
699.14	159.16
699.27	194.26
699.40	269.16
699.54	205.97
699.67	138.09
699.80	110.01
699.94	231.71
700.07	210.65
700.20	215.33
700.34	257.46
700.47	149.79
700.60	173.20
700.73	145.11
700.87	257.46
701.00	184.90
701.13	201.29
701.26	283.20
701.40	140.43
701.53	156.82
701.66	163.84
701.79	224.69
701.93	287.89
702.06	339.38
702.19	395.55
702.32	531.30
702.46	557.05
702.59	543.00
702.72	823.87
702.85	2380.32
702.99	5357.49
703.12	8863.61
703.25	11098.82
703.38	9500.23
703.51	7763.56
703.65	6071.35
703.78	4177.86
703.91	2626.08
704.04	1783.49
704.17	1029.84
704.31	718.54
704.44	531.30
704.57	372.15
704.70	285.55
704.83	283.20
704.96	133.41
705.10	212.99
705.23	252.78
>>>>>End Processed Spectral Data<<<<<
