SpectraSuite Data File
++++++++++++++++++++++++++++++++++++
Date: Fri Oct 04 11:33:56 GMT-05:00 2013
User: price-jones
Dark Spectrum Present: No
Reference Spectrum Present: No
Number of Sampled Component Spectra: 1
Spectrometers: USB2+H05261
Integration Time (usec): 100000 (USB2+H05261)
Spectra Averaged: 1 (USB2+H05261)
Boxcar Smoothing: 0 (USB2+H05261)
Correct for Electrical Dark: No (USB2+H05261)
Strobe/Lamp Enabled: No (USB2+H05261)
Correct for Detector Non-linearity: No (USB2+H05261)
Correct for Stray Light: No (USB2+H05261)
Number of Pixels in Processed Spectrum: 2048
>>>>>Begin Processed Spectral Data<<<<<
365.73	30.43
365.92	30.43
366.12	30.43
366.32	44.47
366.52	0.00
366.72	0.00
366.91	9.36
367.11	0.00
367.31	0.00
367.51	0.00
367.70	0.00
367.90	0.00
368.10	0.00
368.30	0.00
368.49	0.00
368.69	0.00
368.89	23.41
369.09	18.72
369.28	0.00
369.48	0.00
369.68	0.00
369.87	42.13
370.07	0.00
370.27	21.06
370.47	72.56
370.66	72.56
370.86	14.04
371.06	58.51
371.25	133.41
371.45	25.75
371.65	177.88
371.84	112.35
372.04	58.51
372.24	49.15
372.44	67.88
372.63	161.50
372.83	154.48
373.03	70.22
373.22	56.17
373.42	79.58
373.62	117.03
373.81	126.39
374.01	173.20
374.21	189.58
374.40	175.54
374.60	147.45
374.79	241.08
374.99	175.54
375.19	184.90
375.38	170.86
375.58	168.52
375.78	191.92
375.97	152.13
376.17	177.88
376.37	156.82
376.56	210.65
376.76	182.56
376.95	124.05
377.15	93.62
377.35	145.11
377.54	208.31
377.74	149.79
377.93	180.22
378.13	159.16
378.33	215.33
378.52	112.35
378.72	159.16
378.91	124.05
379.11	86.60
379.31	110.01
379.50	98.30
379.70	163.84
379.89	208.31
380.09	105.32
380.28	58.51
380.48	119.37
380.68	145.11
380.87	135.75
381.07	177.88
381.26	154.48
381.46	117.03
381.65	154.48
381.85	191.92
382.04	84.26
382.24	147.45
382.43	201.29
382.63	91.28
382.83	154.48
383.02	184.90
383.22	198.95
383.41	142.77
383.61	156.82
383.80	112.35
384.00	166.18
384.19	128.73
384.39	145.11
384.58	142.77
384.78	166.18
384.97	133.41
385.17	147.45
385.36	131.07
385.56	187.24
385.75	117.03
385.95	98.30
386.14	203.63
386.34	102.98
386.53	168.52
386.72	105.32
386.92	194.26
387.11	215.33
387.31	198.95
387.50	140.43
387.70	107.66
387.89	159.16
388.09	105.32
388.28	121.71
388.48	117.03
388.67	212.99
388.86	93.62
389.06	124.05
389.25	168.52
389.45	102.98
389.64	86.60
389.84	133.41
390.03	121.71
390.22	84.26
390.42	128.73
390.61	145.11
390.81	133.41
391.00	154.48
391.19	135.75
391.39	100.64
391.58	114.69
391.78	100.64
391.97	177.88
392.16	170.86
392.36	126.39
392.55	166.18
392.75	175.54
392.94	142.77
393.13	110.01
393.33	187.24
393.52	126.39
393.71	110.01
393.91	149.79
394.10	100.64
394.29	91.28
394.49	177.88
394.68	182.56
394.88	205.97
395.07	117.03
395.26	156.82
395.46	166.18
395.65	126.39
395.84	166.18
396.04	217.67
396.23	126.39
396.42	119.37
396.62	138.09
396.81	142.77
397.00	149.79
397.19	126.39
397.39	187.24
397.58	236.39
397.77	117.03
397.97	182.56
398.16	187.24
398.35	180.22
398.55	100.64
398.74	112.35
398.93	149.79
399.12	182.56
399.32	135.75
399.51	159.16
399.70	138.09
399.90	163.84
400.09	177.88
400.28	184.90
400.47	156.82
400.67	140.43
400.86	147.45
401.05	147.45
401.24	168.52
401.44	140.43
401.63	114.69
401.82	168.52
402.01	191.92
402.21	138.09
402.40	194.26
402.59	138.09
402.78	124.05
402.97	138.09
403.17	79.58
403.36	131.07
403.55	91.28
403.74	140.43
403.93	133.41
404.13	264.48
404.32	257.46
404.51	196.60
404.70	238.73
404.89	203.63
405.09	234.05
405.28	170.86
405.47	159.16
405.66	159.16
405.85	114.69
406.05	84.26
406.24	105.32
406.43	177.88
406.62	170.86
406.81	266.82
407.00	201.29
407.20	173.20
407.39	58.51
407.58	126.39
407.77	173.20
407.96	175.54
408.15	196.60
408.34	184.90
408.54	208.31
408.73	196.60
408.92	135.75
409.11	177.88
409.30	173.20
409.49	152.13
409.68	182.56
409.87	114.69
410.07	210.65
410.26	217.67
410.45	168.52
410.64	142.77
410.83	121.71
411.02	154.48
411.21	168.52
411.40	149.79
411.59	154.48
411.78	194.26
411.98	156.82
412.17	91.28
412.36	135.75
412.55	142.77
412.74	161.50
412.93	187.24
413.12	161.50
413.31	175.54
413.50	105.32
413.69	159.16
413.88	142.77
414.07	117.03
414.26	173.20
414.45	98.30
414.64	140.43
414.83	189.58
415.02	198.95
415.22	212.99
415.41	154.48
415.60	187.24
415.79	117.03
415.98	220.01
416.17	154.48
416.36	184.90
416.55	159.16
416.74	243.42
416.93	194.26
417.12	119.37
417.31	173.20
417.50	180.22
417.69	259.80
417.88	191.92
418.07	149.79
418.26	264.48
418.45	187.24
418.64	245.76
418.83	234.05
419.02	241.08
419.21	236.39
419.39	189.58
419.58	205.97
419.77	159.16
419.96	229.37
420.15	168.52
420.34	227.03
420.53	175.54
420.72	198.95
420.91	177.88
421.10	149.79
421.29	152.13
421.48	173.20
421.67	180.22
421.86	196.60
422.05	196.60
422.24	208.31
422.43	124.05
422.61	166.18
422.80	191.92
422.99	147.45
423.18	156.82
423.37	159.16
423.56	173.20
423.75	175.54
423.94	231.71
424.13	217.67
424.32	154.48
424.50	227.03
424.69	88.94
424.88	236.39
425.07	145.11
425.26	210.65
425.45	285.55
425.64	259.80
425.83	297.25
426.01	217.67
426.20	229.37
426.39	170.86
426.58	184.90
426.77	173.20
426.96	229.37
427.15	217.67
427.33	126.39
427.52	121.71
427.71	159.16
427.90	107.66
428.09	154.48
428.28	210.65
428.46	217.67
428.65	217.67
428.84	191.92
429.03	191.92
429.22	238.73
429.40	117.03
429.59	227.03
429.78	229.37
429.97	145.11
430.16	156.82
430.34	156.82
430.53	149.79
430.72	156.82
430.91	138.09
431.10	135.75
431.28	166.18
431.47	135.75
431.66	140.43
431.85	126.39
432.03	168.52
432.22	241.08
432.41	224.69
432.60	262.14
432.79	220.01
432.97	252.78
433.16	196.60
433.35	215.33
433.54	149.79
433.72	184.90
433.91	215.33
434.10	177.88
434.28	191.92
434.47	154.48
434.66	236.39
434.85	147.45
435.03	231.71
435.22	372.15
435.41	449.38
435.59	421.30
435.78	294.91
435.97	217.67
436.16	227.03
436.34	231.71
436.53	187.24
436.72	142.77
436.90	217.67
437.09	180.22
437.28	154.48
437.46	131.07
437.65	142.77
437.84	135.75
438.02	245.76
438.21	189.58
438.40	189.58
438.58	86.60
438.77	159.16
438.96	161.50
439.14	86.60
439.33	220.01
439.52	198.95
439.70	208.31
439.89	184.90
440.08	227.03
440.26	147.45
440.45	243.42
440.63	215.33
440.82	138.09
441.01	196.60
441.19	135.75
441.38	187.24
441.57	170.86
441.75	184.90
441.94	166.18
442.12	175.54
442.31	187.24
442.50	147.45
442.68	173.20
442.87	229.37
443.05	182.56
443.24	100.64
443.43	210.65
443.61	243.42
443.80	121.71
443.98	110.01
444.17	175.54
444.35	234.05
444.54	149.79
444.73	135.75
444.91	248.10
445.10	161.50
445.28	140.43
445.47	189.58
445.65	177.88
445.84	229.37
446.02	145.11
446.21	203.63
446.39	168.52
446.58	117.03
446.77	100.64
446.95	170.86
447.14	187.24
447.32	222.35
447.51	88.94
447.69	173.20
447.88	208.31
448.06	210.65
448.25	177.88
448.43	128.73
448.62	243.42
448.80	126.39
448.99	145.11
449.17	205.97
449.36	187.24
449.54	180.22
449.73	175.54
449.91	231.71
450.10	131.07
450.28	283.20
450.46	243.42
450.65	292.57
450.83	222.35
451.02	191.92
451.20	177.88
451.39	187.24
451.57	124.05
451.76	217.67
451.94	208.31
452.13	147.45
452.31	163.84
452.49	224.69
452.68	163.84
452.86	203.63
453.05	241.08
453.23	252.78
453.42	175.54
453.60	173.20
453.78	170.86
453.97	168.52
454.15	203.63
454.34	227.03
454.52	187.24
454.70	140.43
454.89	243.42
455.07	194.26
455.26	182.56
455.44	220.01
455.62	220.01
455.81	145.11
455.99	217.67
456.17	264.48
456.36	149.79
456.54	231.71
456.73	191.92
456.91	210.65
457.09	208.31
457.28	224.69
457.46	215.33
457.64	187.24
457.83	138.09
458.01	205.97
458.19	205.97
458.38	238.73
458.56	217.67
458.74	198.95
458.93	212.99
459.11	163.84
459.29	208.31
459.48	208.31
459.66	208.31
459.84	145.11
460.03	252.78
460.21	287.89
460.39	166.18
460.57	264.48
460.76	217.67
460.94	182.56
461.12	168.52
461.31	191.92
461.49	152.13
461.67	124.05
461.85	105.32
462.04	227.03
462.22	662.37
462.40	299.59
462.59	198.95
462.77	215.33
462.95	222.35
463.13	196.60
463.32	220.01
463.50	180.22
463.68	182.56
463.86	215.33
464.05	152.13
464.23	238.73
464.41	156.82
464.59	182.56
464.78	220.01
464.96	149.79
465.14	138.09
465.32	201.29
465.50	184.90
465.69	187.24
465.87	187.24
466.05	243.42
466.23	170.86
466.41	196.60
466.60	194.26
466.78	205.97
466.96	212.99
467.14	161.50
467.32	201.29
467.51	236.39
467.69	222.35
467.87	266.82
468.05	170.86
468.23	227.03
468.41	238.73
468.60	194.26
468.78	163.84
468.96	145.11
469.14	194.26
469.32	168.52
469.50	217.67
469.69	170.86
469.87	145.11
470.05	203.63
470.23	189.58
470.41	126.39
470.59	217.67
470.77	142.77
470.95	163.84
471.14	196.60
471.32	229.37
471.50	304.27
471.68	156.82
471.86	175.54
472.04	124.05
472.22	166.18
472.40	145.11
472.58	198.95
472.77	222.35
472.95	229.37
473.13	215.33
473.31	257.46
473.49	194.26
473.67	231.71
473.85	187.24
474.03	234.05
474.21	128.73
474.39	229.37
474.57	278.52
474.75	236.39
474.93	236.39
475.12	196.60
475.30	198.95
475.48	227.03
475.66	166.18
475.84	241.08
476.02	259.80
476.20	262.14
476.38	292.57
476.56	278.52
476.74	170.86
476.92	217.67
477.10	238.73
477.28	187.24
477.46	203.63
477.64	203.63
477.82	224.69
478.00	187.24
478.18	229.37
478.36	217.67
478.54	210.65
478.72	191.92
478.90	189.58
479.08	159.16
479.26	170.86
479.44	222.35
479.62	189.58
479.80	198.95
479.98	290.23
480.16	191.92
480.34	271.50
480.52	184.90
480.70	215.33
480.88	149.79
481.06	224.69
481.24	227.03
481.41	201.29
481.59	182.56
481.77	250.44
481.95	187.24
482.13	283.20
482.31	203.63
482.49	203.63
482.67	234.05
482.85	131.07
483.03	290.23
483.21	276.18
483.39	180.22
483.57	159.16
483.74	245.76
483.92	229.37
484.10	217.67
484.28	337.04
484.46	229.37
484.64	250.44
484.82	259.80
485.00	194.26
485.18	147.45
485.35	266.82
485.53	220.01
485.71	177.88
485.89	269.16
486.07	149.79
486.25	308.95
486.43	318.31
486.61	238.73
486.78	304.27
486.96	203.63
487.14	229.37
487.32	250.44
487.50	212.99
487.68	231.71
487.85	290.23
488.03	325.33
488.21	241.08
488.39	184.90
488.57	315.97
488.75	231.71
488.92	498.53
489.10	175.54
489.28	271.50
489.46	236.39
489.64	266.82
489.81	159.16
489.99	250.44
490.17	308.95
490.35	292.57
490.53	238.73
490.70	220.01
490.88	241.08
491.06	234.05
491.24	212.99
491.41	322.99
491.59	236.39
491.77	208.31
491.95	220.01
492.13	227.03
492.30	205.97
492.48	301.93
492.66	271.50
492.84	264.48
493.01	212.99
493.19	182.56
493.37	245.76
493.54	283.20
493.72	264.48
493.90	259.80
494.08	266.82
494.25	250.44
494.43	264.48
494.61	259.80
494.79	227.03
494.96	175.54
495.14	262.14
495.32	283.20
495.49	269.16
495.67	255.12
495.85	180.22
496.02	248.10
496.20	297.25
496.38	299.59
496.55	250.44
496.73	234.05
496.91	231.71
497.09	320.65
497.26	248.10
497.44	245.76
497.62	205.97
497.79	231.71
497.97	250.44
498.14	278.52
498.32	222.35
498.50	250.44
498.67	212.99
498.85	299.59
499.03	313.63
499.20	299.59
499.38	191.92
499.56	224.69
499.73	271.50
499.91	236.39
500.08	283.20
500.26	283.20
500.44	285.55
500.61	217.67
500.79	229.37
500.97	304.27
501.14	224.69
501.32	266.82
501.49	292.57
501.67	245.76
501.84	184.90
502.02	259.80
502.20	238.73
502.37	238.73
502.55	205.97
502.72	264.48
502.90	315.97
503.07	231.71
503.25	266.82
503.43	304.27
503.60	299.59
503.78	276.18
503.95	262.14
504.13	173.20
504.30	180.22
504.48	285.55
504.65	306.61
504.83	315.97
505.01	250.44
505.18	189.58
505.36	234.05
505.53	271.50
505.71	301.93
505.88	266.82
506.06	297.25
506.23	262.14
506.41	196.60
506.58	330.02
506.76	301.93
506.93	248.10
507.11	297.25
507.28	283.20
507.46	222.35
507.63	252.78
507.81	236.39
507.98	271.50
508.16	250.44
508.33	276.18
508.50	271.50
508.68	208.31
508.85	191.92
509.03	212.99
509.20	262.14
509.38	259.80
509.55	301.93
509.73	238.73
509.90	306.61
510.08	259.80
510.25	280.86
510.42	173.20
510.60	184.90
510.77	173.20
510.95	290.23
511.12	262.14
511.30	264.48
511.47	266.82
511.64	320.65
511.82	170.86
511.99	203.63
512.17	222.35
512.34	259.80
512.51	257.46
512.69	283.20
512.86	346.40
513.04	273.84
513.21	308.95
513.38	290.23
513.56	173.20
513.73	215.33
513.90	257.46
514.08	245.76
514.25	280.86
514.43	306.61
514.60	215.33
514.77	262.14
514.95	269.16
515.12	294.91
515.29	257.46
515.47	334.70
515.64	210.65
515.81	241.08
515.99	306.61
516.16	276.18
516.33	264.48
516.51	297.25
516.68	241.08
516.85	217.67
517.03	271.50
517.20	222.35
517.37	238.73
517.54	255.12
517.72	252.78
517.89	257.46
518.06	276.18
518.24	313.63
518.41	290.23
518.58	327.68
518.75	236.39
518.93	163.84
519.10	222.35
519.27	241.08
519.45	315.97
519.62	266.82
519.79	252.78
519.96	231.71
520.14	222.35
520.31	320.65
520.48	271.50
520.65	250.44
520.83	273.84
521.00	257.46
521.17	294.91
521.34	191.92
521.52	187.24
521.69	264.48
521.86	358.10
522.03	283.20
522.20	337.04
522.38	287.89
522.55	201.29
522.72	255.12
522.89	276.18
523.07	294.91
523.24	292.57
523.41	259.80
523.58	255.12
523.75	217.67
523.92	262.14
524.10	330.02
524.27	250.44
524.44	257.46
524.61	386.19
524.78	236.39
524.96	290.23
525.13	297.25
525.30	236.39
525.47	250.44
525.64	257.46
525.81	304.27
525.98	311.29
526.16	255.12
526.33	304.27
526.50	238.73
526.67	280.86
526.84	161.50
527.01	234.05
527.18	180.22
527.36	311.29
527.53	255.12
527.70	264.48
527.87	266.82
528.04	292.57
528.21	224.69
528.38	271.50
528.55	234.05
528.72	327.68
528.89	308.95
529.07	358.10
529.24	248.10
529.41	341.72
529.58	313.63
529.75	315.97
529.92	304.27
530.09	245.76
530.26	308.95
530.43	255.12
530.60	297.25
530.77	276.18
530.94	285.55
531.11	360.44
531.28	243.42
531.46	250.44
531.63	315.97
531.80	255.12
531.97	276.18
532.14	339.38
532.31	330.02
532.48	318.31
532.65	379.17
532.82	421.30
532.99	365.12
533.16	327.68
533.33	351.08
533.50	334.70
533.67	341.72
533.84	404.91
534.01	402.57
534.18	381.51
534.35	327.68
534.52	278.52
534.69	262.14
534.86	304.27
535.03	273.84
535.20	250.44
535.37	283.20
535.54	259.80
535.71	308.95
535.88	292.57
536.05	273.84
536.22	297.25
536.38	297.25
536.55	294.91
536.72	318.31
536.89	280.86
537.06	320.65
537.23	386.19
537.40	332.36
537.57	276.18
537.74	306.61
537.91	325.33
538.08	299.59
538.25	374.49
538.42	297.25
538.59	283.20
538.75	332.36
538.92	320.65
539.09	306.61
539.26	337.04
539.43	519.60
539.60	966.64
539.77	1294.32
539.94	1242.82
540.11	1029.84
540.28	681.10
540.44	580.45
540.61	482.15
540.78	437.68
540.95	468.11
541.12	517.26
541.29	496.19
541.46	603.86
541.62	496.19
541.79	535.98
541.96	498.53
542.13	433.00
542.30	463.43
542.47	477.47
542.63	550.03
542.80	554.71
542.97	528.96
543.14	423.64
543.31	451.72
543.48	484.49
543.64	479.81
543.81	472.79
543.98	465.77
544.15	477.47
544.32	503.22
544.48	496.19
544.65	440.02
544.82	418.96
544.99	505.56
545.16	416.62
545.32	423.64
545.49	786.42
545.66	866.00
545.83	901.11
546.00	837.91
546.16	681.10
546.33	533.64
546.50	458.74
546.67	491.51
546.83	472.79
547.00	397.89
547.17	355.76
547.34	400.23
547.50	386.19
547.67	341.72
547.84	341.72
548.00	463.43
548.17	414.27
548.34	304.27
548.51	447.04
548.67	362.78
548.84	355.76
549.01	475.13
549.18	444.70
549.34	355.76
549.51	369.80
549.68	369.80
549.84	334.70
550.01	355.76
550.18	416.62
550.34	425.98
550.51	339.38
550.68	365.12
550.84	330.02
551.01	287.89
551.18	271.50
551.34	327.68
551.51	386.19
551.68	353.42
551.84	325.33
552.01	306.61
552.18	358.10
552.34	292.57
552.51	276.18
552.68	306.61
552.84	271.50
553.01	374.49
553.18	320.65
553.34	320.65
553.51	220.01
553.67	248.10
553.84	400.23
554.01	215.33
554.17	236.39
554.34	287.89
554.51	248.10
554.67	301.93
554.84	283.20
555.00	292.57
555.17	320.65
555.33	264.48
555.50	259.80
555.67	201.29
555.83	238.73
556.00	262.14
556.16	442.36
556.33	327.68
556.50	273.84
556.66	334.70
556.83	241.08
556.99	231.71
557.16	278.52
557.32	236.39
557.49	250.44
557.65	250.44
557.82	320.65
557.98	264.48
558.15	255.12
558.32	283.20
558.48	252.78
558.65	290.23
558.81	257.46
558.98	290.23
559.14	222.35
559.31	236.39
559.47	301.93
559.64	259.80
559.80	252.78
559.97	243.42
560.13	252.78
560.30	243.42
560.46	259.80
560.63	273.84
560.79	266.82
560.96	245.76
561.12	243.42
561.29	285.55
561.45	241.08
561.61	262.14
561.78	285.55
561.94	301.93
562.11	236.39
562.27	259.80
562.44	234.05
562.60	332.36
562.77	360.44
562.93	327.68
563.10	292.57
563.26	285.55
563.42	372.15
563.59	278.52
563.75	224.69
563.92	355.76
564.08	269.16
564.24	306.61
564.41	330.02
564.57	203.63
564.74	231.71
564.90	287.89
565.07	290.23
565.23	297.25
565.39	294.91
565.56	283.20
565.72	243.42
565.88	229.37
566.05	210.65
566.21	299.59
566.38	294.91
566.54	264.48
566.70	191.92
566.87	283.20
567.03	198.95
567.19	283.20
567.36	386.19
567.52	285.55
567.68	278.52
567.85	311.29
568.01	229.37
568.17	238.73
568.34	287.89
568.50	290.23
568.66	236.39
568.83	322.99
568.99	306.61
569.15	315.97
569.32	252.78
569.48	292.57
569.64	252.78
569.81	201.29
569.97	243.42
570.13	299.59
570.30	245.76
570.46	250.44
570.62	290.23
570.78	262.14
570.95	203.63
571.11	325.33
571.27	318.31
571.43	283.20
571.60	313.63
571.76	271.50
571.92	266.82
572.09	252.78
572.25	273.84
572.41	283.20
572.57	243.42
572.74	292.57
572.90	346.40
573.06	308.95
573.22	325.33
573.38	327.68
573.55	252.78
573.71	313.63
573.87	360.44
574.03	238.73
574.20	273.84
574.36	236.39
574.52	283.20
574.68	327.68
574.84	327.68
575.01	262.14
575.17	255.12
575.33	250.44
575.49	285.55
575.65	330.02
575.82	351.08
575.98	531.30
576.14	559.39
576.30	615.56
576.46	526.62
576.62	514.92
576.79	482.15
576.95	388.53
577.11	400.23
577.27	252.78
577.43	376.83
577.59	266.82
577.75	318.31
577.92	304.27
578.08	271.50
578.24	280.86
578.40	337.04
578.56	351.08
578.72	404.91
578.88	402.57
579.04	433.00
579.21	372.15
579.37	421.30
579.53	346.40
579.69	269.16
579.85	367.46
580.01	435.34
580.17	470.45
580.33	388.53
580.49	376.83
580.65	425.98
580.82	367.46
580.98	337.04
581.14	294.91
581.30	369.80
581.46	430.66
581.62	493.85
581.78	493.85
581.94	505.56
582.10	454.06
582.26	444.70
582.42	491.51
582.58	486.83
582.74	458.74
582.90	409.59
583.06	421.30
583.22	517.26
583.38	444.70
583.54	458.74
583.70	564.07
583.86	596.84
584.02	734.93
584.18	901.11
584.34	1064.94
584.50	2628.42
584.66	18230.43
584.82	45619.38
584.98	56631.60
585.14	53024.84
585.30	35173.57
585.46	20903.32
585.62	13062.53
585.78	6197.74
585.94	2612.04
586.10	1345.81
586.26	929.19
586.42	781.74
586.58	571.09
586.74	648.33
586.90	580.45
587.06	606.20
587.22	524.28
587.38	587.47
587.54	1102.39
587.70	2672.89
587.86	4297.22
588.02	4578.09
588.18	3255.69
588.34	2197.76
588.49	1523.69
588.65	980.68
588.81	610.88
588.97	451.72
589.13	369.80
589.29	353.42
589.45	402.57
589.61	355.76
589.77	400.23
589.93	470.45
590.08	444.70
590.24	477.47
590.40	456.40
590.56	465.77
590.72	418.96
590.88	367.46
591.04	369.80
591.20	304.27
591.35	365.12
591.51	327.68
591.67	332.36
591.83	306.61
591.99	306.61
592.15	369.80
592.31	339.38
592.46	372.15
592.62	280.86
592.78	416.62
592.94	421.30
593.10	383.85
593.26	327.68
593.41	327.68
593.57	390.87
593.73	550.03
593.89	2232.87
594.05	5731.97
594.20	7878.24
594.36	7482.69
594.52	4987.68
594.68	3124.62
594.84	2111.16
594.99	1212.40
595.15	678.76
595.31	411.93
595.47	451.72
595.62	297.25
595.78	311.29
595.94	304.27
596.10	362.78
596.25	290.23
596.41	367.46
596.57	318.31
596.73	337.04
596.88	531.30
597.04	1137.50
597.20	1895.83
597.36	2064.35
597.51	1570.50
597.67	1064.94
597.83	734.93
597.99	645.99
598.14	428.32
598.30	386.19
598.46	341.72
598.61	425.98
598.77	379.17
598.93	400.23
599.09	383.85
599.24	351.08
599.40	400.23
599.56	252.78
599.71	341.72
599.87	355.76
600.03	311.29
600.18	255.12
600.34	306.61
600.50	311.29
600.65	273.84
600.81	330.02
600.97	283.20
601.12	299.59
601.28	341.72
601.44	290.23
601.59	248.10
601.75	257.46
601.91	278.52
602.06	304.27
602.22	369.80
602.37	643.65
602.53	1369.21
602.69	2022.22
602.84	2127.55
603.00	1645.40
603.16	1177.29
603.31	863.66
603.47	608.54
603.62	397.89
603.78	346.40
603.94	341.72
604.09	379.17
604.25	262.14
604.40	311.29
604.56	351.08
604.71	299.59
604.87	280.86
605.03	241.08
605.18	330.02
605.34	390.87
605.49	271.50
605.65	294.91
605.80	292.57
605.96	341.72
606.12	327.68
606.27	351.08
606.43	346.40
606.58	423.64
606.74	823.87
606.89	2747.79
607.05	5305.99
607.20	6918.62
607.36	5401.96
607.51	3871.25
607.67	2492.67
607.82	1734.34
607.98	1064.94
608.13	636.63
608.29	479.81
608.44	510.24
608.60	465.77
608.75	468.11
608.91	1090.69
609.06	4184.88
609.22	9020.42
609.37	11342.24
609.53	9975.36
609.68	6726.70
609.84	4582.77
609.99	3091.85
610.15	1790.51
610.30	1090.69
610.46	905.79
610.61	786.42
610.76	889.40
610.92	1011.11
611.07	985.37
611.23	1107.07
611.38	973.66
611.54	919.83
611.69	835.57
611.84	758.33
612.00	711.52
612.15	613.22
612.31	725.57
612.46	774.72
612.62	730.25
612.77	805.14
612.92	784.08
613.08	667.05
613.23	641.31
613.39	535.98
613.54	849.61
613.69	3967.21
613.85	11019.24
614.00	16989.95
614.15	17818.50
614.31	12465.69
614.46	8484.44
614.62	5858.36
614.77	3543.57
614.92	1692.21
615.08	891.74
615.23	641.31
615.38	547.69
615.54	505.56
615.69	901.11
615.84	2373.30
616.00	3885.29
616.15	4762.99
616.30	3847.84
616.46	2904.60
616.61	1921.58
616.76	1481.56
616.92	830.89
617.07	489.17
617.22	404.91
617.37	344.06
617.53	339.38
617.68	311.29
617.83	313.63
617.99	404.91
618.14	362.78
618.29	407.25
618.45	304.27
618.60	311.29
618.75	337.04
618.90	248.10
619.06	407.25
619.21	325.33
619.36	351.08
619.51	238.73
619.67	273.84
619.82	266.82
619.97	227.03
620.12	297.25
620.28	325.33
620.43	322.99
620.58	360.44
620.73	386.19
620.89	287.89
621.04	578.11
621.19	1345.81
621.34	2328.83
621.49	2717.36
621.65	2607.36
621.80	1884.13
621.95	1268.57
622.10	976.00
622.25	617.90
622.41	372.15
622.56	334.70
622.71	388.53
622.86	290.23
623.01	243.42
623.16	393.21
623.32	234.05
623.47	315.97
623.62	287.89
623.77	250.44
623.92	248.10
624.07	379.17
624.23	271.50
624.38	301.93
624.53	311.29
624.68	304.27
624.83	313.63
624.98	299.59
625.13	250.44
625.29	264.48
625.44	374.49
625.59	390.87
625.74	425.98
625.89	592.16
626.04	1909.88
626.19	5320.04
626.34	8329.97
626.49	9282.56
626.65	6871.81
626.80	4770.01
626.95	3396.12
627.10	2083.08
627.25	1048.56
627.40	503.22
627.55	484.49
627.70	308.95
627.85	318.31
628.00	341.72
628.15	292.57
628.30	259.80
628.45	283.20
628.60	292.57
628.76	292.57
628.91	290.23
629.06	308.95
629.21	353.42
629.36	301.93
629.51	285.55
629.66	348.74
629.81	500.87
629.96	1135.16
630.11	1909.88
630.26	2553.52
630.41	2218.83
630.56	1633.69
630.71	1261.55
630.86	924.51
631.01	578.11
631.16	519.60
631.31	442.36
631.46	290.23
631.61	414.27
631.76	355.76
631.91	283.20
632.06	269.16
632.21	313.63
632.36	379.17
632.51	322.99
632.66	423.64
632.81	912.81
632.96	2923.33
633.10	5242.80
633.25	6314.77
633.40	5153.86
633.55	3674.64
633.70	2469.27
633.85	1645.40
634.00	959.62
634.15	596.84
634.30	374.49
634.45	325.33
634.60	294.91
634.75	245.76
634.90	257.46
635.05	304.27
635.19	231.71
635.34	334.70
635.49	285.55
635.64	294.91
635.79	273.84
635.94	262.14
636.09	271.50
636.24	292.57
636.39	220.01
636.53	257.46
636.68	271.50
636.83	257.46
636.98	418.96
637.13	290.23
637.28	383.85
637.43	351.08
637.57	608.54
637.72	2466.92
637.87	6913.94
638.02	10406.02
638.17	11580.97
638.32	8685.73
638.46	5884.11
638.61	4128.70
638.76	2523.10
638.91	1256.87
639.06	800.46
639.20	608.54
639.35	608.54
639.50	723.23
639.65	3852.52
639.80	10686.89
639.94	16358.00
640.09	17926.16
640.24	13448.72
640.39	8994.68
640.54	6153.27
640.68	3681.66
640.83	1930.94
640.98	917.49
641.13	531.30
641.27	449.38
641.42	337.04
641.57	409.59
641.72	308.95
641.86	271.50
642.01	269.16
642.16	367.46
642.31	294.91
642.45	322.99
642.60	334.70
642.75	215.33
642.90	201.29
643.04	273.84
643.19	248.10
643.34	269.16
643.48	250.44
643.63	257.46
643.78	264.48
643.93	315.97
644.07	245.76
644.22	304.27
644.37	259.80
644.51	299.59
644.66	297.25
644.81	278.52
644.95	236.39
645.10	163.84
645.25	241.08
645.39	189.58
645.54	224.69
645.69	266.82
645.83	208.31
645.98	287.89
646.13	255.12
646.27	266.82
646.42	170.86
646.57	229.37
646.71	236.39
646.86	196.60
647.00	285.55
647.15	269.16
647.30	203.63
647.44	205.97
647.59	198.95
647.74	159.16
647.88	264.48
648.03	198.95
648.17	255.12
648.32	212.99
648.47	299.59
648.61	278.52
648.76	238.73
648.90	269.16
649.05	297.25
649.20	241.08
649.34	248.10
649.49	252.78
649.63	318.31
649.78	301.93
649.92	437.68
650.07	1537.73
650.21	4451.70
650.36	7513.12
650.51	9121.07
650.65	7428.86
650.80	5322.38
650.94	3571.66
651.09	2310.11
651.23	1219.42
651.38	594.50
651.52	491.51
651.67	376.83
651.81	285.55
651.96	245.76
652.10	259.80
652.25	257.46
652.39	332.36
652.54	301.93
652.68	648.33
652.83	1551.78
652.97	2600.34
653.12	3281.43
653.26	2813.32
653.41	2162.66
653.55	1542.41
653.70	1109.41
653.84	596.84
653.99	411.93
654.13	351.08
654.27	255.12
654.42	177.88
654.56	297.25
654.71	243.42
654.85	271.50
655.00	238.73
655.14	229.37
655.29	168.52
655.43	201.29
655.57	224.69
655.72	248.10
655.86	161.50
656.01	227.03
656.15	210.65
656.30	301.93
656.44	133.41
656.58	222.35
656.73	224.69
656.87	220.01
657.01	241.08
657.16	280.86
657.30	252.78
657.45	264.48
657.59	191.92
657.73	220.01
657.88	227.03
658.02	255.12
658.16	210.65
658.31	212.99
658.45	198.95
658.60	273.84
658.74	255.12
658.88	245.76
659.03	201.29
659.17	203.63
659.31	690.46
659.46	2108.82
659.60	3733.15
659.74	4664.69
659.89	4114.66
660.03	3213.56
660.17	2115.84
660.32	1369.21
660.46	795.78
660.60	533.64
660.74	339.38
660.89	360.44
661.03	205.97
661.17	175.54
661.32	210.65
661.46	196.60
661.60	264.48
661.74	201.29
661.89	198.95
662.03	271.50
662.17	210.65
662.31	266.82
662.46	273.84
662.60	236.39
662.74	241.08
662.88	215.33
663.03	238.73
663.17	198.95
663.31	184.90
663.45	255.12
663.60	161.50
663.74	273.84
663.88	154.48
664.02	278.52
664.17	180.22
664.31	201.29
664.45	269.16
664.59	278.52
664.73	194.26
664.88	273.84
665.02	222.35
665.16	234.05
665.30	339.38
665.44	304.27
665.59	227.03
665.73	217.67
665.87	198.95
666.01	210.65
666.15	191.92
666.29	266.82
666.44	229.37
666.58	283.20
666.72	224.69
666.86	269.16
667.00	257.46
667.14	393.21
667.28	1373.89
667.43	3791.67
667.57	6530.09
667.71	7981.23
667.85	6995.86
667.99	5156.20
668.13	3323.56
668.27	1963.71
668.41	1203.04
668.56	671.73
668.70	535.98
668.84	299.59
668.98	322.99
669.12	220.01
669.26	266.82
669.40	278.52
669.54	243.42
669.68	315.97
669.82	203.63
669.96	205.97
670.10	142.77
670.25	191.92
670.39	152.13
670.53	257.46
670.67	320.65
670.81	189.58
670.95	283.20
671.09	428.32
671.23	1624.33
671.37	3229.94
671.51	4688.09
671.65	5256.84
671.79	3864.22
671.93	2855.45
672.07	1818.60
672.21	1076.65
672.35	638.97
672.49	486.83
672.63	346.40
672.77	255.12
672.91	346.40
673.05	205.97
673.19	205.97
673.33	203.63
673.47	262.14
673.61	177.88
673.75	222.35
673.89	154.48
674.03	170.86
674.17	163.84
674.31	170.86
674.45	215.33
674.59	250.44
674.73	166.18
674.87	198.95
675.01	224.69
675.15	255.12
675.29	276.18
675.43	196.60
675.56	266.82
675.70	269.16
675.84	220.01
675.98	245.76
676.12	222.35
676.26	173.20
676.40	180.22
676.54	175.54
676.68	198.95
676.82	290.23
676.96	173.20
677.10	196.60
677.23	161.50
677.37	191.92
677.51	245.76
677.65	182.56
677.79	138.09
677.93	149.79
678.07	191.92
678.21	180.22
678.34	156.82
678.48	140.43
678.62	184.90
678.76	224.69
678.90	149.79
679.04	184.90
679.18	198.95
679.31	138.09
679.45	203.63
679.59	191.92
679.73	262.14
679.87	205.97
680.00	147.45
680.14	147.45
680.28	257.46
680.42	156.82
680.56	173.20
680.70	205.97
680.83	170.86
680.97	119.37
681.11	203.63
681.25	224.69
681.39	133.41
681.52	175.54
681.66	161.50
681.80	177.88
681.94	154.48
682.07	212.99
682.21	147.45
682.35	131.07
682.49	224.69
682.62	189.58
682.76	222.35
682.90	168.52
683.04	191.92
683.17	217.67
683.31	149.79
683.45	212.99
683.59	170.86
683.72	170.86
683.86	182.56
684.00	168.52
684.13	215.33
684.27	175.54
684.41	250.44
684.55	208.31
684.68	187.24
684.82	196.60
684.96	140.43
685.09	212.99
685.23	194.26
685.37	208.31
685.50	287.89
685.64	173.20
685.78	133.41
685.91	194.26
686.05	208.31
686.19	168.52
686.32	173.20
686.46	210.65
686.60	74.90
686.73	318.31
686.87	224.69
687.01	182.56
687.14	224.69
687.28	283.20
687.42	161.50
687.55	210.65
687.69	210.65
687.82	189.58
687.96	205.97
688.10	142.77
688.23	170.86
688.37	182.56
688.50	161.50
688.64	138.09
688.78	231.71
688.91	259.80
689.05	140.43
689.18	140.43
689.32	180.22
689.46	222.35
689.59	203.63
689.73	177.88
689.86	156.82
690.00	231.71
690.13	124.05
690.27	170.86
690.41	131.07
690.54	180.22
690.68	166.18
690.81	145.11
690.95	255.12
691.08	196.60
691.22	159.16
691.35	100.64
691.49	147.45
691.62	154.48
691.76	241.08
691.89	208.31
692.03	198.95
692.16	196.60
692.30	255.12
692.43	564.07
692.57	1659.44
692.70	2738.43
692.84	3412.50
692.97	3131.64
693.11	2394.37
693.24	1680.50
693.38	1144.52
693.51	814.51
693.65	730.25
693.78	470.45
693.92	322.99
694.05	315.97
694.19	283.20
694.32	227.03
694.45	229.37
694.59	145.11
694.72	168.52
694.86	191.92
694.99	189.58
695.13	210.65
695.26	203.63
695.39	241.08
695.53	266.82
695.66	203.63
695.80	161.50
695.93	149.79
696.07	168.52
696.20	311.29
696.33	283.20
696.47	330.02
696.60	255.12
696.73	320.65
696.87	271.50
697.00	334.70
697.14	180.22
697.27	133.41
697.40	318.31
697.54	170.86
697.67	163.84
697.80	140.43
697.94	114.69
698.07	205.97
698.21	175.54
698.34	175.54
698.47	147.45
698.61	166.18
698.74	173.20
698.87	205.97
699.01	161.50
699.14	117.03
699.27	194.26
699.40	320.65
699.54	154.48
699.67	142.77
699.80	100.64
699.94	121.71
700.07	121.71
700.20	210.65
700.34	161.50
700.47	147.45
700.60	149.79
700.73	79.58
700.87	222.35
701.00	208.31
701.13	194.26
701.26	271.50
701.40	245.76
701.53	93.62
701.66	170.86
701.79	224.69
701.93	245.76
702.06	388.53
702.19	320.65
702.32	411.93
702.46	308.95
702.59	367.46
702.72	697.48
702.85	1944.99
702.99	4320.63
703.12	5872.40
703.25	6841.39
703.38	5928.58
703.51	4755.97
703.65	3599.74
703.78	2544.16
703.91	1673.48
704.04	1167.93
704.17	723.23
704.31	433.00
704.44	355.76
704.57	231.71
704.70	212.99
704.83	266.82
704.96	182.56
705.10	138.09
705.23	189.58
>>>>>End Processed Spectral Data<<<<<
