SpectraSuite Data File
++++++++++++++++++++++++++++++++++++
Date: Fri Oct 04 11:33:46 GMT-05:00 2013
User: price-jones
Dark Spectrum Present: No
Reference Spectrum Present: No
Number of Sampled Component Spectra: 1
Spectrometers: USB2+H05261
Integration Time (usec): 100000 (USB2+H05261)
Spectra Averaged: 1 (USB2+H05261)
Boxcar Smoothing: 0 (USB2+H05261)
Correct for Electrical Dark: No (USB2+H05261)
Strobe/Lamp Enabled: No (USB2+H05261)
Correct for Detector Non-linearity: No (USB2+H05261)
Correct for Stray Light: No (USB2+H05261)
Number of Pixels in Processed Spectrum: 2048
>>>>>Begin Processed Spectral Data<<<<<
365.73	81.92
365.92	81.92
366.12	81.92
366.32	25.75
366.52	0.00
366.72	0.00
366.91	0.00
367.11	0.00
367.31	0.00
367.51	0.00
367.70	0.00
367.90	0.00
368.10	0.00
368.30	28.09
368.49	0.00
368.69	4.68
368.89	4.68
369.09	0.00
369.28	0.00
369.48	0.00
369.68	14.04
369.87	21.06
370.07	79.58
370.27	46.81
370.47	32.77
370.66	16.38
370.86	25.75
371.06	74.90
371.25	154.48
371.45	91.28
371.65	51.49
371.84	110.01
372.04	102.98
372.24	126.39
372.44	117.03
372.63	170.86
372.83	142.77
373.03	149.79
373.22	166.18
373.42	168.52
373.62	77.24
373.81	168.52
374.01	177.88
374.21	177.88
374.40	196.60
374.60	133.41
374.79	182.56
374.99	166.18
375.19	114.69
375.38	145.11
375.58	198.95
375.78	100.64
375.97	133.41
376.17	229.37
376.37	177.88
376.56	184.90
376.76	126.39
376.95	114.69
377.15	133.41
377.35	110.01
377.54	117.03
377.74	112.35
377.93	128.73
378.13	212.99
378.33	142.77
378.52	180.22
378.72	170.86
378.91	231.71
379.11	131.07
379.31	170.86
379.50	117.03
379.70	114.69
379.89	112.35
380.09	124.05
380.28	88.94
380.48	149.79
380.68	128.73
380.87	112.35
381.07	95.96
381.26	243.42
381.46	201.29
381.65	126.39
381.85	100.64
382.04	138.09
382.24	163.84
382.43	131.07
382.63	152.13
382.83	112.35
383.02	149.79
383.22	117.03
383.41	189.58
383.61	117.03
383.80	149.79
384.00	140.43
384.19	124.05
384.39	145.11
384.58	152.13
384.78	145.11
384.97	93.62
385.17	147.45
385.36	166.18
385.56	147.45
385.75	149.79
385.95	159.16
386.14	138.09
386.34	145.11
386.53	147.45
386.72	159.16
386.92	128.73
387.11	161.50
387.31	184.90
387.50	121.71
387.70	168.52
387.89	140.43
388.09	124.05
388.28	159.16
388.48	145.11
388.67	119.37
388.86	173.20
389.06	95.96
389.25	191.92
389.45	124.05
389.64	140.43
389.84	159.16
390.03	210.65
390.22	201.29
390.42	145.11
390.61	81.92
390.81	175.54
391.00	140.43
391.19	212.99
391.39	124.05
391.58	159.16
391.78	140.43
391.97	152.13
392.16	140.43
392.36	156.82
392.55	170.86
392.75	107.66
392.94	107.66
393.13	124.05
393.33	86.60
393.52	79.58
393.71	175.54
393.91	161.50
394.10	168.52
394.29	98.30
394.49	70.22
394.68	98.30
394.88	180.22
395.07	220.01
395.26	170.86
395.46	138.09
395.65	131.07
395.84	159.16
396.04	163.84
396.23	133.41
396.42	180.22
396.62	161.50
396.81	121.71
397.00	210.65
397.19	114.69
397.39	112.35
397.58	105.32
397.77	159.16
397.97	163.84
398.16	135.75
398.35	191.92
398.55	187.24
398.74	142.77
398.93	198.95
399.12	135.75
399.32	124.05
399.51	121.71
399.70	93.62
399.90	156.82
400.09	119.37
400.28	161.50
400.47	142.77
400.67	159.16
400.86	175.54
401.05	184.90
401.24	227.03
401.44	194.26
401.63	107.66
401.82	243.42
402.01	135.75
402.21	163.84
402.40	182.56
402.59	201.29
402.78	166.18
402.97	147.45
403.17	198.95
403.36	142.77
403.55	278.52
403.74	170.86
403.93	191.92
404.13	210.65
404.32	255.12
404.51	159.16
404.70	191.92
404.89	180.22
405.09	170.86
405.28	173.20
405.47	156.82
405.66	161.50
405.85	189.58
406.05	229.37
406.24	208.31
406.43	194.26
406.62	117.03
406.81	264.48
407.00	177.88
407.20	140.43
407.39	152.13
407.58	166.18
407.77	100.64
407.96	203.63
408.15	163.84
408.34	105.32
408.54	147.45
408.73	147.45
408.92	182.56
409.11	205.97
409.30	161.50
409.49	117.03
409.68	177.88
409.87	154.48
410.07	140.43
410.26	222.35
410.45	147.45
410.64	138.09
410.83	112.35
411.02	110.01
411.21	184.90
411.40	145.11
411.59	168.52
411.78	163.84
411.98	149.79
412.17	102.98
412.36	161.50
412.55	91.28
412.74	180.22
412.93	107.66
413.12	135.75
413.31	135.75
413.50	63.19
413.69	175.54
413.88	259.80
414.07	212.99
414.26	196.60
414.45	187.24
414.64	142.77
414.83	203.63
415.02	191.92
415.22	187.24
415.41	135.75
415.60	154.48
415.79	189.58
415.98	198.95
416.17	208.31
416.36	147.45
416.55	110.01
416.74	198.95
416.93	194.26
417.12	135.75
417.31	138.09
417.50	166.18
417.69	231.71
417.88	170.86
418.07	133.41
418.26	163.84
418.45	161.50
418.64	161.50
418.83	173.20
419.02	231.71
419.21	161.50
419.39	189.58
419.58	184.90
419.77	145.11
419.96	112.35
420.15	180.22
420.34	187.24
420.53	166.18
420.72	203.63
420.91	173.20
421.10	175.54
421.29	140.43
421.48	142.77
421.67	187.24
421.86	196.60
422.05	220.01
422.24	112.35
422.43	238.73
422.61	217.67
422.80	212.99
422.99	126.39
423.18	119.37
423.37	229.37
423.56	229.37
423.75	135.75
423.94	170.86
424.13	156.82
424.32	236.39
424.50	191.92
424.69	194.26
424.88	198.95
425.07	168.52
425.26	205.97
425.45	212.99
425.64	170.86
425.83	198.95
426.01	220.01
426.20	114.69
426.39	180.22
426.58	187.24
426.77	222.35
426.96	140.43
427.15	201.29
427.33	205.97
427.52	201.29
427.71	175.54
427.90	145.11
428.09	72.56
428.28	170.86
428.46	175.54
428.65	156.82
428.84	182.56
429.03	212.99
429.22	107.66
429.40	217.67
429.59	159.16
429.78	297.25
429.97	142.77
430.16	175.54
430.34	140.43
430.53	170.86
430.72	205.97
430.91	133.41
431.10	140.43
431.28	131.07
431.47	212.99
431.66	180.22
431.85	177.88
432.03	201.29
432.22	215.33
432.41	145.11
432.60	250.44
432.79	191.92
432.97	198.95
433.16	222.35
433.35	147.45
433.54	107.66
433.72	177.88
433.91	95.96
434.10	170.86
434.28	208.31
434.47	110.01
434.66	175.54
434.85	184.90
435.03	280.86
435.22	297.25
435.41	388.53
435.59	393.21
435.78	365.12
435.97	241.08
436.16	287.89
436.34	203.63
436.53	184.90
436.72	220.01
436.90	269.16
437.09	112.35
437.28	220.01
437.46	166.18
437.65	117.03
437.84	166.18
438.02	154.48
438.21	194.26
438.40	124.05
438.58	201.29
438.77	180.22
438.96	191.92
439.14	159.16
439.33	241.08
439.52	250.44
439.70	231.71
439.89	203.63
440.08	222.35
440.26	182.56
440.45	245.76
440.63	180.22
440.82	159.16
441.01	180.22
441.19	198.95
441.38	140.43
441.57	198.95
441.75	210.65
441.94	290.23
442.12	201.29
442.31	189.58
442.50	149.79
442.68	142.77
442.87	203.63
443.05	194.26
443.24	128.73
443.43	198.95
443.61	205.97
443.80	231.71
443.98	241.08
444.17	212.99
444.35	278.52
444.54	168.52
444.73	149.79
444.91	194.26
445.10	110.01
445.28	177.88
445.47	145.11
445.65	177.88
445.84	264.48
446.02	163.84
446.21	145.11
446.39	196.60
446.58	210.65
446.77	203.63
446.95	224.69
447.14	203.63
447.32	238.73
447.51	191.92
447.69	208.31
447.88	163.84
448.06	224.69
448.25	198.95
448.43	177.88
448.62	161.50
448.80	198.95
448.99	180.22
449.17	140.43
449.36	194.26
449.54	203.63
449.73	60.85
449.91	234.05
450.10	161.50
450.28	311.29
450.46	259.80
450.65	208.31
450.83	227.03
451.02	245.76
451.20	248.10
451.39	128.73
451.57	327.68
451.76	238.73
451.94	220.01
452.13	187.24
452.31	241.08
452.49	269.16
452.68	201.29
452.86	187.24
453.05	224.69
453.23	205.97
453.42	147.45
453.60	205.97
453.78	184.90
453.97	170.86
454.15	142.77
454.34	180.22
454.52	238.73
454.70	166.18
454.89	182.56
455.07	140.43
455.26	252.78
455.44	182.56
455.62	231.71
455.81	182.56
455.99	271.50
456.17	210.65
456.36	189.58
456.54	180.22
456.73	278.52
456.91	229.37
457.09	243.42
457.28	220.01
457.46	201.29
457.64	196.60
457.83	147.45
458.01	177.88
458.19	205.97
458.38	241.08
458.56	222.35
458.74	215.33
458.93	234.05
459.11	224.69
459.29	121.71
459.48	177.88
459.66	234.05
459.84	142.77
460.03	280.86
460.21	189.58
460.39	231.71
460.57	245.76
460.76	262.14
460.94	201.29
461.12	285.55
461.31	245.76
461.49	201.29
461.67	145.11
461.85	187.24
462.04	283.20
462.22	599.18
462.40	212.99
462.59	283.20
462.77	154.48
462.95	220.01
463.13	145.11
463.32	156.82
463.50	266.82
463.68	220.01
463.86	215.33
464.05	173.20
464.23	273.84
464.41	236.39
464.59	182.56
464.78	163.84
464.96	135.75
465.14	184.90
465.32	231.71
465.50	161.50
465.69	243.42
465.87	175.54
466.05	212.99
466.23	243.42
466.41	238.73
466.60	259.80
466.78	231.71
466.96	184.90
467.14	147.45
467.32	191.92
467.51	217.67
467.69	241.08
467.87	187.24
468.05	189.58
468.23	276.18
468.41	255.12
468.60	196.60
468.78	161.50
468.96	208.31
469.14	238.73
469.32	147.45
469.50	217.67
469.69	194.26
469.87	262.14
470.05	131.07
470.23	220.01
470.41	248.10
470.59	290.23
470.77	262.14
470.95	177.88
471.14	182.56
471.32	168.52
471.50	212.99
471.68	234.05
471.86	196.60
472.04	215.33
472.22	196.60
472.40	262.14
472.58	91.28
472.77	236.39
472.95	173.20
473.13	278.52
473.31	252.78
473.49	173.20
473.67	271.50
473.85	299.59
474.03	166.18
474.21	234.05
474.39	215.33
474.57	173.20
474.75	159.16
474.93	203.63
475.12	231.71
475.30	198.95
475.48	163.84
475.66	182.56
475.84	161.50
476.02	217.67
476.20	252.78
476.38	138.09
476.56	266.82
476.74	198.95
476.92	236.39
477.10	264.48
477.28	224.69
477.46	191.92
477.64	210.65
477.82	231.71
478.00	236.39
478.18	191.92
478.36	196.60
478.54	170.86
478.72	210.65
478.90	166.18
479.08	229.37
479.26	257.46
479.44	266.82
479.62	217.67
479.80	283.20
479.98	145.11
480.16	269.16
480.34	313.63
480.52	266.82
480.70	250.44
480.88	229.37
481.06	208.31
481.24	201.29
481.41	198.95
481.59	255.12
481.77	201.29
481.95	138.09
482.13	334.70
482.31	215.33
482.49	201.29
482.67	304.27
482.85	285.55
483.03	177.88
483.21	236.39
483.39	187.24
483.57	215.33
483.74	234.05
483.92	212.99
484.10	161.50
484.28	187.24
484.46	320.65
484.64	229.37
484.82	187.24
485.00	266.82
485.18	273.84
485.35	271.50
485.53	198.95
485.71	271.50
485.89	283.20
486.07	250.44
486.25	330.02
486.43	299.59
486.61	245.76
486.78	229.37
486.96	297.25
487.14	290.23
487.32	229.37
487.50	222.35
487.68	297.25
487.85	189.58
488.03	243.42
488.21	351.08
488.39	297.25
488.57	243.42
488.75	227.03
488.92	552.37
489.10	276.18
489.28	285.55
489.46	191.92
489.64	180.22
489.81	313.63
489.99	283.20
490.17	311.29
490.35	290.23
490.53	290.23
490.70	224.69
490.88	266.82
491.06	224.69
491.24	252.78
491.41	332.36
491.59	299.59
491.77	189.58
491.95	187.24
492.13	294.91
492.30	292.57
492.48	224.69
492.66	245.76
492.84	266.82
493.01	220.01
493.19	290.23
493.37	351.08
493.54	353.42
493.72	292.57
493.90	262.14
494.08	248.10
494.25	280.86
494.43	273.84
494.61	292.57
494.79	301.93
494.96	283.20
495.14	241.08
495.32	243.42
495.49	231.71
495.67	306.61
495.85	271.50
496.02	290.23
496.20	257.46
496.38	266.82
496.55	287.89
496.73	280.86
496.91	269.16
497.09	308.95
497.26	290.23
497.44	245.76
497.62	292.57
497.79	299.59
497.97	236.39
498.14	231.71
498.32	262.14
498.50	191.92
498.67	283.20
498.85	292.57
499.03	306.61
499.20	287.89
499.38	280.86
499.56	252.78
499.73	339.38
499.91	308.95
500.08	322.99
500.26	255.12
500.44	299.59
500.61	271.50
500.79	318.31
500.97	271.50
501.14	255.12
501.32	276.18
501.49	250.44
501.67	299.59
501.84	234.05
502.02	248.10
502.20	299.59
502.37	259.80
502.55	241.08
502.72	229.37
502.90	257.46
503.07	262.14
503.25	201.29
503.43	238.73
503.60	318.31
503.78	257.46
503.95	231.71
504.13	308.95
504.30	301.93
504.48	330.02
504.65	243.42
504.83	273.84
505.01	273.84
505.18	285.55
505.36	210.65
505.53	205.97
505.71	278.52
505.88	351.08
506.06	304.27
506.23	330.02
506.41	241.08
506.58	292.57
506.76	287.89
506.93	287.89
507.11	278.52
507.28	250.44
507.46	273.84
507.63	241.08
507.81	315.97
507.98	238.73
508.16	299.59
508.33	290.23
508.50	290.23
508.68	290.23
508.85	271.50
509.03	367.46
509.20	367.46
509.38	308.95
509.55	322.99
509.73	280.86
509.90	245.76
510.08	262.14
510.25	269.16
510.42	234.05
510.60	266.82
510.77	322.99
510.95	320.65
511.12	280.86
511.30	269.16
511.47	306.61
511.64	301.93
511.82	271.50
511.99	280.86
512.17	201.29
512.34	320.65
512.51	287.89
512.69	180.22
512.86	320.65
513.04	266.82
513.21	283.20
513.38	311.29
513.56	273.84
513.73	297.25
513.90	248.10
514.08	334.70
514.25	255.12
514.43	311.29
514.60	313.63
514.77	191.92
514.95	325.33
515.12	332.36
515.29	362.78
515.47	294.91
515.64	348.74
515.81	292.57
515.99	205.97
516.16	266.82
516.33	337.04
516.51	248.10
516.68	264.48
516.85	182.56
517.03	227.03
517.20	304.27
517.37	271.50
517.54	294.91
517.72	318.31
517.89	220.01
518.06	243.42
518.24	315.97
518.41	241.08
518.58	334.70
518.75	294.91
518.93	227.03
519.10	269.16
519.27	271.50
519.45	381.51
519.62	292.57
519.79	269.16
519.96	287.89
520.14	315.97
520.31	318.31
520.48	369.80
520.65	332.36
520.83	353.42
521.00	360.44
521.17	341.72
521.34	255.12
521.52	308.95
521.69	301.93
521.86	297.25
522.03	297.25
522.20	348.74
522.38	337.04
522.55	245.76
522.72	212.99
522.89	313.63
523.07	301.93
523.24	325.33
523.41	227.03
523.58	320.65
523.75	306.61
523.92	332.36
524.10	358.10
524.27	318.31
524.44	283.20
524.61	315.97
524.78	407.25
524.96	278.52
525.13	327.68
525.30	315.97
525.47	320.65
525.64	411.93
525.81	337.04
525.98	308.95
526.16	313.63
526.33	285.55
526.50	264.48
526.67	301.93
526.84	313.63
527.01	292.57
527.18	287.89
527.36	325.33
527.53	248.10
527.70	269.16
527.87	355.76
528.04	425.98
528.21	369.80
528.38	264.48
528.55	311.29
528.72	360.44
528.89	327.68
529.07	376.83
529.24	346.40
529.41	294.91
529.58	245.76
529.75	292.57
529.92	283.20
530.09	257.46
530.26	344.06
530.43	311.29
530.60	280.86
530.77	294.91
530.94	273.84
531.11	304.27
531.28	290.23
531.46	205.97
531.63	362.78
531.80	334.70
531.97	325.33
532.14	348.74
532.31	320.65
532.48	283.20
532.65	280.86
532.82	259.80
532.99	365.12
533.16	318.31
533.33	362.78
533.50	285.55
533.67	215.33
533.84	320.65
534.01	318.31
534.18	301.93
534.35	266.82
534.52	283.20
534.69	332.36
534.86	372.15
535.03	318.31
535.20	318.31
535.37	339.38
535.54	308.95
535.71	332.36
535.88	365.12
536.05	325.33
536.22	351.08
536.38	299.59
536.55	360.44
536.72	407.25
536.89	334.70
537.06	376.83
537.23	330.02
537.40	330.02
537.57	287.89
537.74	334.70
537.91	353.42
538.08	355.76
538.25	313.63
538.42	348.74
538.59	287.89
538.75	440.02
538.92	355.76
539.09	372.15
539.26	379.17
539.43	442.36
539.60	463.43
539.77	475.13
539.94	571.09
540.11	592.16
540.28	500.87
540.44	472.79
540.61	430.66
540.78	507.90
540.95	538.32
541.12	683.44
541.29	650.67
541.46	559.39
541.62	704.50
541.79	641.31
541.96	587.47
542.13	538.32
542.30	622.58
542.47	517.26
542.63	606.20
542.80	503.22
542.97	510.24
543.14	528.96
543.31	533.64
543.48	580.45
543.64	484.49
543.81	482.15
543.98	550.03
544.15	571.09
544.32	575.77
544.48	528.96
544.65	582.79
544.82	568.75
544.99	500.87
545.16	557.05
545.32	554.71
545.49	823.87
545.66	1158.57
545.83	1100.05
546.00	964.30
546.16	763.01
546.33	636.63
546.50	550.03
546.67	463.43
546.83	587.47
547.00	484.49
547.17	496.19
547.34	386.19
547.50	440.02
547.67	489.17
547.84	402.57
548.00	489.17
548.17	404.91
548.34	440.02
548.51	543.00
548.67	430.66
548.84	397.89
549.01	418.96
549.18	454.06
549.34	407.25
549.51	322.99
549.68	404.91
549.84	428.32
550.01	393.21
550.18	468.11
550.34	442.36
550.51	379.17
550.68	360.44
550.84	355.76
551.01	383.85
551.18	337.04
551.34	332.36
551.51	409.59
551.68	308.95
551.84	379.17
552.01	341.72
552.18	358.10
552.34	346.40
552.51	374.49
552.68	353.42
552.84	383.85
553.01	372.15
553.18	294.91
553.34	365.12
553.51	283.20
553.67	344.06
553.84	327.68
554.01	306.61
554.17	330.02
554.34	301.93
554.51	348.74
554.67	360.44
554.84	355.76
555.00	365.12
555.17	304.27
555.33	308.95
555.50	283.20
555.67	330.02
555.83	315.97
556.00	346.40
556.16	416.62
556.33	318.31
556.50	315.97
556.66	290.23
556.83	283.20
556.99	283.20
557.16	315.97
557.32	327.68
557.49	297.25
557.65	248.10
557.82	337.04
557.98	341.72
558.15	311.29
558.32	278.52
558.48	271.50
558.65	294.91
558.81	341.72
558.98	266.82
559.14	308.95
559.31	325.33
559.47	358.10
559.64	339.38
559.80	365.12
559.97	351.08
560.13	248.10
560.30	313.63
560.46	339.38
560.63	299.59
560.79	318.31
560.96	294.91
561.12	351.08
561.29	290.23
561.45	383.85
561.61	271.50
561.78	276.18
561.94	320.65
562.11	250.44
562.27	325.33
562.44	245.76
562.60	255.12
562.77	320.65
562.93	358.10
563.10	229.37
563.26	332.36
563.42	227.03
563.59	332.36
563.75	159.16
563.92	402.57
564.08	290.23
564.24	290.23
564.41	360.44
564.57	271.50
564.74	255.12
564.90	386.19
565.07	290.23
565.23	259.80
565.39	257.46
565.56	299.59
565.72	327.68
565.88	276.18
566.05	315.97
566.21	227.03
566.38	301.93
566.54	311.29
566.70	376.83
566.87	191.92
567.03	299.59
567.19	276.18
567.36	304.27
567.52	308.95
567.68	280.86
567.85	325.33
568.01	287.89
568.17	208.31
568.34	287.89
568.50	297.25
568.66	212.99
568.83	322.99
568.99	273.84
569.15	351.08
569.32	236.39
569.48	283.20
569.64	327.68
569.81	222.35
569.97	283.20
570.13	276.18
570.30	196.60
570.46	245.76
570.62	332.36
570.78	313.63
570.95	250.44
571.11	355.76
571.27	297.25
571.43	231.71
571.60	259.80
571.76	238.73
571.92	278.52
572.09	276.18
572.25	334.70
572.41	269.16
572.57	276.18
572.74	306.61
572.90	255.12
573.06	365.12
573.22	208.31
573.38	280.86
573.55	344.06
573.71	311.29
573.87	327.68
574.03	250.44
574.20	325.33
574.36	313.63
574.52	243.42
574.68	290.23
574.84	283.20
575.01	238.73
575.17	280.86
575.33	229.37
575.49	283.20
575.65	297.25
575.82	308.95
575.98	379.17
576.14	315.97
576.30	381.51
576.46	365.12
576.62	482.15
576.79	379.17
576.95	367.46
577.11	367.46
577.27	376.83
577.43	339.38
577.59	327.68
577.75	306.61
577.92	299.59
578.08	308.95
578.24	299.59
578.40	308.95
578.56	430.66
578.72	367.46
578.88	425.98
579.04	428.32
579.21	351.08
579.37	290.23
579.53	344.06
579.69	348.74
579.85	381.51
580.01	332.36
580.17	290.23
580.33	393.21
580.49	280.86
580.65	325.33
580.82	334.70
580.98	332.36
581.14	330.02
581.30	411.93
581.46	334.70
581.62	346.40
581.78	372.15
581.94	393.21
582.10	383.85
582.26	362.78
582.42	313.63
582.58	355.76
582.74	381.51
582.90	402.57
583.06	395.55
583.22	348.74
583.38	351.08
583.54	381.51
583.70	388.53
583.86	433.00
584.02	374.49
584.18	482.15
584.34	428.32
584.50	587.47
584.66	1874.77
584.82	4283.18
584.98	5923.90
585.14	5483.88
585.30	3658.26
585.46	2363.94
585.62	1561.14
585.78	877.70
585.94	594.50
586.10	442.36
586.26	421.30
586.42	477.47
586.58	461.09
586.74	402.57
586.90	465.77
587.06	442.36
587.22	440.02
587.38	383.85
587.54	376.83
587.70	674.07
587.86	767.70
588.02	758.33
588.18	622.58
588.34	468.11
588.49	512.58
588.65	355.76
588.81	348.74
588.97	269.16
589.13	311.29
589.29	330.02
589.45	276.18
589.61	215.33
589.77	334.70
589.93	287.89
590.08	322.99
590.24	334.70
590.40	383.85
590.56	376.83
590.72	234.05
590.88	292.57
591.04	313.63
591.20	320.65
591.35	409.59
591.51	285.55
591.67	313.63
591.83	248.10
591.99	315.97
592.15	395.55
592.31	297.25
592.46	339.38
592.62	390.87
592.78	383.85
592.94	409.59
593.10	393.21
593.26	362.78
593.41	327.68
593.57	374.49
593.73	322.99
593.89	528.96
594.05	702.16
594.20	1006.43
594.36	1018.13
594.52	777.06
594.68	589.82
594.84	507.90
594.99	437.68
595.15	341.72
595.31	259.80
595.47	313.63
595.62	292.57
595.78	280.86
595.94	313.63
596.10	318.31
596.25	334.70
596.41	287.89
596.57	311.29
596.73	234.05
596.88	276.18
597.04	376.83
597.20	444.70
597.36	507.90
597.51	440.02
597.67	390.87
597.83	411.93
597.99	358.10
598.14	334.70
598.30	269.16
598.46	243.42
598.61	313.63
598.77	369.80
598.93	313.63
599.09	283.20
599.24	393.21
599.40	395.55
599.56	409.59
599.71	346.40
599.87	301.93
600.03	315.97
600.18	388.53
600.34	320.65
600.50	276.18
600.65	285.55
600.81	318.31
600.97	280.86
601.12	255.12
601.28	327.68
601.44	276.18
601.59	248.10
601.75	285.55
601.91	315.97
602.06	304.27
602.22	346.40
602.37	402.57
602.53	325.33
602.69	524.28
602.84	458.74
603.00	454.06
603.16	421.30
603.31	421.30
603.47	341.72
603.62	287.89
603.78	294.91
603.94	294.91
604.09	320.65
604.25	257.46
604.40	271.50
604.56	313.63
604.71	341.72
604.87	320.65
605.03	325.33
605.18	306.61
605.34	358.10
605.49	318.31
605.65	311.29
605.80	322.99
605.96	283.20
606.12	372.15
606.27	278.52
606.43	360.44
606.58	393.21
606.74	397.89
606.89	524.28
607.05	849.61
607.20	983.02
607.36	849.61
607.51	664.71
607.67	458.74
607.82	442.36
607.98	386.19
608.13	341.72
608.29	297.25
608.44	416.62
608.60	491.51
608.75	418.96
608.91	428.32
609.06	737.27
609.22	1132.82
609.37	1434.75
609.53	1291.98
609.68	1041.54
609.84	919.83
609.99	713.86
610.15	734.93
610.30	657.69
610.46	767.70
610.61	887.06
610.76	912.81
610.92	1132.82
611.07	1121.12
611.23	1156.22
611.38	1128.14
611.54	912.81
611.69	931.53
611.84	758.33
612.00	638.97
612.15	648.33
612.31	592.16
612.46	587.47
612.62	498.53
612.77	566.41
612.92	540.66
613.08	512.58
613.23	512.58
613.39	428.32
613.54	437.68
613.69	770.04
613.85	1472.20
614.00	2073.71
614.15	2087.76
614.31	1589.22
614.46	1280.27
614.62	999.41
614.77	741.95
614.92	550.03
615.08	489.17
615.23	533.64
615.38	451.72
615.54	454.06
615.69	402.57
615.84	496.19
616.00	706.84
616.15	873.02
616.30	655.35
616.46	592.16
616.61	498.53
616.76	411.93
616.92	355.76
617.07	271.50
617.22	285.55
617.37	315.97
617.53	376.83
617.68	292.57
617.83	315.97
617.99	365.12
618.14	339.38
618.29	301.93
618.45	348.74
618.60	196.60
618.75	360.44
618.90	273.84
619.06	262.14
619.21	383.85
619.36	262.14
619.51	325.33
619.67	299.59
619.82	212.99
619.97	259.80
620.12	355.76
620.28	266.82
620.43	273.84
620.58	341.72
620.73	365.12
620.89	299.59
621.04	320.65
621.19	465.77
621.34	510.24
621.49	648.33
621.65	580.45
621.80	517.26
621.95	379.17
622.10	276.18
622.25	330.02
622.41	273.84
622.56	315.97
622.71	299.59
622.86	280.86
623.01	294.91
623.16	278.52
623.32	290.23
623.47	337.04
623.62	308.95
623.77	280.86
623.92	259.80
624.07	278.52
624.23	243.42
624.38	269.16
624.53	238.73
624.68	311.29
624.83	407.25
624.98	278.52
625.13	259.80
625.29	248.10
625.44	320.65
625.59	351.08
625.74	381.51
625.89	299.59
626.04	468.11
626.19	842.59
626.34	1029.84
626.49	1177.29
626.65	926.85
626.80	798.12
626.95	645.99
627.10	472.79
627.25	346.40
627.40	339.38
627.55	383.85
627.70	313.63
627.85	271.50
628.00	212.99
628.15	269.16
628.30	355.76
628.45	292.57
628.60	236.39
628.76	205.97
628.91	252.78
629.06	318.31
629.21	269.16
629.36	292.57
629.51	257.46
629.66	327.68
629.81	327.68
629.96	358.10
630.11	521.94
630.26	545.34
630.41	512.58
630.56	526.62
630.71	367.46
630.86	395.55
631.01	325.33
631.16	320.65
631.31	264.48
631.46	362.78
631.61	318.31
631.76	287.89
631.91	287.89
632.06	365.12
632.21	292.57
632.36	280.86
632.51	344.06
632.66	248.10
632.81	308.95
632.96	470.45
633.10	723.23
633.25	905.79
633.40	847.27
633.55	674.07
633.70	433.00
633.85	365.12
634.00	390.87
634.15	250.44
634.30	285.55
634.45	315.97
634.60	189.58
634.75	222.35
634.90	222.35
635.05	250.44
635.19	248.10
635.34	299.59
635.49	280.86
635.64	210.65
635.79	201.29
635.94	276.18
636.09	236.39
636.24	269.16
636.39	234.05
636.53	266.82
636.68	184.90
636.83	273.84
636.98	306.61
637.13	159.16
637.28	229.37
637.43	208.31
637.57	327.68
637.72	524.28
637.87	837.91
638.02	1240.48
638.17	1399.64
638.32	1125.80
638.46	842.59
638.61	702.16
638.76	491.51
638.91	367.46
639.06	273.84
639.20	276.18
639.35	208.31
639.50	220.01
639.65	653.01
639.80	1256.87
639.94	1755.40
640.09	1949.67
640.24	1598.59
640.39	1116.44
640.54	798.12
640.68	620.24
640.83	428.32
640.98	245.76
641.13	241.08
641.27	292.57
641.42	259.80
641.57	224.69
641.72	292.57
641.86	217.67
642.01	252.78
642.16	276.18
642.31	250.44
642.45	348.74
642.60	250.44
642.75	266.82
642.90	271.50
643.04	222.35
643.19	292.57
643.34	252.78
643.48	217.67
643.63	241.08
643.78	243.42
643.93	273.84
644.07	278.52
644.22	250.44
644.37	163.84
644.51	266.82
644.66	259.80
644.81	224.69
644.95	304.27
645.10	231.71
645.25	278.52
645.39	227.03
645.54	280.86
645.69	311.29
645.83	257.46
645.98	166.18
646.13	175.54
646.27	212.99
646.42	238.73
646.57	257.46
646.71	203.63
646.86	170.86
647.00	257.46
647.15	290.23
647.30	220.01
647.44	234.05
647.59	191.92
647.74	238.73
647.88	243.42
648.03	191.92
648.17	222.35
648.32	269.16
648.47	292.57
648.61	203.63
648.76	220.01
648.90	245.76
649.05	210.65
649.20	264.48
649.34	241.08
649.49	245.76
649.63	234.05
649.78	229.37
649.92	325.33
650.07	393.21
650.21	709.18
650.36	1020.47
650.51	1041.54
650.65	997.07
650.80	868.34
650.94	580.45
651.09	472.79
651.23	231.71
651.38	264.48
651.52	234.05
651.67	208.31
651.81	245.76
651.96	259.80
652.10	205.97
652.25	224.69
652.39	250.44
652.54	262.14
652.68	273.84
652.83	404.91
652.97	517.26
653.12	545.34
653.26	496.19
653.41	411.93
653.55	379.17
653.70	297.25
653.84	290.23
653.99	290.23
654.13	273.84
654.27	177.88
654.42	229.37
654.56	273.84
654.71	304.27
654.85	280.86
655.00	236.39
655.14	170.86
655.29	170.86
655.43	278.52
655.57	220.01
655.72	175.54
655.86	208.31
656.01	194.26
656.15	203.63
656.30	252.78
656.44	177.88
656.58	278.52
656.73	234.05
656.87	224.69
657.01	154.48
657.16	278.52
657.30	280.86
657.45	262.14
657.59	220.01
657.73	273.84
657.88	161.50
658.02	252.78
658.16	201.29
658.31	145.11
658.45	166.18
658.60	191.92
658.74	231.71
658.88	131.07
659.03	271.50
659.17	241.08
659.31	248.10
659.46	360.44
659.60	596.84
659.74	690.46
659.89	594.50
660.03	587.47
660.17	444.70
660.32	374.49
660.46	304.27
660.60	278.52
660.74	278.52
660.89	304.27
661.03	208.31
661.17	156.82
661.32	229.37
661.46	248.10
661.60	229.37
661.74	252.78
661.89	283.20
662.03	313.63
662.17	203.63
662.31	217.67
662.46	208.31
662.60	243.42
662.74	189.58
662.88	301.93
663.03	196.60
663.17	187.24
663.31	203.63
663.45	184.90
663.60	215.33
663.74	203.63
663.88	173.20
664.02	266.82
664.17	266.82
664.31	210.65
664.45	234.05
664.59	234.05
664.73	184.90
664.88	205.97
665.02	231.71
665.16	147.45
665.30	229.37
665.44	194.26
665.59	187.24
665.73	241.08
665.87	273.84
666.01	276.18
666.15	262.14
666.29	149.79
666.44	241.08
666.58	339.38
666.72	250.44
666.86	220.01
667.00	236.39
667.14	156.82
667.28	365.12
667.43	557.05
667.57	880.04
667.71	1043.88
667.85	926.85
667.99	645.99
668.13	482.15
668.27	421.30
668.41	367.46
668.56	285.55
668.70	278.52
668.84	149.79
668.98	161.50
669.12	220.01
669.26	215.33
669.40	313.63
669.54	220.01
669.68	243.42
669.82	205.97
669.96	208.31
670.10	175.54
670.25	264.48
670.39	231.71
670.53	222.35
670.67	189.58
670.81	215.33
670.95	201.29
671.09	313.63
671.23	348.74
671.37	561.73
671.51	664.71
671.65	723.23
671.79	578.11
671.93	517.26
672.07	517.26
672.21	327.68
672.35	346.40
672.49	180.22
672.63	201.29
672.77	238.73
672.91	201.29
673.05	184.90
673.19	210.65
673.33	138.09
673.47	266.82
673.61	236.39
673.75	201.29
673.89	241.08
674.03	238.73
674.17	273.84
674.31	175.54
674.45	205.97
674.59	210.65
674.73	180.22
674.87	243.42
675.01	269.16
675.15	231.71
675.29	231.71
675.43	159.16
675.56	278.52
675.70	285.55
675.84	236.39
675.98	196.60
676.12	170.86
676.26	184.90
676.40	191.92
676.54	241.08
676.68	180.22
676.82	238.73
676.96	187.24
677.10	285.55
677.23	203.63
677.37	163.84
677.51	142.77
677.65	280.86
677.79	173.20
677.93	203.63
678.07	231.71
678.21	149.79
678.34	163.84
678.48	170.86
678.62	234.05
678.76	203.63
678.90	208.31
679.04	147.45
679.18	220.01
679.31	163.84
679.45	149.79
679.59	198.95
679.73	170.86
679.87	180.22
680.00	215.33
680.14	163.84
680.28	210.65
680.42	191.92
680.56	212.99
680.70	147.45
680.83	198.95
680.97	177.88
681.11	266.82
681.25	220.01
681.39	257.46
681.52	290.23
681.66	175.54
681.80	184.90
681.94	234.05
682.07	196.60
682.21	159.16
682.35	152.13
682.49	156.82
682.62	194.26
682.76	154.48
682.90	208.31
683.04	182.56
683.17	238.73
683.31	168.52
683.45	266.82
683.59	184.90
683.72	173.20
683.86	196.60
684.00	142.77
684.13	220.01
684.27	173.20
684.41	177.88
684.55	201.29
684.68	161.50
684.82	154.48
684.96	220.01
685.09	147.45
685.23	133.41
685.37	189.58
685.50	255.12
685.64	182.56
685.78	184.90
685.91	210.65
686.05	170.86
686.19	245.76
686.32	149.79
686.46	215.33
686.60	180.22
686.73	250.44
686.87	212.99
687.01	177.88
687.14	138.09
687.28	161.50
687.42	154.48
687.55	229.37
687.69	194.26
687.82	147.45
687.96	177.88
688.10	203.63
688.23	140.43
688.37	168.52
688.50	180.22
688.64	154.48
688.78	191.92
688.91	175.54
689.05	135.75
689.18	138.09
689.32	161.50
689.46	184.90
689.59	191.92
689.73	191.92
689.86	124.05
690.00	180.22
690.13	231.71
690.27	248.10
690.41	217.67
690.54	177.88
690.68	145.11
690.81	187.24
690.95	203.63
691.08	182.56
691.22	187.24
691.35	121.71
691.49	156.82
691.62	147.45
691.76	124.05
691.89	79.58
692.03	110.01
692.16	95.96
692.30	147.45
692.43	299.59
692.57	327.68
692.70	472.79
692.84	552.37
692.97	535.98
693.11	423.64
693.24	306.61
693.38	285.55
693.51	215.33
693.65	250.44
693.78	180.22
693.92	107.66
694.05	145.11
694.19	114.69
694.32	220.01
694.45	161.50
694.59	208.31
694.72	117.03
694.86	187.24
694.99	243.42
695.13	170.86
695.26	252.78
695.39	142.77
695.53	257.46
695.66	201.29
695.80	177.88
695.93	124.05
696.07	175.54
696.20	191.92
696.33	184.90
696.47	243.42
696.60	168.52
696.73	182.56
696.87	210.65
697.00	138.09
697.14	222.35
697.27	175.54
697.40	203.63
697.54	189.58
697.67	152.13
697.80	133.41
697.94	145.11
698.07	184.90
698.21	112.35
698.34	126.39
698.47	145.11
698.61	147.45
698.74	156.82
698.87	163.84
699.01	184.90
699.14	189.58
699.27	88.94
699.40	320.65
699.54	191.92
699.67	147.45
699.80	142.77
699.94	147.45
700.07	191.92
700.20	142.77
700.34	121.71
700.47	198.95
700.60	131.07
700.73	154.48
700.87	189.58
701.00	156.82
701.13	93.62
701.26	168.52
701.40	170.86
701.53	208.31
701.66	177.88
701.79	133.41
701.93	124.05
702.06	159.16
702.19	142.77
702.32	212.99
702.46	180.22
702.59	156.82
702.72	177.88
702.85	383.85
702.99	575.77
703.12	774.72
703.25	884.72
703.38	767.70
703.51	657.69
703.65	510.24
703.78	393.21
703.91	348.74
704.04	264.48
704.17	278.52
704.31	152.13
704.44	117.03
704.57	191.92
704.70	180.22
704.83	156.82
704.96	205.97
705.10	88.94
705.23	102.98
>>>>>End Processed Spectral Data<<<<<
