SpectraSuite Data File
++++++++++++++++++++++++++++++++++++
Date: Fri Oct 04 11:33:49 GMT-05:00 2013
User: price-jones
Dark Spectrum Present: No
Reference Spectrum Present: No
Number of Sampled Component Spectra: 1
Spectrometers: USB2+H05261
Integration Time (usec): 100000 (USB2+H05261)
Spectra Averaged: 1 (USB2+H05261)
Boxcar Smoothing: 0 (USB2+H05261)
Correct for Electrical Dark: No (USB2+H05261)
Strobe/Lamp Enabled: No (USB2+H05261)
Correct for Detector Non-linearity: No (USB2+H05261)
Correct for Stray Light: No (USB2+H05261)
Number of Pixels in Processed Spectrum: 2048
>>>>>Begin Processed Spectral Data<<<<<
365.73	88.94
365.92	88.94
366.12	88.94
366.32	0.00
366.52	0.00
366.72	0.00
366.91	0.00
367.11	0.00
367.31	0.00
367.51	0.00
367.70	0.00
367.90	0.00
368.10	0.00
368.30	0.00
368.49	0.00
368.69	21.06
368.89	0.00
369.09	25.75
369.28	9.36
369.48	9.36
369.68	0.00
369.87	35.11
370.07	0.00
370.27	105.32
370.47	70.22
370.66	88.94
370.86	84.26
371.06	110.01
371.25	168.52
371.45	91.28
371.65	112.35
371.84	102.98
372.04	119.37
372.24	124.05
372.44	70.22
372.63	126.39
372.83	187.24
373.03	124.05
373.22	126.39
373.42	86.60
373.62	105.32
373.81	147.45
374.01	184.90
374.21	156.82
374.40	124.05
374.60	203.63
374.79	128.73
374.99	194.26
375.19	191.92
375.38	159.16
375.58	159.16
375.78	180.22
375.97	203.63
376.17	170.86
376.37	135.75
376.56	180.22
376.76	135.75
376.95	131.07
377.15	205.97
377.35	161.50
377.54	163.84
377.74	152.13
377.93	152.13
378.13	124.05
378.33	184.90
378.52	201.29
378.72	159.16
378.91	196.60
379.11	56.17
379.31	145.11
379.50	140.43
379.70	133.41
379.89	124.05
380.09	135.75
380.28	121.71
380.48	117.03
380.68	156.82
380.87	161.50
381.07	220.01
381.26	131.07
381.46	184.90
381.65	142.77
381.85	177.88
382.04	189.58
382.24	177.88
382.43	166.18
382.63	126.39
382.83	44.47
383.02	128.73
383.22	189.58
383.41	170.86
383.61	112.35
383.80	203.63
384.00	149.79
384.19	163.84
384.39	131.07
384.58	84.26
384.78	175.54
384.97	133.41
385.17	124.05
385.36	182.56
385.56	187.24
385.75	114.69
385.95	182.56
386.14	222.35
386.34	117.03
386.53	184.90
386.72	182.56
386.92	159.16
387.11	166.18
387.31	191.92
387.50	102.98
387.70	114.69
387.89	110.01
388.09	159.16
388.28	88.94
388.48	114.69
388.67	131.07
388.86	135.75
389.06	205.97
389.25	173.20
389.45	142.77
389.64	93.62
389.84	126.39
390.03	161.50
390.22	74.90
390.42	147.45
390.61	175.54
390.81	135.75
391.00	133.41
391.19	205.97
391.39	110.01
391.58	131.07
391.78	180.22
391.97	133.41
392.16	177.88
392.36	248.10
392.55	245.76
392.75	156.82
392.94	142.77
393.13	168.52
393.33	60.85
393.52	81.92
393.71	152.13
393.91	131.07
394.10	135.75
394.29	170.86
394.49	154.48
394.68	210.65
394.88	140.43
395.07	177.88
395.26	84.26
395.46	105.32
395.65	114.69
395.84	133.41
396.04	231.71
396.23	117.03
396.42	149.79
396.62	56.17
396.81	205.97
397.00	189.58
397.19	124.05
397.39	138.09
397.58	208.31
397.77	149.79
397.97	154.48
398.16	142.77
398.35	187.24
398.55	177.88
398.74	133.41
398.93	117.03
399.12	102.98
399.32	177.88
399.51	131.07
399.70	180.22
399.90	124.05
400.09	135.75
400.28	166.18
400.47	163.84
400.67	191.92
400.86	131.07
401.05	128.73
401.24	168.52
401.44	149.79
401.63	161.50
401.82	217.67
402.01	196.60
402.21	98.30
402.40	110.01
402.59	107.66
402.78	135.75
402.97	124.05
403.17	170.86
403.36	121.71
403.55	177.88
403.74	102.98
403.93	191.92
404.13	238.73
404.32	105.32
404.51	201.29
404.70	187.24
404.89	140.43
405.09	205.97
405.28	194.26
405.47	147.45
405.66	117.03
405.85	152.13
406.05	168.52
406.24	168.52
406.43	166.18
406.62	145.11
406.81	234.05
407.00	154.48
407.20	131.07
407.39	147.45
407.58	161.50
407.77	138.09
407.96	133.41
408.15	194.26
408.34	154.48
408.54	168.52
408.73	119.37
408.92	119.37
409.11	112.35
409.30	154.48
409.49	154.48
409.68	161.50
409.87	131.07
410.07	147.45
410.26	168.52
410.45	156.82
410.64	117.03
410.83	166.18
411.02	140.43
411.21	194.26
411.40	191.92
411.59	177.88
411.78	147.45
411.98	105.32
412.17	138.09
412.36	154.48
412.55	205.97
412.74	217.67
412.93	278.52
413.12	173.20
413.31	198.95
413.50	177.88
413.69	163.84
413.88	198.95
414.07	159.16
414.26	156.82
414.45	163.84
414.64	175.54
414.83	210.65
415.02	140.43
415.22	231.71
415.41	203.63
415.60	119.37
415.79	241.08
415.98	252.78
416.17	184.90
416.36	189.58
416.55	154.48
416.74	98.30
416.93	140.43
417.12	196.60
417.31	147.45
417.50	142.77
417.69	168.52
417.88	149.79
418.07	203.63
418.26	182.56
418.45	175.54
418.64	264.48
418.83	273.84
419.02	182.56
419.21	184.90
419.39	187.24
419.58	170.86
419.77	110.01
419.96	241.08
420.15	187.24
420.34	189.58
420.53	142.77
420.72	128.73
420.91	187.24
421.10	201.29
421.29	131.07
421.48	161.50
421.67	159.16
421.86	140.43
422.05	196.60
422.24	163.84
422.43	231.71
422.61	156.82
422.80	138.09
422.99	166.18
423.18	177.88
423.37	264.48
423.56	191.92
423.75	266.82
423.94	177.88
424.13	180.22
424.32	175.54
424.50	114.69
424.69	168.52
424.88	187.24
425.07	224.69
425.26	168.52
425.45	126.39
425.64	175.54
425.83	236.39
426.01	269.16
426.20	257.46
426.39	215.33
426.58	152.13
426.77	182.56
426.96	229.37
427.15	163.84
427.33	147.45
427.52	184.90
427.71	166.18
427.90	273.84
428.09	215.33
428.28	182.56
428.46	142.77
428.65	234.05
428.84	163.84
429.03	102.98
429.22	212.99
429.40	224.69
429.59	149.79
429.78	191.92
429.97	159.16
430.16	140.43
430.34	191.92
430.53	163.84
430.72	173.20
430.91	145.11
431.10	93.62
431.28	182.56
431.47	187.24
431.66	182.56
431.85	170.86
432.03	210.65
432.22	257.46
432.41	208.31
432.60	149.79
432.79	257.46
432.97	224.69
433.16	250.44
433.35	187.24
433.54	210.65
433.72	222.35
433.91	224.69
434.10	203.63
434.28	191.92
434.47	203.63
434.66	187.24
434.85	149.79
435.03	184.90
435.22	252.78
435.41	320.65
435.59	290.23
435.78	313.63
435.97	177.88
436.16	248.10
436.34	194.26
436.53	168.52
436.72	194.26
436.90	201.29
437.09	191.92
437.28	189.58
437.46	220.01
437.65	119.37
437.84	163.84
438.02	236.39
438.21	163.84
438.40	180.22
438.58	163.84
438.77	194.26
438.96	210.65
439.14	201.29
439.33	149.79
439.52	173.20
439.70	245.76
439.89	224.69
440.08	184.90
440.26	234.05
440.45	248.10
440.63	220.01
440.82	154.48
441.01	205.97
441.19	166.18
441.38	133.41
441.57	112.35
441.75	187.24
441.94	220.01
442.12	147.45
442.31	93.62
442.50	168.52
442.68	105.32
442.87	175.54
443.05	152.13
443.24	180.22
443.43	222.35
443.61	121.71
443.80	124.05
443.98	170.86
444.17	126.39
444.35	203.63
444.54	203.63
444.73	198.95
444.91	100.64
445.10	152.13
445.28	175.54
445.47	156.82
445.65	248.10
445.84	210.65
446.02	212.99
446.21	72.56
446.39	147.45
446.58	173.20
446.77	191.92
446.95	128.73
447.14	252.78
447.32	154.48
447.51	182.56
447.69	124.05
447.88	222.35
448.06	184.90
448.25	234.05
448.43	196.60
448.62	229.37
448.80	119.37
448.99	217.67
449.17	175.54
449.36	198.95
449.54	266.82
449.73	124.05
449.91	180.22
450.10	159.16
450.28	271.50
450.46	215.33
450.65	222.35
450.83	198.95
451.02	198.95
451.20	203.63
451.39	159.16
451.57	180.22
451.76	248.10
451.94	163.84
452.13	145.11
452.31	231.71
452.49	287.89
452.68	131.07
452.86	191.92
453.05	283.20
453.23	212.99
453.42	177.88
453.60	224.69
453.78	278.52
453.97	231.71
454.15	196.60
454.34	168.52
454.52	147.45
454.70	189.58
454.89	184.90
455.07	140.43
455.26	114.69
455.44	131.07
455.62	175.54
455.81	166.18
455.99	198.95
456.17	248.10
456.36	102.98
456.54	187.24
456.73	229.37
456.91	194.26
457.09	196.60
457.28	201.29
457.46	203.63
457.64	224.69
457.83	177.88
458.01	243.42
458.19	168.52
458.38	259.80
458.56	222.35
458.74	201.29
458.93	74.90
459.11	238.73
459.29	224.69
459.48	222.35
459.66	196.60
459.84	159.16
460.03	297.25
460.21	243.42
460.39	175.54
460.57	173.20
460.76	201.29
460.94	173.20
461.12	138.09
461.31	184.90
461.49	187.24
461.67	212.99
461.85	203.63
462.04	180.22
462.22	653.01
462.40	152.13
462.59	198.95
462.77	191.92
462.95	159.16
463.13	194.26
463.32	154.48
463.50	283.20
463.68	217.67
463.86	224.69
464.05	217.67
464.23	212.99
464.41	229.37
464.59	173.20
464.78	194.26
464.96	198.95
465.14	117.03
465.32	168.52
465.50	170.86
465.69	177.88
465.87	142.77
466.05	184.90
466.23	182.56
466.41	184.90
466.60	248.10
466.78	229.37
466.96	203.63
467.14	175.54
467.32	217.67
467.51	215.33
467.69	161.50
467.87	203.63
468.05	191.92
468.23	245.76
468.41	222.35
468.60	196.60
468.78	234.05
468.96	273.84
469.14	234.05
469.32	117.03
469.50	184.90
469.69	205.97
469.87	187.24
470.05	182.56
470.23	175.54
470.41	191.92
470.59	182.56
470.77	154.48
470.95	173.20
471.14	224.69
471.32	238.73
471.50	264.48
471.68	215.33
471.86	187.24
472.04	156.82
472.22	283.20
472.40	208.31
472.58	297.25
472.77	182.56
472.95	252.78
473.13	273.84
473.31	262.14
473.49	212.99
473.67	184.90
473.85	191.92
474.03	194.26
474.21	168.52
474.39	224.69
474.57	285.55
474.75	234.05
474.93	168.52
475.12	257.46
475.30	196.60
475.48	161.50
475.66	245.76
475.84	135.75
476.02	255.12
476.20	208.31
476.38	227.03
476.56	283.20
476.74	208.31
476.92	212.99
477.10	224.69
477.28	243.42
477.46	168.52
477.64	238.73
477.82	203.63
478.00	166.18
478.18	217.67
478.36	173.20
478.54	196.60
478.72	142.77
478.90	231.71
479.08	236.39
479.26	182.56
479.44	217.67
479.62	182.56
479.80	182.56
479.98	168.52
480.16	159.16
480.34	212.99
480.52	201.29
480.70	285.55
480.88	121.71
481.06	166.18
481.24	133.41
481.41	222.35
481.59	205.97
481.77	217.67
481.95	224.69
482.13	212.99
482.31	227.03
482.49	212.99
482.67	259.80
482.85	227.03
483.03	273.84
483.21	189.58
483.39	175.54
483.57	299.59
483.74	311.29
483.92	262.14
484.10	215.33
484.28	243.42
484.46	250.44
484.64	278.52
484.82	243.42
485.00	194.26
485.18	238.73
485.35	201.29
485.53	231.71
485.71	252.78
485.89	217.67
486.07	327.68
486.25	262.14
486.43	238.73
486.61	301.93
486.78	220.01
486.96	245.76
487.14	243.42
487.32	184.90
487.50	278.52
487.68	222.35
487.85	255.12
488.03	250.44
488.21	222.35
488.39	243.42
488.57	257.46
488.75	294.91
488.92	475.13
489.10	222.35
489.28	243.42
489.46	301.93
489.64	124.05
489.81	245.76
489.99	238.73
490.17	191.92
490.35	365.12
490.53	222.35
490.70	175.54
490.88	236.39
491.06	210.65
491.24	222.35
491.41	273.84
491.59	327.68
491.77	236.39
491.95	243.42
492.13	229.37
492.30	257.46
492.48	250.44
492.66	191.92
492.84	224.69
493.01	299.59
493.19	301.93
493.37	320.65
493.54	201.29
493.72	266.82
493.90	280.86
494.08	238.73
494.25	322.99
494.43	212.99
494.61	234.05
494.79	161.50
494.96	238.73
495.14	271.50
495.32	245.76
495.49	217.67
495.67	231.71
495.85	262.14
496.02	231.71
496.20	273.84
496.38	276.18
496.55	220.01
496.73	294.91
496.91	238.73
497.09	231.71
497.26	292.57
497.44	205.97
497.62	250.44
497.79	266.82
497.97	140.43
498.14	297.25
498.32	315.97
498.50	287.89
498.67	234.05
498.85	273.84
499.03	259.80
499.20	292.57
499.38	262.14
499.56	266.82
499.73	243.42
499.91	250.44
500.08	210.65
500.26	189.58
500.44	205.97
500.61	315.97
500.79	259.80
500.97	189.58
501.14	294.91
501.32	234.05
501.49	313.63
501.67	287.89
501.84	198.95
502.02	227.03
502.20	266.82
502.37	224.69
502.55	273.84
502.72	208.31
502.90	287.89
503.07	203.63
503.25	306.61
503.43	318.31
503.60	184.90
503.78	250.44
503.95	234.05
504.13	236.39
504.30	210.65
504.48	248.10
504.65	330.02
504.83	278.52
505.01	257.46
505.18	273.84
505.36	301.93
505.53	224.69
505.71	229.37
505.88	276.18
506.06	269.16
506.23	173.20
506.41	210.65
506.58	266.82
506.76	252.78
506.93	212.99
507.11	313.63
507.28	264.48
507.46	159.16
507.63	262.14
507.81	227.03
507.98	276.18
508.16	299.59
508.33	238.73
508.50	215.33
508.68	339.38
508.85	276.18
509.03	234.05
509.20	184.90
509.38	222.35
509.55	238.73
509.73	224.69
509.90	205.97
510.08	255.12
510.25	287.89
510.42	250.44
510.60	205.97
510.77	285.55
510.95	245.76
511.12	280.86
511.30	353.42
511.47	269.16
511.64	330.02
511.82	264.48
511.99	243.42
512.17	217.67
512.34	198.95
512.51	283.20
512.69	287.89
512.86	224.69
513.04	273.84
513.21	252.78
513.38	264.48
513.56	222.35
513.73	220.01
513.90	231.71
514.08	315.97
514.25	304.27
514.43	273.84
514.60	259.80
514.77	283.20
514.95	222.35
515.12	294.91
515.29	210.65
515.47	273.84
515.64	255.12
515.81	304.27
515.99	280.86
516.16	245.76
516.33	280.86
516.51	182.56
516.68	337.04
516.85	220.01
517.03	271.50
517.20	276.18
517.37	241.08
517.54	252.78
517.72	163.84
517.89	149.79
518.06	262.14
518.24	330.02
518.41	311.29
518.58	299.59
518.75	241.08
518.93	308.95
519.10	341.72
519.27	252.78
519.45	220.01
519.62	248.10
519.79	229.37
519.96	208.31
520.14	227.03
520.31	318.31
520.48	243.42
520.65	262.14
520.83	355.76
521.00	294.91
521.17	294.91
521.34	262.14
521.52	234.05
521.69	269.16
521.86	332.36
522.03	262.14
522.20	308.95
522.38	257.46
522.55	222.35
522.72	156.82
522.89	203.63
523.07	332.36
523.24	182.56
523.41	201.29
523.58	273.84
523.75	299.59
523.92	266.82
524.10	304.27
524.27	259.80
524.44	287.89
524.61	337.04
524.78	198.95
524.96	337.04
525.13	236.39
525.30	311.29
525.47	248.10
525.64	231.71
525.81	290.23
525.98	255.12
526.16	273.84
526.33	271.50
526.50	257.46
526.67	170.86
526.84	217.67
527.01	259.80
527.18	243.42
527.36	241.08
527.53	271.50
527.70	332.36
527.87	227.03
528.04	339.38
528.21	257.46
528.38	217.67
528.55	191.92
528.72	337.04
528.89	292.57
529.07	250.44
529.24	287.89
529.41	269.16
529.58	262.14
529.75	255.12
529.92	278.52
530.09	273.84
530.26	318.31
530.43	306.61
530.60	215.33
530.77	196.60
530.94	238.73
531.11	236.39
531.28	287.89
531.46	271.50
531.63	330.02
531.80	217.67
531.97	334.70
532.14	290.23
532.31	252.78
532.48	229.37
532.65	369.80
532.82	348.74
532.99	257.46
533.16	276.18
533.33	301.93
533.50	395.55
533.67	330.02
533.84	304.27
534.01	344.06
534.18	355.76
534.35	327.68
534.52	285.55
534.69	322.99
534.86	287.89
535.03	215.33
535.20	264.48
535.37	283.20
535.54	325.33
535.71	259.80
535.88	313.63
536.05	229.37
536.22	266.82
536.38	285.55
536.55	257.46
536.72	301.93
536.89	243.42
537.06	313.63
537.23	224.69
537.40	308.95
537.57	259.80
537.74	299.59
537.91	379.17
538.08	276.18
538.25	318.31
538.42	351.08
538.59	255.12
538.75	283.20
538.92	245.76
539.09	362.78
539.26	369.80
539.43	477.47
539.60	791.10
539.77	1221.76
539.94	1036.86
540.11	739.61
540.28	615.56
540.44	489.17
540.61	313.63
540.78	397.89
540.95	353.42
541.12	414.27
541.29	447.04
541.46	505.56
541.62	451.72
541.79	428.32
541.96	414.27
542.13	496.19
542.30	493.85
542.47	418.96
542.63	543.00
542.80	402.57
542.97	550.03
543.14	461.09
543.31	383.85
543.48	390.87
543.64	376.83
543.81	437.68
543.98	456.40
544.15	304.27
544.32	386.19
544.48	372.15
544.65	393.21
544.82	337.04
544.99	421.30
545.16	463.43
545.32	489.17
545.49	643.65
545.66	723.23
545.83	814.51
546.00	657.69
546.16	596.84
546.33	498.53
546.50	407.25
546.67	416.62
546.83	327.68
547.00	379.17
547.17	402.57
547.34	355.76
547.50	369.80
547.67	308.95
547.84	315.97
548.00	355.76
548.17	294.91
548.34	320.65
548.51	393.21
548.67	435.34
548.84	355.76
549.01	362.78
549.18	241.08
549.34	355.76
549.51	315.97
549.68	362.78
549.84	271.50
550.01	269.16
550.18	430.66
550.34	306.61
550.51	311.29
550.68	339.38
550.84	243.42
551.01	301.93
551.18	334.70
551.34	290.23
551.51	320.65
551.68	330.02
551.84	334.70
552.01	250.44
552.18	355.76
552.34	259.80
552.51	330.02
552.68	313.63
552.84	297.25
553.01	311.29
553.18	266.82
553.34	238.73
553.51	264.48
553.67	278.52
553.84	351.08
554.01	306.61
554.17	259.80
554.34	250.44
554.51	273.84
554.67	379.17
554.84	203.63
555.00	278.52
555.17	334.70
555.33	313.63
555.50	318.31
555.67	285.55
555.83	220.01
556.00	353.42
556.16	367.46
556.33	236.39
556.50	222.35
556.66	290.23
556.83	250.44
556.99	238.73
557.16	334.70
557.32	229.37
557.49	292.57
557.65	318.31
557.82	152.13
557.98	259.80
558.15	220.01
558.32	224.69
558.48	198.95
558.65	290.23
558.81	311.29
558.98	339.38
559.14	322.99
559.31	252.78
559.47	262.14
559.64	252.78
559.80	255.12
559.97	287.89
560.13	266.82
560.30	222.35
560.46	269.16
560.63	243.42
560.79	252.78
560.96	224.69
561.12	269.16
561.29	283.20
561.45	292.57
561.61	278.52
561.78	330.02
561.94	227.03
562.11	257.46
562.27	248.10
562.44	175.54
562.60	311.29
562.77	276.18
562.93	320.65
563.10	320.65
563.26	372.15
563.42	215.33
563.59	311.29
563.75	255.12
563.92	278.52
564.08	245.76
564.24	231.71
564.41	248.10
564.57	292.57
564.74	217.67
564.90	339.38
565.07	285.55
565.23	252.78
565.39	236.39
565.56	287.89
565.72	264.48
565.88	259.80
566.05	306.61
566.21	220.01
566.38	156.82
566.54	308.95
566.70	184.90
566.87	280.86
567.03	177.88
567.19	269.16
567.36	159.16
567.52	252.78
567.68	264.48
567.85	224.69
568.01	252.78
568.17	234.05
568.34	229.37
568.50	313.63
568.66	248.10
568.83	315.97
568.99	283.20
569.15	358.10
569.32	287.89
569.48	294.91
569.64	217.67
569.81	208.31
569.97	257.46
570.13	283.20
570.30	217.67
570.46	294.91
570.62	224.69
570.78	191.92
570.95	306.61
571.11	299.59
571.27	318.31
571.43	238.73
571.60	276.18
571.76	250.44
571.92	290.23
572.09	287.89
572.25	280.86
572.41	250.44
572.57	287.89
572.74	292.57
572.90	269.16
573.06	280.86
573.22	168.52
573.38	248.10
573.55	245.76
573.71	273.84
573.87	257.46
574.03	262.14
574.20	294.91
574.36	273.84
574.52	297.25
574.68	315.97
574.84	320.65
575.01	266.82
575.17	271.50
575.33	273.84
575.49	360.44
575.65	290.23
575.82	337.04
575.98	543.00
576.14	512.58
576.30	561.73
576.46	552.37
576.62	447.04
576.79	475.13
576.95	414.27
577.11	337.04
577.27	245.76
577.43	306.61
577.59	278.52
577.75	311.29
577.92	294.91
578.08	390.87
578.24	337.04
578.40	330.02
578.56	346.40
578.72	418.96
578.88	337.04
579.04	259.80
579.21	397.89
579.37	362.78
579.53	383.85
579.69	383.85
579.85	332.36
580.01	409.59
580.17	388.53
580.33	393.21
580.49	388.53
580.65	400.23
580.82	318.31
580.98	381.51
581.14	306.61
581.30	390.87
581.46	383.85
581.62	491.51
581.78	491.51
581.94	521.94
582.10	372.15
582.26	369.80
582.42	400.23
582.58	430.66
582.74	386.19
582.90	498.53
583.06	402.57
583.22	442.36
583.38	479.81
583.54	489.17
583.70	498.53
583.86	568.75
584.02	650.67
584.18	692.80
584.34	791.10
584.50	1996.48
584.66	13341.05
584.82	35519.97
584.98	51999.68
585.14	46358.99
585.30	29682.67
585.46	17792.75
585.62	10827.32
585.78	5254.50
585.94	2148.61
586.10	1121.12
586.26	725.57
586.42	741.95
586.58	575.77
586.74	503.22
586.90	552.37
587.06	594.50
587.22	526.62
587.38	437.68
587.54	748.97
587.70	2165.00
587.86	3646.55
588.02	3843.16
588.18	2899.92
588.34	1959.03
588.49	1310.70
588.65	814.51
588.81	510.24
588.97	437.68
589.13	334.70
589.29	306.61
589.45	400.23
589.61	344.06
589.77	390.87
589.93	390.87
590.08	479.81
590.24	351.08
590.40	400.23
590.56	397.89
590.72	390.87
590.88	304.27
591.04	358.10
591.20	365.12
591.35	430.66
591.51	332.36
591.67	341.72
591.83	205.97
591.99	339.38
592.15	337.04
592.31	280.86
592.46	346.40
592.62	334.70
592.78	313.63
592.94	311.29
593.10	294.91
593.26	374.49
593.41	358.10
593.57	365.12
593.73	479.81
593.89	1743.70
594.05	4369.78
594.20	6459.88
594.36	6274.98
594.52	4241.05
594.68	2640.12
594.84	1804.55
594.99	1121.12
595.15	594.50
595.31	355.76
595.47	374.49
595.62	320.65
595.78	299.59
595.94	365.12
596.10	362.78
596.25	311.29
596.41	395.55
596.57	351.08
596.73	294.91
596.88	470.45
597.04	924.51
597.20	1472.20
597.36	1720.29
597.51	1411.34
597.67	964.30
597.83	765.36
597.99	554.71
598.14	477.47
598.30	388.53
598.46	332.36
598.61	351.08
598.77	365.12
598.93	334.70
599.09	353.42
599.24	304.27
599.40	262.14
599.56	257.46
599.71	184.90
599.87	330.02
600.03	269.16
600.18	355.76
600.34	334.70
600.50	308.95
600.65	311.29
600.81	287.89
600.97	224.69
601.12	285.55
601.28	337.04
601.44	297.25
601.59	280.86
601.75	271.50
601.91	252.78
602.06	248.10
602.22	306.61
602.37	552.37
602.53	1071.97
602.69	1776.47
602.84	1837.32
603.00	1409.00
603.16	1001.75
603.31	837.91
603.47	528.96
603.62	318.31
603.78	351.08
603.94	327.68
604.09	285.55
604.25	339.38
604.40	301.93
604.56	224.69
604.71	308.95
604.87	255.12
605.03	245.76
605.18	212.99
605.34	315.97
605.49	320.65
605.65	334.70
605.80	259.80
605.96	276.18
606.12	287.89
606.27	362.78
606.43	292.57
606.58	313.63
606.74	641.31
606.89	2050.31
607.05	4259.78
607.20	5490.90
607.36	4685.75
607.51	3199.51
607.67	2197.76
607.82	1614.97
607.98	959.62
608.13	566.41
608.29	425.98
608.44	388.53
608.60	348.74
608.75	425.98
608.91	840.25
609.06	3286.11
609.22	7227.57
609.37	9280.22
609.53	8238.69
609.68	5659.42
609.84	3763.58
609.99	2602.68
610.15	1561.14
610.30	915.15
610.46	770.04
610.61	734.93
610.76	784.08
610.92	891.74
611.07	851.96
611.23	917.49
611.38	842.59
611.54	739.61
611.69	744.29
611.84	669.39
612.00	615.56
612.15	596.84
612.31	484.49
612.46	580.45
612.62	718.54
612.77	730.25
612.92	610.88
613.08	617.90
613.23	566.41
613.39	493.85
613.54	718.54
613.69	2946.73
613.85	8332.31
614.00	13954.27
614.15	15257.95
614.31	11098.82
614.46	7400.77
614.62	4835.55
614.77	3021.63
614.92	1472.20
615.08	807.48
615.23	627.26
615.38	498.53
615.54	482.15
615.69	662.37
615.84	1811.57
616.00	3183.13
616.15	3969.55
616.30	3255.69
616.46	2413.09
616.61	1612.63
616.76	1123.46
616.92	730.25
617.07	465.77
617.22	294.91
617.37	334.70
617.53	327.68
617.68	304.27
617.83	395.55
617.99	351.08
618.14	360.44
618.29	322.99
618.45	330.02
618.60	250.44
618.75	208.31
618.90	252.78
619.06	320.65
619.21	315.97
619.36	308.95
619.51	322.99
619.67	285.55
619.82	243.42
619.97	264.48
620.12	351.08
620.28	259.80
620.43	294.91
620.58	386.19
620.73	276.18
620.89	271.50
621.04	486.83
621.19	1064.94
621.34	1879.45
621.49	2483.31
621.65	2237.55
621.80	1633.69
621.95	1041.54
622.10	861.32
622.25	468.11
622.41	397.89
622.56	205.97
622.71	205.97
622.86	318.31
623.01	229.37
623.16	262.14
623.32	245.76
623.47	273.84
623.62	243.42
623.77	276.18
623.92	278.52
624.07	346.40
624.23	311.29
624.38	325.33
624.53	297.25
624.68	276.18
624.83	346.40
624.98	250.44
625.13	271.50
625.29	264.48
625.44	248.10
625.59	297.25
625.74	271.50
625.89	491.51
626.04	1589.22
626.19	4376.80
626.34	7096.50
626.49	7896.97
626.65	5989.43
626.80	4140.41
626.95	2764.17
627.10	1877.11
627.25	1004.09
627.40	512.58
627.55	425.98
627.70	308.95
627.85	301.93
628.00	297.25
628.15	224.69
628.30	299.59
628.45	372.15
628.60	276.18
628.76	327.68
628.91	315.97
629.06	285.55
629.21	285.55
629.36	351.08
629.51	262.14
629.66	348.74
629.81	374.49
629.96	994.73
630.11	1743.70
630.26	2188.40
630.41	1947.33
630.56	1481.56
630.71	1041.54
630.86	842.59
631.01	601.52
631.16	456.40
631.31	344.06
631.46	367.46
631.61	297.25
631.76	351.08
631.91	320.65
632.06	325.33
632.21	264.48
632.36	358.10
632.51	297.25
632.66	344.06
632.81	720.88
632.96	2396.71
633.10	4234.03
633.25	5420.68
633.40	4620.22
633.55	3243.98
633.70	2134.57
633.85	1556.46
634.00	910.47
634.15	435.34
634.30	362.78
634.45	301.93
634.60	222.35
634.75	339.38
634.90	257.46
635.05	280.86
635.19	259.80
635.34	229.37
635.49	266.82
635.64	217.67
635.79	227.03
635.94	299.59
636.09	308.95
636.24	259.80
636.39	283.20
636.53	306.61
636.68	278.52
636.83	355.76
636.98	351.08
637.13	313.63
637.28	348.74
637.43	339.38
637.57	573.43
637.72	1959.03
637.87	5458.13
638.02	9043.83
638.17	10097.07
638.32	7363.33
638.46	5203.01
638.61	3522.51
638.76	2211.81
638.91	1158.57
639.06	638.97
639.20	496.19
639.35	482.15
639.50	629.60
639.65	2878.86
639.80	8320.60
639.94	13607.87
640.09	15274.34
640.24	11234.57
640.39	7726.11
640.54	5118.75
640.68	3194.83
640.83	1640.72
640.98	807.48
641.13	575.77
641.27	411.93
641.42	299.59
641.57	325.33
641.72	315.97
641.86	351.08
642.01	229.37
642.16	255.12
642.31	241.08
642.45	292.57
642.60	287.89
642.75	273.84
642.90	220.01
643.04	187.24
643.19	133.41
643.34	208.31
643.48	248.10
643.63	180.22
643.78	269.16
643.93	322.99
644.07	210.65
644.22	217.67
644.37	201.29
644.51	278.52
644.66	294.91
644.81	138.09
644.95	294.91
645.10	227.03
645.25	255.12
645.39	262.14
645.54	194.26
645.69	215.33
645.83	304.27
645.98	337.04
646.13	215.33
646.27	276.18
646.42	203.63
646.57	212.99
646.71	187.24
646.86	245.76
647.00	264.48
647.15	222.35
647.30	126.39
647.44	276.18
647.59	196.60
647.74	238.73
647.88	220.01
648.03	238.73
648.17	229.37
648.32	222.35
648.47	259.80
648.61	215.33
648.76	229.37
648.90	236.39
649.05	259.80
649.20	215.33
649.34	234.05
649.49	201.29
649.63	271.50
649.78	313.63
649.92	344.06
650.07	1214.74
650.21	3833.80
650.36	6607.33
650.51	8093.57
650.65	6621.38
650.80	4585.11
650.94	3208.87
651.09	1989.46
651.23	1153.88
651.38	617.90
651.52	444.70
651.67	255.12
651.81	234.05
651.96	276.18
652.10	252.78
652.25	285.55
652.39	273.84
652.54	273.84
652.68	449.38
652.83	1296.66
652.97	2326.49
653.12	2899.92
653.26	2705.66
653.41	1996.48
653.55	1427.73
653.70	992.39
653.84	610.88
653.99	440.02
654.13	301.93
654.27	320.65
654.42	194.26
654.56	252.78
654.71	187.24
654.85	166.18
655.00	175.54
655.14	250.44
655.29	248.10
655.43	248.10
655.57	187.24
655.72	189.58
655.86	215.33
656.01	156.82
656.15	224.69
656.30	224.69
656.44	245.76
656.58	210.65
656.73	259.80
656.87	184.90
657.01	262.14
657.16	283.20
657.30	208.31
657.45	278.52
657.59	217.67
657.73	238.73
657.88	297.25
658.02	308.95
658.16	231.71
658.31	215.33
658.45	220.01
658.60	163.84
658.74	196.60
658.88	259.80
659.03	248.10
659.17	257.46
659.31	627.26
659.46	1633.69
659.60	3126.96
659.74	3950.82
659.89	3496.76
660.03	2818.00
660.17	1830.30
660.32	1191.33
660.46	798.12
660.60	482.15
660.74	390.87
660.89	250.44
661.03	217.67
661.17	175.54
661.32	227.03
661.46	231.71
661.60	245.76
661.74	227.03
661.89	280.86
662.03	294.91
662.17	243.42
662.31	215.33
662.46	217.67
662.60	238.73
662.74	161.50
662.88	222.35
663.03	227.03
663.17	175.54
663.31	227.03
663.45	229.37
663.60	145.11
663.74	245.76
663.88	264.48
664.02	212.99
664.17	154.48
664.31	194.26
664.45	177.88
664.59	229.37
664.73	194.26
664.88	222.35
665.02	257.46
665.16	208.31
665.30	187.24
665.44	198.95
665.59	229.37
665.73	257.46
665.87	271.50
666.01	238.73
666.15	145.11
666.29	229.37
666.44	198.95
666.58	264.48
666.72	252.78
666.86	227.03
667.00	294.91
667.14	313.63
667.28	1100.05
667.43	3199.51
667.57	5486.22
667.71	7075.44
667.85	6101.78
667.99	4461.06
668.13	2946.73
668.27	1757.74
668.41	1083.67
668.56	601.52
668.70	451.72
668.84	308.95
668.98	320.65
669.12	236.39
669.26	252.78
669.40	231.71
669.54	222.35
669.68	243.42
669.82	236.39
669.96	182.56
670.10	212.99
670.25	220.01
670.39	248.10
670.53	264.48
670.67	292.57
670.81	243.42
670.95	283.20
671.09	423.64
671.23	1273.25
671.37	2754.81
671.51	4018.70
671.65	4425.95
671.79	3557.61
671.93	2525.44
672.07	1586.88
672.21	943.24
672.35	517.26
672.49	351.08
672.63	229.37
672.77	294.91
672.91	238.73
673.05	245.76
673.19	177.88
673.33	238.73
673.47	245.76
673.61	135.75
673.75	175.54
673.89	229.37
674.03	133.41
674.17	201.29
674.31	248.10
674.45	227.03
674.59	210.65
674.73	229.37
674.87	229.37
675.01	255.12
675.15	287.89
675.29	294.91
675.43	236.39
675.56	276.18
675.70	210.65
675.84	201.29
675.98	271.50
676.12	133.41
676.26	215.33
676.40	161.50
676.54	243.42
676.68	245.76
676.82	227.03
676.96	170.86
677.10	245.76
677.23	189.58
677.37	119.37
677.51	189.58
677.65	334.70
677.79	180.22
677.93	217.67
678.07	180.22
678.21	238.73
678.34	166.18
678.48	114.69
678.62	166.18
678.76	173.20
678.90	210.65
679.04	159.16
679.18	210.65
679.31	189.58
679.45	184.90
679.59	166.18
679.73	201.29
679.87	86.60
680.00	229.37
680.14	189.58
680.28	212.99
680.42	212.99
680.56	191.92
680.70	287.89
680.83	173.20
680.97	159.16
681.11	201.29
681.25	177.88
681.39	98.30
681.52	194.26
681.66	255.12
681.80	138.09
681.94	133.41
682.07	182.56
682.21	128.73
682.35	156.82
682.49	217.67
682.62	187.24
682.76	142.77
682.90	191.92
683.04	189.58
683.17	238.73
683.31	187.24
683.45	184.90
683.59	161.50
683.72	217.67
683.86	131.07
684.00	198.95
684.13	231.71
684.27	166.18
684.41	142.77
684.55	147.45
684.68	170.86
684.82	166.18
684.96	135.75
685.09	156.82
685.23	205.97
685.37	212.99
685.50	231.71
685.64	248.10
685.78	201.29
685.91	175.54
686.05	187.24
686.19	224.69
686.32	140.43
686.46	222.35
686.60	135.75
686.73	280.86
686.87	220.01
687.01	203.63
687.14	220.01
687.28	161.50
687.42	182.56
687.55	191.92
687.69	208.31
687.82	112.35
687.96	236.39
688.10	163.84
688.23	168.52
688.37	173.20
688.50	217.67
688.64	231.71
688.78	201.29
688.91	215.33
689.05	168.52
689.18	173.20
689.32	152.13
689.46	168.52
689.59	175.54
689.73	184.90
689.86	191.92
690.00	138.09
690.13	142.77
690.27	175.54
690.41	187.24
690.54	231.71
690.68	222.35
690.81	166.18
690.95	241.08
691.08	210.65
691.22	273.84
691.35	135.75
691.49	91.28
691.62	145.11
691.76	163.84
691.89	203.63
692.03	210.65
692.16	191.92
692.30	227.03
692.43	409.59
692.57	1453.47
692.70	2436.50
692.84	3157.38
692.97	2935.03
693.11	2108.82
693.24	1586.88
693.38	1050.90
693.51	739.61
693.65	557.05
693.78	381.51
693.92	308.95
694.05	287.89
694.19	152.13
694.32	184.90
694.45	180.22
694.59	175.54
694.72	133.41
694.86	198.95
694.99	177.88
695.13	208.31
695.26	227.03
695.39	117.03
695.53	271.50
695.66	163.84
695.80	180.22
695.93	205.97
696.07	229.37
696.20	236.39
696.33	297.25
696.47	325.33
696.60	348.74
696.73	264.48
696.87	278.52
697.00	266.82
697.14	205.97
697.27	159.16
697.40	208.31
697.54	241.08
697.67	131.07
697.80	140.43
697.94	156.82
698.07	189.58
698.21	133.41
698.34	217.67
698.47	156.82
698.61	191.92
698.74	170.86
698.87	166.18
699.01	210.65
699.14	163.84
699.27	224.69
699.40	262.14
699.54	250.44
699.67	159.16
699.80	159.16
699.94	119.37
700.07	166.18
700.20	119.37
700.34	203.63
700.47	95.96
700.60	168.52
700.73	191.92
700.87	210.65
701.00	229.37
701.13	154.48
701.26	163.84
701.40	168.52
701.53	217.67
701.66	119.37
701.79	189.58
701.93	166.18
702.06	257.46
702.19	248.10
702.32	362.78
702.46	271.50
702.59	367.46
702.72	557.05
702.85	1664.12
702.99	3482.72
703.12	4964.28
703.25	5603.24
703.38	4994.70
703.51	3941.46
703.65	3138.66
703.78	2249.25
703.91	1549.43
704.04	1069.62
704.17	617.90
704.31	423.64
704.44	325.33
704.57	208.31
704.70	231.71
704.83	212.99
704.96	283.20
705.10	299.59
705.23	198.95
>>>>>End Processed Spectral Data<<<<<
