SpectraSuite Data File
++++++++++++++++++++++++++++++++++++
Date: Fri Oct 04 11:33:46 GMT-05:00 2013
User: price-jones
Dark Spectrum Present: No
Reference Spectrum Present: No
Number of Sampled Component Spectra: 1
Spectrometers: USB2+H05261
Integration Time (usec): 100000 (USB2+H05261)
Spectra Averaged: 1 (USB2+H05261)
Boxcar Smoothing: 0 (USB2+H05261)
Correct for Electrical Dark: No (USB2+H05261)
Strobe/Lamp Enabled: No (USB2+H05261)
Correct for Detector Non-linearity: No (USB2+H05261)
Correct for Stray Light: No (USB2+H05261)
Number of Pixels in Processed Spectrum: 2048
>>>>>Begin Processed Spectral Data<<<<<
365.73	77.24
365.92	77.24
366.12	77.24
366.32	0.00
366.52	0.00
366.72	18.72
366.91	0.00
367.11	0.00
367.31	23.41
367.51	4.68
367.70	0.00
367.90	0.00
368.10	0.00
368.30	9.36
368.49	0.00
368.69	0.00
368.89	2.34
369.09	0.00
369.28	11.70
369.48	0.00
369.68	0.00
369.87	25.75
370.07	9.36
370.27	74.90
370.47	86.60
370.66	56.17
370.86	145.11
371.06	112.35
371.25	135.75
371.45	110.01
371.65	77.24
371.84	98.30
372.04	51.49
372.24	170.86
372.44	154.48
372.63	119.37
372.83	166.18
373.03	133.41
373.22	135.75
373.42	182.56
373.62	102.98
373.81	105.32
374.01	180.22
374.21	187.24
374.40	131.07
374.60	126.39
374.79	147.45
374.99	234.05
375.19	84.26
375.38	201.29
375.58	107.66
375.78	217.67
375.97	236.39
376.17	191.92
376.37	187.24
376.56	175.54
376.76	149.79
376.95	95.96
377.15	159.16
377.35	131.07
377.54	184.90
377.74	154.48
377.93	65.54
378.13	177.88
378.33	196.60
378.52	142.77
378.72	175.54
378.91	159.16
379.11	140.43
379.31	156.82
379.50	191.92
379.70	163.84
379.89	161.50
380.09	135.75
380.28	121.71
380.48	159.16
380.68	147.45
380.87	112.35
381.07	124.05
381.26	173.20
381.46	170.86
381.65	72.56
381.85	135.75
382.04	117.03
382.24	140.43
382.43	105.32
382.63	161.50
382.83	112.35
383.02	180.22
383.22	128.73
383.41	142.77
383.61	98.30
383.80	95.96
384.00	98.30
384.19	72.56
384.39	184.90
384.58	112.35
384.78	203.63
384.97	184.90
385.17	159.16
385.36	93.62
385.56	159.16
385.75	91.28
385.95	98.30
386.14	147.45
386.34	194.26
386.53	229.37
386.72	159.16
386.92	138.09
387.11	133.41
387.31	173.20
387.50	154.48
387.70	184.90
387.89	180.22
388.09	124.05
388.28	74.90
388.48	201.29
388.67	170.86
388.86	175.54
389.06	198.95
389.25	156.82
389.45	63.19
389.64	177.88
389.84	173.20
390.03	152.13
390.22	212.99
390.42	154.48
390.61	124.05
390.81	131.07
391.00	102.98
391.19	140.43
391.39	117.03
391.58	168.52
391.78	149.79
391.97	175.54
392.16	184.90
392.36	147.45
392.55	161.50
392.75	124.05
392.94	95.96
393.13	217.67
393.33	159.16
393.52	79.58
393.71	222.35
393.91	191.92
394.10	182.56
394.29	100.64
394.49	140.43
394.68	173.20
394.88	128.73
395.07	170.86
395.26	180.22
395.46	105.32
395.65	86.60
395.84	201.29
396.04	210.65
396.23	98.30
396.42	67.88
396.62	170.86
396.81	147.45
397.00	49.15
397.19	88.94
397.39	119.37
397.58	189.58
397.77	133.41
397.97	166.18
398.16	119.37
398.35	149.79
398.55	91.28
398.74	168.52
398.93	203.63
399.12	149.79
399.32	112.35
399.51	175.54
399.70	170.86
399.90	175.54
400.09	128.73
400.28	227.03
400.47	217.67
400.67	257.46
400.86	168.52
401.05	231.71
401.24	121.71
401.44	154.48
401.63	133.41
401.82	154.48
402.01	117.03
402.21	234.05
402.40	163.84
402.59	173.20
402.78	154.48
402.97	114.69
403.17	250.44
403.36	198.95
403.55	84.26
403.74	93.62
403.93	187.24
404.13	227.03
404.32	227.03
404.51	229.37
404.70	189.58
404.89	128.73
405.09	217.67
405.28	119.37
405.47	117.03
405.66	161.50
405.85	170.86
406.05	217.67
406.24	166.18
406.43	187.24
406.62	124.05
406.81	182.56
407.00	170.86
407.20	224.69
407.39	177.88
407.58	163.84
407.77	184.90
407.96	180.22
408.15	187.24
408.34	161.50
408.54	114.69
408.73	124.05
408.92	149.79
409.11	224.69
409.30	191.92
409.49	72.56
409.68	168.52
409.87	159.16
410.07	105.32
410.26	175.54
410.45	100.64
410.64	196.60
410.83	163.84
411.02	138.09
411.21	170.86
411.40	138.09
411.59	133.41
411.78	110.01
411.98	236.39
412.17	131.07
412.36	180.22
412.55	117.03
412.74	189.58
412.93	182.56
413.12	121.71
413.31	119.37
413.50	138.09
413.69	152.13
413.88	262.14
414.07	149.79
414.26	191.92
414.45	224.69
414.64	102.98
414.83	175.54
415.02	114.69
415.22	161.50
415.41	154.48
415.60	163.84
415.79	210.65
415.98	205.97
416.17	133.41
416.36	149.79
416.55	156.82
416.74	145.11
416.93	245.76
417.12	133.41
417.31	88.94
417.50	145.11
417.69	189.58
417.88	212.99
418.07	161.50
418.26	138.09
418.45	173.20
418.64	161.50
418.83	154.48
419.02	184.90
419.21	177.88
419.39	231.71
419.58	196.60
419.77	159.16
419.96	184.90
420.15	224.69
420.34	238.73
420.53	170.86
420.72	177.88
420.91	257.46
421.10	159.16
421.29	110.01
421.48	152.13
421.67	170.86
421.86	212.99
422.05	161.50
422.24	182.56
422.43	203.63
422.61	224.69
422.80	154.48
422.99	119.37
423.18	175.54
423.37	163.84
423.56	210.65
423.75	177.88
423.94	114.69
424.13	91.28
424.32	210.65
424.50	159.16
424.69	182.56
424.88	238.73
425.07	234.05
425.26	236.39
425.45	234.05
425.64	159.16
425.83	210.65
426.01	177.88
426.20	154.48
426.39	149.79
426.58	105.32
426.77	154.48
426.96	220.01
427.15	159.16
427.33	166.18
427.52	163.84
427.71	229.37
427.90	245.76
428.09	152.13
428.28	159.16
428.46	168.52
428.65	248.10
428.84	154.48
429.03	224.69
429.22	191.92
429.40	184.90
429.59	161.50
429.78	170.86
429.97	161.50
430.16	142.77
430.34	161.50
430.53	208.31
430.72	180.22
430.91	147.45
431.10	168.52
431.28	163.84
431.47	229.37
431.66	198.95
431.85	131.07
432.03	161.50
432.22	238.73
432.41	208.31
432.60	184.90
432.79	203.63
432.97	229.37
433.16	170.86
433.35	217.67
433.54	189.58
433.72	159.16
433.91	271.50
434.10	135.75
434.28	161.50
434.47	182.56
434.66	227.03
434.85	152.13
435.03	250.44
435.22	325.33
435.41	390.87
435.59	374.49
435.78	243.42
435.97	189.58
436.16	222.35
436.34	266.82
436.53	210.65
436.72	177.88
436.90	231.71
437.09	227.03
437.28	212.99
437.46	210.65
437.65	208.31
437.84	236.39
438.02	159.16
438.21	140.43
438.40	173.20
438.58	149.79
438.77	184.90
438.96	170.86
439.14	147.45
439.33	227.03
439.52	105.32
439.70	189.58
439.89	222.35
440.08	222.35
440.26	264.48
440.45	196.60
440.63	196.60
440.82	198.95
441.01	180.22
441.19	117.03
441.38	250.44
441.57	184.90
441.75	250.44
441.94	283.20
442.12	252.78
442.31	156.82
442.50	145.11
442.68	149.79
442.87	175.54
443.05	208.31
443.24	241.08
443.43	315.97
443.61	210.65
443.80	182.56
443.98	182.56
444.17	175.54
444.35	210.65
444.54	149.79
444.73	231.71
444.91	166.18
445.10	224.69
445.28	220.01
445.47	212.99
445.65	273.84
445.84	187.24
446.02	245.76
446.21	222.35
446.39	180.22
446.58	152.13
446.77	269.16
446.95	210.65
447.14	189.58
447.32	187.24
447.51	166.18
447.69	182.56
447.88	196.60
448.06	217.67
448.25	236.39
448.43	135.75
448.62	112.35
448.80	182.56
448.99	135.75
449.17	145.11
449.36	138.09
449.54	264.48
449.73	205.97
449.91	322.99
450.10	184.90
450.28	280.86
450.46	189.58
450.65	220.01
450.83	224.69
451.02	236.39
451.20	182.56
451.39	166.18
451.57	170.86
451.76	220.01
451.94	243.42
452.13	276.18
452.31	210.65
452.49	217.67
452.68	173.20
452.86	269.16
453.05	227.03
453.23	168.52
453.42	142.77
453.60	180.22
453.78	175.54
453.97	161.50
454.15	208.31
454.34	259.80
454.52	330.02
454.70	175.54
454.89	208.31
455.07	187.24
455.26	142.77
455.44	196.60
455.62	182.56
455.81	320.65
455.99	187.24
456.17	215.33
456.36	252.78
456.54	222.35
456.73	184.90
456.91	166.18
457.09	163.84
457.28	191.92
457.46	138.09
457.64	198.95
457.83	259.80
458.01	163.84
458.19	227.03
458.38	159.16
458.56	222.35
458.74	231.71
458.93	234.05
459.11	194.26
459.29	191.92
459.48	220.01
459.66	212.99
459.84	142.77
460.03	299.59
460.21	215.33
460.39	196.60
460.57	229.37
460.76	210.65
460.94	234.05
461.12	243.42
461.31	243.42
461.49	255.12
461.67	142.77
461.85	191.92
462.04	224.69
462.22	662.37
462.40	287.89
462.59	248.10
462.77	194.26
462.95	205.97
463.13	212.99
463.32	238.73
463.50	231.71
463.68	259.80
463.86	285.55
464.05	175.54
464.23	283.20
464.41	203.63
464.59	217.67
464.78	255.12
464.96	229.37
465.14	224.69
465.32	292.57
465.50	269.16
465.69	210.65
465.87	163.84
466.05	205.97
466.23	220.01
466.41	161.50
466.60	224.69
466.78	175.54
466.96	245.76
467.14	229.37
467.32	264.48
467.51	191.92
467.69	180.22
467.87	234.05
468.05	208.31
468.23	241.08
468.41	294.91
468.60	180.22
468.78	255.12
468.96	276.18
469.14	170.86
469.32	173.20
469.50	201.29
469.69	257.46
469.87	107.66
470.05	177.88
470.23	229.37
470.41	180.22
470.59	184.90
470.77	271.50
470.95	201.29
471.14	245.76
471.32	210.65
471.50	170.86
471.68	238.73
471.86	269.16
472.04	243.42
472.22	222.35
472.40	189.58
472.58	241.08
472.77	194.26
472.95	227.03
473.13	234.05
473.31	126.39
473.49	229.37
473.67	255.12
473.85	210.65
474.03	210.65
474.21	184.90
474.39	170.86
474.57	205.97
474.75	290.23
474.93	196.60
475.12	163.84
475.30	217.67
475.48	182.56
475.66	243.42
475.84	236.39
476.02	117.03
476.20	276.18
476.38	220.01
476.56	255.12
476.74	201.29
476.92	245.76
477.10	234.05
477.28	269.16
477.46	156.82
477.64	259.80
477.82	304.27
478.00	276.18
478.18	149.79
478.36	198.95
478.54	184.90
478.72	248.10
478.90	255.12
479.08	182.56
479.26	238.73
479.44	205.97
479.62	177.88
479.80	245.76
479.98	238.73
480.16	250.44
480.34	222.35
480.52	187.24
480.70	175.54
480.88	187.24
481.06	252.78
481.24	234.05
481.41	220.01
481.59	161.50
481.77	273.84
481.95	205.97
482.13	294.91
482.31	241.08
482.49	287.89
482.67	161.50
482.85	287.89
483.03	280.86
483.21	280.86
483.39	273.84
483.57	280.86
483.74	372.15
483.92	264.48
484.10	203.63
484.28	269.16
484.46	290.23
484.64	234.05
484.82	304.27
485.00	313.63
485.18	283.20
485.35	236.39
485.53	191.92
485.71	297.25
485.89	243.42
486.07	245.76
486.25	290.23
486.43	301.93
486.61	215.33
486.78	266.82
486.96	283.20
487.14	287.89
487.32	208.31
487.50	374.49
487.68	308.95
487.85	243.42
488.03	252.78
488.21	334.70
488.39	252.78
488.57	222.35
488.75	259.80
488.92	489.17
489.10	205.97
489.28	322.99
489.46	294.91
489.64	315.97
489.81	255.12
489.99	301.93
490.17	266.82
490.35	299.59
490.53	229.37
490.70	322.99
490.88	318.31
491.06	301.93
491.24	311.29
491.41	271.50
491.59	285.55
491.77	273.84
491.95	278.52
492.13	238.73
492.30	276.18
492.48	287.89
492.66	224.69
492.84	351.08
493.01	229.37
493.19	231.71
493.37	325.33
493.54	299.59
493.72	278.52
493.90	285.55
494.08	304.27
494.25	330.02
494.43	264.48
494.61	285.55
494.79	255.12
494.96	285.55
495.14	355.76
495.32	276.18
495.49	243.42
495.67	292.57
495.85	245.76
496.02	255.12
496.20	299.59
496.38	252.78
496.55	332.36
496.73	355.76
496.91	245.76
497.09	290.23
497.26	222.35
497.44	397.89
497.62	299.59
497.79	231.71
497.97	304.27
498.14	360.44
498.32	351.08
498.50	325.33
498.67	257.46
498.85	297.25
499.03	271.50
499.20	266.82
499.38	311.29
499.56	255.12
499.73	304.27
499.91	315.97
500.08	283.20
500.26	299.59
500.44	292.57
500.61	294.91
500.79	271.50
500.97	280.86
501.14	383.85
501.32	308.95
501.49	344.06
501.67	299.59
501.84	379.17
502.02	264.48
502.20	322.99
502.37	285.55
502.55	320.65
502.72	177.88
502.90	255.12
503.07	280.86
503.25	210.65
503.43	224.69
503.60	297.25
503.78	327.68
503.95	255.12
504.13	220.01
504.30	290.23
504.48	299.59
504.65	327.68
504.83	346.40
505.01	351.08
505.18	325.33
505.36	273.84
505.53	325.33
505.71	269.16
505.88	332.36
506.06	327.68
506.23	255.12
506.41	332.36
506.58	283.20
506.76	344.06
506.93	344.06
507.11	285.55
507.28	330.02
507.46	341.72
507.63	337.04
507.81	264.48
507.98	327.68
508.16	299.59
508.33	390.87
508.50	299.59
508.68	255.12
508.85	285.55
509.03	266.82
509.20	315.97
509.38	278.52
509.55	276.18
509.73	308.95
509.90	362.78
510.08	273.84
510.25	376.83
510.42	325.33
510.60	292.57
510.77	358.10
510.95	320.65
511.12	217.67
511.30	330.02
511.47	360.44
511.64	334.70
511.82	245.76
511.99	341.72
512.17	337.04
512.34	196.60
512.51	318.31
512.69	353.42
512.86	322.99
513.04	313.63
513.21	255.12
513.38	344.06
513.56	358.10
513.73	285.55
513.90	227.03
514.08	283.20
514.25	234.05
514.43	360.44
514.60	285.55
514.77	320.65
514.95	360.44
515.12	325.33
515.29	318.31
515.47	388.53
515.64	334.70
515.81	278.52
515.99	383.85
516.16	283.20
516.33	315.97
516.51	290.23
516.68	287.89
516.85	259.80
517.03	271.50
517.20	393.21
517.37	290.23
517.54	330.02
517.72	280.86
517.89	252.78
518.06	236.39
518.24	428.32
518.41	322.99
518.58	264.48
518.75	327.68
518.93	318.31
519.10	322.99
519.27	337.04
519.45	245.76
519.62	402.57
519.79	311.29
519.96	325.33
520.14	294.91
520.31	299.59
520.48	313.63
520.65	311.29
520.83	285.55
521.00	369.80
521.17	346.40
521.34	332.36
521.52	269.16
521.69	269.16
521.86	334.70
522.03	348.74
522.20	355.76
522.38	313.63
522.55	332.36
522.72	341.72
522.89	362.78
523.07	358.10
523.24	304.27
523.41	341.72
523.58	313.63
523.75	341.72
523.92	311.29
524.10	353.42
524.27	322.99
524.44	308.95
524.61	402.57
524.78	287.89
524.96	250.44
525.13	322.99
525.30	339.38
525.47	330.02
525.64	395.55
525.81	315.97
525.98	367.46
526.16	308.95
526.33	252.78
526.50	203.63
526.67	262.14
526.84	182.56
527.01	259.80
527.18	379.17
527.36	304.27
527.53	238.73
527.70	388.53
527.87	322.99
528.04	423.64
528.21	332.36
528.38	311.29
528.55	376.83
528.72	414.27
528.89	360.44
529.07	341.72
529.24	374.49
529.41	337.04
529.58	255.12
529.75	351.08
529.92	416.62
530.09	308.95
530.26	379.17
530.43	383.85
530.60	313.63
530.77	334.70
530.94	395.55
531.11	330.02
531.28	390.87
531.46	332.36
531.63	332.36
531.80	339.38
531.97	353.42
532.14	283.20
532.31	297.25
532.48	334.70
532.65	416.62
532.82	414.27
532.99	386.19
533.16	369.80
533.33	454.06
533.50	344.06
533.67	318.31
533.84	388.53
534.01	299.59
534.18	327.68
534.35	348.74
534.52	411.93
534.69	444.70
534.86	308.95
535.03	367.46
535.20	337.04
535.37	362.78
535.54	416.62
535.71	318.31
535.88	449.38
536.05	411.93
536.22	416.62
536.38	383.85
536.55	379.17
536.72	299.59
536.89	313.63
537.06	278.52
537.23	418.96
537.40	362.78
537.57	397.89
537.74	409.59
537.91	470.45
538.08	346.40
538.25	393.21
538.42	433.00
538.59	430.66
538.75	423.64
538.92	425.98
539.09	376.83
539.26	454.06
539.43	435.34
539.60	589.82
539.77	812.17
539.94	753.65
540.11	667.05
540.28	582.79
540.44	533.64
540.61	514.92
540.78	479.81
540.95	519.60
541.12	601.52
541.29	645.99
541.46	681.10
541.62	653.01
541.79	648.33
541.96	660.03
542.13	559.39
542.30	559.39
542.47	545.34
542.63	622.58
542.80	599.18
542.97	634.29
543.14	617.90
543.31	491.51
543.48	564.07
543.64	540.66
543.81	571.09
543.98	573.43
544.15	491.51
544.32	538.32
544.48	543.00
544.65	596.84
544.82	589.82
544.99	557.05
545.16	568.75
545.32	491.51
545.49	784.08
545.66	964.30
545.83	1097.71
546.00	952.60
546.16	842.59
546.33	643.65
546.50	564.07
546.67	479.81
546.83	437.68
547.00	533.64
547.17	550.03
547.34	407.25
547.50	458.74
547.67	498.53
547.84	428.32
548.00	543.00
548.17	397.89
548.34	440.02
548.51	449.38
548.67	463.43
548.84	402.57
549.01	416.62
549.18	404.91
549.34	514.92
549.51	454.06
549.68	414.27
549.84	451.72
550.01	463.43
550.18	545.34
550.34	428.32
550.51	430.66
550.68	465.77
550.84	390.87
551.01	381.51
551.18	367.46
551.34	304.27
551.51	351.08
551.68	339.38
551.84	362.78
552.01	360.44
552.18	355.76
552.34	423.64
552.51	397.89
552.68	318.31
552.84	330.02
553.01	374.49
553.18	341.72
553.34	374.49
553.51	308.95
553.67	374.49
553.84	390.87
554.01	362.78
554.17	397.89
554.34	346.40
554.51	292.57
554.67	393.21
554.84	290.23
555.00	330.02
555.17	297.25
555.33	409.59
555.50	332.36
555.67	355.76
555.83	337.04
556.00	372.15
556.16	475.13
556.33	348.74
556.50	290.23
556.66	344.06
556.83	299.59
556.99	351.08
557.16	308.95
557.32	334.70
557.49	355.76
557.65	360.44
557.82	393.21
557.98	400.23
558.15	280.86
558.32	395.55
558.48	280.86
558.65	285.55
558.81	362.78
558.98	374.49
559.14	308.95
559.31	297.25
559.47	315.97
559.64	341.72
559.80	313.63
559.97	395.55
560.13	379.17
560.30	308.95
560.46	308.95
560.63	390.87
560.79	301.93
560.96	376.83
561.12	337.04
561.29	297.25
561.45	301.93
561.61	325.33
561.78	393.21
561.94	330.02
562.11	332.36
562.27	327.68
562.44	374.49
562.60	313.63
562.77	320.65
562.93	341.72
563.10	271.50
563.26	280.86
563.42	299.59
563.59	325.33
563.75	264.48
563.92	304.27
564.08	257.46
564.24	376.83
564.41	374.49
564.57	362.78
564.74	311.29
564.90	341.72
565.07	388.53
565.23	372.15
565.39	322.99
565.56	351.08
565.72	292.57
565.88	344.06
566.05	369.80
566.21	301.93
566.38	311.29
566.54	297.25
566.70	341.72
566.87	315.97
567.03	327.68
567.19	365.12
567.36	306.61
567.52	280.86
567.68	320.65
567.85	348.74
568.01	278.52
568.17	322.99
568.34	365.12
568.50	355.76
568.66	243.42
568.83	348.74
568.99	318.31
569.15	332.36
569.32	315.97
569.48	280.86
569.64	313.63
569.81	245.76
569.97	325.33
570.13	379.17
570.30	241.08
570.46	290.23
570.62	255.12
570.78	262.14
570.95	224.69
571.11	360.44
571.27	337.04
571.43	320.65
571.60	325.33
571.76	276.18
571.92	334.70
572.09	320.65
572.25	273.84
572.41	294.91
572.57	259.80
572.74	344.06
572.90	358.10
573.06	337.04
573.22	292.57
573.38	285.55
573.55	348.74
573.71	351.08
573.87	313.63
574.03	297.25
574.20	360.44
574.36	322.99
574.52	290.23
574.68	318.31
574.84	365.12
575.01	327.68
575.17	301.93
575.33	290.23
575.49	320.65
575.65	311.29
575.82	355.76
575.98	402.57
576.14	463.43
576.30	430.66
576.46	507.90
576.62	416.62
576.79	456.40
576.95	421.30
577.11	346.40
577.27	383.85
577.43	353.42
577.59	351.08
577.75	402.57
577.92	374.49
578.08	325.33
578.24	325.33
578.40	334.70
578.56	397.89
578.72	461.09
578.88	484.49
579.04	400.23
579.21	414.27
579.37	330.02
579.53	381.51
579.69	344.06
579.85	355.76
580.01	435.34
580.17	376.83
580.33	411.93
580.49	395.55
580.65	381.51
580.82	393.21
580.98	292.57
581.14	346.40
581.30	418.96
581.46	463.43
581.62	463.43
581.78	421.30
581.94	418.96
582.10	411.93
582.26	320.65
582.42	430.66
582.58	470.45
582.74	435.34
582.90	433.00
583.06	411.93
583.22	362.78
583.38	414.27
583.54	461.09
583.70	503.22
583.86	535.98
584.02	479.81
584.18	547.69
584.34	559.39
584.50	1071.97
584.66	5554.09
584.82	14544.09
584.98	22089.98
585.14	19744.76
585.30	12407.18
585.46	7630.15
585.62	4983.00
585.78	2366.28
585.94	1174.95
586.10	681.10
586.26	585.13
586.42	587.47
586.58	547.69
586.74	505.56
586.90	479.81
587.06	559.39
587.22	533.64
587.38	500.87
587.54	631.94
587.70	1198.35
587.86	1722.63
588.02	1914.56
588.18	1406.66
588.34	971.32
588.49	676.41
588.65	578.11
588.81	360.44
588.97	322.99
589.13	337.04
589.29	294.91
589.45	362.78
589.61	327.68
589.77	390.87
589.93	330.02
590.08	351.08
590.24	423.64
590.40	372.15
590.56	376.83
590.72	409.59
590.88	304.27
591.04	339.38
591.20	404.91
591.35	397.89
591.51	299.59
591.67	409.59
591.83	383.85
591.99	414.27
592.15	341.72
592.31	369.80
592.46	337.04
592.62	437.68
592.78	428.32
592.94	409.59
593.10	414.27
593.26	397.89
593.41	458.74
593.57	369.80
593.73	458.74
593.89	929.19
594.05	2017.54
594.20	2958.44
594.36	2768.85
594.52	1914.56
594.68	1294.32
594.84	1093.03
594.99	734.93
595.15	526.62
595.31	423.64
595.47	374.49
595.62	341.72
595.78	339.38
595.94	290.23
596.10	395.55
596.25	367.46
596.41	351.08
596.57	280.86
596.73	414.27
596.88	421.30
597.04	617.90
597.20	861.32
597.36	1060.26
597.51	833.23
597.67	624.92
597.83	493.85
597.99	482.15
598.14	416.62
598.30	477.47
598.46	294.91
598.61	437.68
598.77	383.85
598.93	346.40
599.09	344.06
599.24	311.29
599.40	344.06
599.56	362.78
599.71	355.76
599.87	313.63
600.03	278.52
600.18	315.97
600.34	367.46
600.50	332.36
600.65	285.55
600.81	388.53
600.97	346.40
601.12	367.46
601.28	330.02
601.44	337.04
601.59	365.12
601.75	374.49
601.91	351.08
602.06	327.68
602.22	418.96
602.37	447.04
602.53	753.65
602.69	976.00
602.84	1062.60
603.00	821.53
603.16	615.56
603.31	587.47
603.47	578.11
603.62	372.15
603.78	395.55
603.94	327.68
604.09	376.83
604.25	266.82
604.40	294.91
604.56	353.42
604.71	379.17
604.87	278.52
605.03	344.06
605.18	386.19
605.34	397.89
605.49	428.32
605.65	341.72
605.80	299.59
605.96	351.08
606.12	348.74
606.27	330.02
606.43	351.08
606.58	355.76
606.74	458.74
606.89	1177.29
607.05	1968.39
607.20	2485.65
607.36	2211.81
607.51	1633.69
607.67	1088.35
607.82	980.68
607.98	645.99
608.13	512.58
608.29	444.70
608.44	451.72
608.60	407.25
608.75	486.83
608.91	617.90
609.06	1668.80
609.22	3225.26
609.37	4184.88
609.53	3852.52
609.68	2698.64
609.84	1912.22
609.99	1481.56
610.15	1107.07
610.30	784.08
610.46	898.77
610.61	875.36
610.76	990.05
610.92	1088.35
611.07	1128.14
611.23	1151.54
611.38	1102.39
611.54	997.07
611.69	919.83
611.84	795.78
612.00	667.05
612.15	671.73
612.31	699.82
612.46	634.29
612.62	767.70
612.77	624.92
612.92	634.29
613.08	615.56
613.23	540.66
613.39	596.84
613.54	732.59
613.69	1577.52
613.85	3772.94
614.00	6080.71
614.15	6827.34
614.31	5048.54
614.46	3419.52
614.62	2469.27
614.77	1607.95
614.92	870.68
615.08	751.31
615.23	479.81
615.38	493.85
615.54	472.79
615.69	503.22
615.84	1001.75
616.00	1568.16
616.15	1898.17
616.30	1703.91
616.46	1172.61
616.61	847.27
616.76	718.54
616.92	526.62
617.07	386.19
617.22	423.64
617.37	388.53
617.53	369.80
617.68	360.44
617.83	454.06
617.99	327.68
618.14	376.83
618.29	397.89
618.45	374.49
618.60	315.97
618.75	348.74
618.90	369.80
619.06	322.99
619.21	383.85
619.36	372.15
619.51	290.23
619.67	278.52
619.82	334.70
619.97	320.65
620.12	367.46
620.28	259.80
620.43	395.55
620.58	416.62
620.73	355.76
620.89	351.08
621.04	423.64
621.19	685.78
621.34	1034.52
621.49	1226.44
621.65	1193.67
621.80	905.79
621.95	711.52
622.10	660.03
622.25	447.04
622.41	376.83
622.56	369.80
622.71	411.93
622.86	374.49
623.01	376.83
623.16	299.59
623.32	325.33
623.47	311.29
623.62	259.80
623.77	416.62
623.92	304.27
624.07	276.18
624.23	325.33
624.38	346.40
624.53	404.91
624.68	344.06
624.83	383.85
624.98	341.72
625.13	330.02
625.29	348.74
625.44	358.10
625.59	397.89
625.74	397.89
625.89	425.98
626.04	866.00
626.19	2022.22
626.34	3169.09
626.49	3658.26
626.65	2693.96
626.80	1912.22
626.95	1362.19
627.10	961.96
627.25	634.29
627.40	468.11
627.55	299.59
627.70	339.38
627.85	341.72
628.00	334.70
628.15	332.36
628.30	313.63
628.45	203.63
628.60	376.83
628.76	290.23
628.91	379.17
629.06	308.95
629.21	315.97
629.36	372.15
629.51	355.76
629.66	337.04
629.81	301.93
629.96	624.92
630.11	919.83
630.26	1163.25
630.41	1060.26
630.56	966.64
630.71	716.20
630.86	545.34
631.01	472.79
631.16	411.93
631.31	402.57
631.46	411.93
631.61	404.91
631.76	320.65
631.91	297.25
632.06	294.91
632.21	308.95
632.36	376.83
632.51	320.65
632.66	313.63
632.81	470.45
632.96	1163.25
633.10	1984.77
633.25	2532.46
633.40	1994.14
633.55	1516.67
633.70	1053.24
633.85	819.19
634.00	517.26
634.15	379.17
634.30	297.25
634.45	358.10
634.60	320.65
634.75	283.20
634.90	292.57
635.05	318.31
635.19	191.92
635.34	362.78
635.49	292.57
635.64	276.18
635.79	292.57
635.94	294.91
636.09	381.51
636.24	402.57
636.39	299.59
636.53	259.80
636.68	346.40
636.83	311.29
636.98	341.72
637.13	273.84
637.28	212.99
637.43	322.99
637.57	360.44
637.72	973.66
637.87	2291.38
638.02	3896.99
638.17	4386.16
638.32	3424.20
638.46	2333.51
638.61	1685.19
638.76	1165.59
638.91	713.86
639.06	404.91
639.20	397.89
639.35	346.40
639.50	496.19
639.65	1287.29
639.80	3463.99
639.94	5621.97
640.09	6492.65
640.24	5116.41
640.39	3330.58
640.54	2380.32
640.68	1465.18
640.83	952.60
640.98	528.96
641.13	348.74
641.27	360.44
641.42	362.78
641.57	222.35
641.72	365.12
641.86	311.29
642.01	250.44
642.16	280.86
642.31	241.08
642.45	355.76
642.60	318.31
642.75	318.31
642.90	301.93
643.04	280.86
643.19	259.80
643.34	243.42
643.48	322.99
643.63	278.52
643.78	250.44
643.93	234.05
644.07	318.31
644.22	287.89
644.37	210.65
644.51	339.38
644.66	276.18
644.81	287.89
644.95	330.02
645.10	322.99
645.25	301.93
645.39	362.78
645.54	255.12
645.69	210.65
645.83	306.61
645.98	290.23
646.13	210.65
646.27	205.97
646.42	227.03
646.57	262.14
646.71	280.86
646.86	283.20
647.00	227.03
647.15	294.91
647.30	318.31
647.44	243.42
647.59	215.33
647.74	161.50
647.88	273.84
648.03	273.84
648.17	287.89
648.32	198.95
648.47	327.68
648.61	241.08
648.76	241.08
648.90	220.01
649.05	308.95
649.20	250.44
649.34	173.20
649.49	320.65
649.63	236.39
649.78	259.80
649.92	318.31
650.07	725.57
650.21	1647.74
650.36	2977.16
650.51	3550.59
650.65	3070.78
650.80	2165.00
650.94	1593.90
651.09	1013.45
651.23	617.90
651.38	435.34
651.52	308.95
651.67	259.80
651.81	245.76
651.96	318.31
652.10	304.27
652.25	327.68
652.39	313.63
652.54	320.65
652.68	402.57
652.83	671.73
652.97	1118.78
653.12	1348.15
653.26	1221.76
653.41	1114.10
653.55	767.70
653.70	641.31
653.84	414.27
653.99	346.40
654.13	234.05
654.27	248.10
654.42	222.35
654.56	297.25
654.71	196.60
654.85	243.42
655.00	231.71
655.14	231.71
655.29	205.97
655.43	334.70
655.57	234.05
655.72	266.82
655.86	259.80
656.01	159.16
656.15	220.01
656.30	234.05
656.44	301.93
656.58	236.39
656.73	229.37
656.87	231.71
657.01	220.01
657.16	320.65
657.30	299.59
657.45	257.46
657.59	227.03
657.73	255.12
657.88	327.68
658.02	257.46
658.16	224.69
658.31	287.89
658.45	290.23
658.60	248.10
658.74	159.16
658.88	166.18
659.03	280.86
659.17	308.95
659.31	423.64
659.46	882.38
659.60	1444.11
659.74	1928.60
659.89	1722.63
660.03	1343.47
660.17	1006.43
660.32	692.80
660.46	550.03
660.60	381.51
660.74	337.04
660.89	257.46
661.03	203.63
661.17	248.10
661.32	210.65
661.46	327.68
661.60	248.10
661.74	269.16
661.89	283.20
662.03	175.54
662.17	259.80
662.31	245.76
662.46	236.39
662.60	259.80
662.74	271.50
662.88	285.55
663.03	276.18
663.17	208.31
663.31	252.78
663.45	311.29
663.60	170.86
663.74	264.48
663.88	231.71
664.02	248.10
664.17	287.89
664.31	177.88
664.45	245.76
664.59	236.39
664.73	198.95
664.88	334.70
665.02	292.57
665.16	205.97
665.30	189.58
665.44	313.63
665.59	285.55
665.73	283.20
665.87	245.76
666.01	231.71
666.15	243.42
666.29	234.05
666.44	315.97
666.58	255.12
666.72	238.73
666.86	276.18
667.00	259.80
667.14	341.72
667.28	648.33
667.43	1483.90
667.57	2497.35
667.71	3112.91
667.85	2750.13
667.99	2022.22
668.13	1329.42
668.27	919.83
668.41	653.01
668.56	388.53
668.70	393.21
668.84	341.72
668.98	285.55
669.12	224.69
669.26	292.57
669.40	299.59
669.54	227.03
669.68	351.08
669.82	208.31
669.96	208.31
670.10	175.54
670.25	203.63
670.39	278.52
670.53	266.82
670.67	248.10
670.81	224.69
670.95	217.67
671.09	322.99
671.23	704.50
671.37	1362.19
671.51	1722.63
671.65	1998.82
671.79	1666.46
671.93	1217.08
672.07	882.38
672.21	566.41
672.35	367.46
672.49	311.29
672.63	320.65
672.77	217.67
672.91	273.84
673.05	238.73
673.19	292.57
673.33	250.44
673.47	308.95
673.61	262.14
673.75	189.58
673.89	250.44
674.03	182.56
674.17	170.86
674.31	203.63
674.45	215.33
674.59	271.50
674.73	203.63
674.87	255.12
675.01	245.76
675.15	264.48
675.29	262.14
675.43	273.84
675.56	285.55
675.70	269.16
675.84	196.60
675.98	287.89
676.12	248.10
676.26	283.20
676.40	210.65
676.54	184.90
676.68	168.52
676.82	189.58
676.96	203.63
677.10	283.20
677.23	266.82
677.37	229.37
677.51	241.08
677.65	238.73
677.79	170.86
677.93	180.22
678.07	250.44
678.21	217.67
678.34	161.50
678.48	191.92
678.62	205.97
678.76	248.10
678.90	159.16
679.04	245.76
679.18	269.16
679.31	177.88
679.45	191.92
679.59	189.58
679.73	262.14
679.87	180.22
680.00	161.50
680.14	229.37
680.28	231.71
680.42	189.58
680.56	248.10
680.70	156.82
680.83	262.14
680.97	229.37
681.11	212.99
681.25	208.31
681.39	208.31
681.52	259.80
681.66	229.37
681.80	248.10
681.94	212.99
682.07	229.37
682.21	187.24
682.35	215.33
682.49	173.20
682.62	220.01
682.76	156.82
682.90	208.31
683.04	117.03
683.17	224.69
683.31	278.52
683.45	236.39
683.59	224.69
683.72	264.48
683.86	283.20
684.00	135.75
684.13	177.88
684.27	184.90
684.41	170.86
684.55	238.73
684.68	182.56
684.82	161.50
684.96	234.05
685.09	217.67
685.23	170.86
685.37	152.13
685.50	142.77
685.64	255.12
685.78	51.49
685.91	175.54
686.05	245.76
686.19	154.48
686.32	201.29
686.46	175.54
686.60	138.09
686.73	177.88
686.87	292.57
687.01	250.44
687.14	191.92
687.28	177.88
687.42	159.16
687.55	238.73
687.69	203.63
687.82	220.01
687.96	191.92
688.10	201.29
688.23	142.77
688.37	177.88
688.50	194.26
688.64	238.73
688.78	142.77
688.91	159.16
689.05	142.77
689.18	173.20
689.32	177.88
689.46	194.26
689.59	175.54
689.73	201.29
689.86	159.16
690.00	203.63
690.13	168.52
690.27	140.43
690.41	152.13
690.54	152.13
690.68	189.58
690.81	166.18
690.95	231.71
691.08	234.05
691.22	208.31
691.35	182.56
691.49	166.18
691.62	135.75
691.76	156.82
691.89	222.35
692.03	128.73
692.16	149.79
692.30	234.05
692.43	376.83
692.57	695.14
692.70	1069.62
692.84	1490.92
692.97	1303.68
693.11	1069.62
693.24	828.55
693.38	613.22
693.51	435.34
693.65	395.55
693.78	299.59
693.92	201.29
694.05	227.03
694.19	177.88
694.32	175.54
694.45	126.39
694.59	203.63
694.72	135.75
694.86	126.39
694.99	177.88
695.13	152.13
695.26	191.92
695.39	187.24
695.53	243.42
695.66	220.01
695.80	173.20
695.93	107.66
696.07	280.86
696.20	210.65
696.33	285.55
696.47	280.86
696.60	227.03
696.73	217.67
696.87	222.35
697.00	173.20
697.14	180.22
697.27	163.84
697.40	236.39
697.54	203.63
697.67	212.99
697.80	187.24
697.94	217.67
698.07	187.24
698.21	140.43
698.34	187.24
698.47	161.50
698.61	203.63
698.74	203.63
698.87	203.63
699.01	140.43
699.14	156.82
699.27	166.18
699.40	278.52
699.54	217.67
699.67	203.63
699.80	224.69
699.94	147.45
700.07	210.65
700.20	149.79
700.34	248.10
700.47	154.48
700.60	191.92
700.73	163.84
700.87	220.01
701.00	196.60
701.13	217.67
701.26	215.33
701.40	147.45
701.53	205.97
701.66	238.73
701.79	210.65
701.93	177.88
702.06	222.35
702.19	257.46
702.32	227.03
702.46	264.48
702.59	194.26
702.72	341.72
702.85	844.93
702.99	1575.18
703.12	2352.24
703.25	2574.59
703.38	2232.87
703.51	1905.20
703.65	1556.46
703.78	1032.18
703.91	842.59
704.04	533.64
704.17	273.84
704.31	278.52
704.44	236.39
704.57	205.97
704.70	276.18
704.83	201.29
704.96	196.60
705.10	208.31
705.23	95.96
>>>>>End Processed Spectral Data<<<<<
