SpectraSuite Data File
++++++++++++++++++++++++++++++++++++
Date: Fri Oct 04 11:33:50 GMT-05:00 2013
User: price-jones
Dark Spectrum Present: No
Reference Spectrum Present: No
Number of Sampled Component Spectra: 1
Spectrometers: USB2+H05261
Integration Time (usec): 100000 (USB2+H05261)
Spectra Averaged: 1 (USB2+H05261)
Boxcar Smoothing: 0 (USB2+H05261)
Correct for Electrical Dark: No (USB2+H05261)
Strobe/Lamp Enabled: No (USB2+H05261)
Correct for Detector Non-linearity: No (USB2+H05261)
Correct for Stray Light: No (USB2+H05261)
Number of Pixels in Processed Spectrum: 2048
>>>>>Begin Processed Spectral Data<<<<<
365.73	53.83
365.92	53.83
366.12	53.83
366.32	0.00
366.52	0.00
366.72	0.00
366.91	0.00
367.11	0.00
367.31	0.00
367.51	0.00
367.70	0.00
367.90	0.00
368.10	0.00
368.30	0.00
368.49	0.00
368.69	0.00
368.89	0.00
369.09	0.00
369.28	63.19
369.48	0.00
369.68	37.45
369.87	37.45
370.07	67.88
370.27	112.35
370.47	0.00
370.66	39.79
370.86	79.58
371.06	128.73
371.25	112.35
371.45	60.85
371.65	152.13
371.84	135.75
372.04	107.66
372.24	114.69
372.44	95.96
372.63	107.66
372.83	110.01
373.03	154.48
373.22	149.79
373.42	49.15
373.62	138.09
373.81	220.01
374.01	152.13
374.21	201.29
374.40	182.56
374.60	177.88
374.79	91.28
374.99	110.01
375.19	140.43
375.38	105.32
375.58	77.24
375.78	145.11
375.97	191.92
376.17	208.31
376.37	170.86
376.56	114.69
376.76	91.28
376.95	145.11
377.15	203.63
377.35	154.48
377.54	203.63
377.74	187.24
377.93	93.62
378.13	177.88
378.33	119.37
378.52	149.79
378.72	163.84
378.91	161.50
379.11	175.54
379.31	184.90
379.50	88.94
379.70	187.24
379.89	173.20
380.09	107.66
380.28	119.37
380.48	65.54
380.68	84.26
380.87	156.82
381.07	65.54
381.26	121.71
381.46	198.95
381.65	166.18
381.85	119.37
382.04	140.43
382.24	147.45
382.43	175.54
382.63	70.22
382.83	114.69
383.02	138.09
383.22	184.90
383.41	142.77
383.61	182.56
383.80	95.96
384.00	173.20
384.19	189.58
384.39	177.88
384.58	159.16
384.78	194.26
384.97	128.73
385.17	128.73
385.36	168.52
385.56	173.20
385.75	79.58
385.95	156.82
386.14	142.77
386.34	98.30
386.53	170.86
386.72	145.11
386.92	205.97
387.11	149.79
387.31	152.13
387.50	102.98
387.70	77.24
387.89	152.13
388.09	154.48
388.28	79.58
388.48	121.71
388.67	194.26
388.86	149.79
389.06	154.48
389.25	117.03
389.45	107.66
389.64	210.65
389.84	135.75
390.03	184.90
390.22	72.56
390.42	187.24
390.61	100.64
390.81	154.48
391.00	180.22
391.19	187.24
391.39	154.48
391.58	81.92
391.78	142.77
391.97	184.90
392.16	140.43
392.36	117.03
392.55	93.62
392.75	149.79
392.94	220.01
393.13	131.07
393.33	124.05
393.52	98.30
393.71	189.58
393.91	168.52
394.10	170.86
394.29	217.67
394.49	184.90
394.68	163.84
394.88	187.24
395.07	194.26
395.26	128.73
395.46	117.03
395.65	229.37
395.84	196.60
396.04	210.65
396.23	121.71
396.42	177.88
396.62	140.43
396.81	215.33
397.00	159.16
397.19	182.56
397.39	168.52
397.58	205.97
397.77	196.60
397.97	184.90
398.16	180.22
398.35	175.54
398.55	98.30
398.74	140.43
398.93	156.82
399.12	142.77
399.32	166.18
399.51	152.13
399.70	124.05
399.90	161.50
400.09	184.90
400.28	145.11
400.47	152.13
400.67	114.69
400.86	95.96
401.05	140.43
401.24	159.16
401.44	205.97
401.63	175.54
401.82	180.22
402.01	149.79
402.21	149.79
402.40	126.39
402.59	140.43
402.78	142.77
402.97	222.35
403.17	105.32
403.36	175.54
403.55	147.45
403.74	159.16
403.93	224.69
404.13	325.33
404.32	215.33
404.51	217.67
404.70	180.22
404.89	154.48
405.09	191.92
405.28	91.28
405.47	117.03
405.66	117.03
405.85	152.13
406.05	177.88
406.24	147.45
406.43	184.90
406.62	180.22
406.81	133.41
407.00	182.56
407.20	156.82
407.39	149.79
407.58	180.22
407.77	182.56
407.96	173.20
408.15	250.44
408.34	177.88
408.54	170.86
408.73	180.22
408.92	173.20
409.11	107.66
409.30	44.47
409.49	196.60
409.68	152.13
409.87	187.24
410.07	194.26
410.26	142.77
410.45	203.63
410.64	217.67
410.83	191.92
411.02	159.16
411.21	191.92
411.40	173.20
411.59	163.84
411.78	175.54
411.98	224.69
412.17	119.37
412.36	121.71
412.55	142.77
412.74	217.67
412.93	184.90
413.12	159.16
413.31	212.99
413.50	159.16
413.69	142.77
413.88	117.03
414.07	194.26
414.26	147.45
414.45	177.88
414.64	140.43
414.83	217.67
415.02	112.35
415.22	194.26
415.41	175.54
415.60	95.96
415.79	166.18
415.98	208.31
416.17	149.79
416.36	159.16
416.55	154.48
416.74	161.50
416.93	227.03
417.12	95.96
417.31	163.84
417.50	156.82
417.69	285.55
417.88	285.55
418.07	315.97
418.26	196.60
418.45	238.73
418.64	287.89
418.83	184.90
419.02	248.10
419.21	170.86
419.39	229.37
419.58	170.86
419.77	187.24
419.96	248.10
420.15	306.61
420.34	86.60
420.53	159.16
420.72	201.29
420.91	161.50
421.10	147.45
421.29	161.50
421.48	128.73
421.67	142.77
421.86	124.05
422.05	196.60
422.24	119.37
422.43	168.52
422.61	138.09
422.80	121.71
422.99	257.46
423.18	154.48
423.37	245.76
423.56	173.20
423.75	145.11
423.94	156.82
424.13	149.79
424.32	177.88
424.50	121.71
424.69	203.63
424.88	205.97
425.07	227.03
425.26	201.29
425.45	257.46
425.64	243.42
425.83	255.12
426.01	229.37
426.20	166.18
426.39	173.20
426.58	142.77
426.77	149.79
426.96	187.24
427.15	168.52
427.33	161.50
427.52	241.08
427.71	182.56
427.90	198.95
428.09	159.16
428.28	189.58
428.46	166.18
428.65	135.75
428.84	184.90
429.03	124.05
429.22	147.45
429.40	161.50
429.59	110.01
429.78	184.90
429.97	102.98
430.16	184.90
430.34	126.39
430.53	128.73
430.72	147.45
430.91	147.45
431.10	135.75
431.28	152.13
431.47	201.29
431.66	241.08
431.85	138.09
432.03	126.39
432.22	203.63
432.41	156.82
432.60	243.42
432.79	198.95
432.97	257.46
433.16	224.69
433.35	259.80
433.54	180.22
433.72	152.13
433.91	180.22
434.10	191.92
434.28	241.08
434.47	196.60
434.66	173.20
434.85	180.22
435.03	161.50
435.22	367.46
435.41	393.21
435.59	301.93
435.78	306.61
435.97	217.67
436.16	224.69
436.34	177.88
436.53	145.11
436.72	212.99
436.90	142.77
437.09	180.22
437.28	198.95
437.46	210.65
437.65	236.39
437.84	222.35
438.02	224.69
438.21	142.77
438.40	131.07
438.58	81.92
438.77	166.18
438.96	135.75
439.14	177.88
439.33	196.60
439.52	154.48
439.70	217.67
439.89	145.11
440.08	212.99
440.26	238.73
440.45	184.90
440.63	203.63
440.82	182.56
441.01	170.86
441.19	234.05
441.38	117.03
441.57	149.79
441.75	131.07
441.94	177.88
442.12	229.37
442.31	205.97
442.50	184.90
442.68	184.90
442.87	196.60
443.05	236.39
443.24	215.33
443.43	194.26
443.61	259.80
443.80	191.92
443.98	238.73
444.17	154.48
444.35	184.90
444.54	187.24
444.73	175.54
444.91	210.65
445.10	217.67
445.28	194.26
445.47	217.67
445.65	173.20
445.84	159.16
446.02	212.99
446.21	201.29
446.39	285.55
446.58	170.86
446.77	198.95
446.95	198.95
447.14	238.73
447.32	152.13
447.51	222.35
447.69	271.50
447.88	187.24
448.06	224.69
448.25	194.26
448.43	194.26
448.62	210.65
448.80	215.33
448.99	238.73
449.17	184.90
449.36	145.11
449.54	252.78
449.73	215.33
449.91	238.73
450.10	198.95
450.28	259.80
450.46	294.91
450.65	198.95
450.83	184.90
451.02	170.86
451.20	250.44
451.39	191.92
451.57	152.13
451.76	208.31
451.94	208.31
452.13	203.63
452.31	168.52
452.49	198.95
452.68	191.92
452.86	142.77
453.05	257.46
453.23	180.22
453.42	231.71
453.60	201.29
453.78	163.84
453.97	142.77
454.15	187.24
454.34	154.48
454.52	196.60
454.70	203.63
454.89	245.76
455.07	205.97
455.26	135.75
455.44	222.35
455.62	147.45
455.81	224.69
455.99	191.92
456.17	248.10
456.36	110.01
456.54	241.08
456.73	236.39
456.91	191.92
457.09	102.98
457.28	285.55
457.46	124.05
457.64	184.90
457.83	196.60
458.01	166.18
458.19	208.31
458.38	212.99
458.56	194.26
458.74	166.18
458.93	114.69
459.11	95.96
459.29	177.88
459.48	220.01
459.66	266.82
459.84	322.99
460.03	262.14
460.21	212.99
460.39	273.84
460.57	175.54
460.76	227.03
460.94	184.90
461.12	255.12
461.31	184.90
461.49	180.22
461.67	194.26
461.85	208.31
462.04	262.14
462.22	552.37
462.40	182.56
462.59	140.43
462.77	201.29
462.95	175.54
463.13	170.86
463.32	222.35
463.50	212.99
463.68	138.09
463.86	74.90
464.05	234.05
464.23	182.56
464.41	128.73
464.59	152.13
464.78	124.05
464.96	163.84
465.14	191.92
465.32	187.24
465.50	229.37
465.69	217.67
465.87	201.29
466.05	222.35
466.23	173.20
466.41	189.58
466.60	180.22
466.78	259.80
466.96	210.65
467.14	191.92
467.32	234.05
467.51	203.63
467.69	170.86
467.87	191.92
468.05	203.63
468.23	166.18
468.41	294.91
468.60	138.09
468.78	154.48
468.96	191.92
469.14	180.22
469.32	128.73
469.50	205.97
469.69	145.11
469.87	166.18
470.05	210.65
470.23	217.67
470.41	205.97
470.59	196.60
470.77	175.54
470.95	138.09
471.14	196.60
471.32	236.39
471.50	217.67
471.68	208.31
471.86	227.03
472.04	187.24
472.22	159.16
472.40	194.26
472.58	173.20
472.77	173.20
472.95	102.98
473.13	250.44
473.31	250.44
473.49	224.69
473.67	117.03
473.85	168.52
474.03	152.13
474.21	220.01
474.39	248.10
474.57	227.03
474.75	234.05
474.93	177.88
475.12	234.05
475.30	201.29
475.48	194.26
475.66	182.56
475.84	152.13
476.02	175.54
476.20	135.75
476.38	184.90
476.56	229.37
476.74	217.67
476.92	182.56
477.10	243.42
477.28	196.60
477.46	194.26
477.64	231.71
477.82	152.13
478.00	173.20
478.18	182.56
478.36	175.54
478.54	131.07
478.72	198.95
478.90	241.08
479.08	161.50
479.26	198.95
479.44	198.95
479.62	203.63
479.80	182.56
479.98	252.78
480.16	161.50
480.34	264.48
480.52	159.16
480.70	152.13
480.88	198.95
481.06	208.31
481.24	187.24
481.41	173.20
481.59	252.78
481.77	229.37
481.95	203.63
482.13	222.35
482.31	217.67
482.49	170.86
482.67	220.01
482.85	297.25
483.03	248.10
483.21	222.35
483.39	189.58
483.57	212.99
483.74	269.16
483.92	217.67
484.10	175.54
484.28	152.13
484.46	250.44
484.64	182.56
484.82	245.76
485.00	224.69
485.18	257.46
485.35	212.99
485.53	189.58
485.71	269.16
485.89	180.22
486.07	168.52
486.25	252.78
486.43	290.23
486.61	276.18
486.78	210.65
486.96	217.67
487.14	231.71
487.32	196.60
487.50	255.12
487.68	236.39
487.85	287.89
488.03	259.80
488.21	259.80
488.39	175.54
488.57	241.08
488.75	234.05
488.92	458.74
489.10	266.82
489.28	301.93
489.46	201.29
489.64	243.42
489.81	257.46
489.99	208.31
490.17	262.14
490.35	351.08
490.53	236.39
490.70	311.29
490.88	217.67
491.06	231.71
491.24	278.52
491.41	264.48
491.59	210.65
491.77	259.80
491.95	201.29
492.13	177.88
492.30	227.03
492.48	215.33
492.66	224.69
492.84	266.82
493.01	264.48
493.19	191.92
493.37	287.89
493.54	278.52
493.72	231.71
493.90	257.46
494.08	287.89
494.25	280.86
494.43	238.73
494.61	257.46
494.79	222.35
494.96	191.92
495.14	224.69
495.32	210.65
495.49	311.29
495.67	210.65
495.85	238.73
496.02	236.39
496.20	271.50
496.38	241.08
496.55	280.86
496.73	285.55
496.91	248.10
497.09	259.80
497.26	201.29
497.44	241.08
497.62	227.03
497.79	222.35
497.97	273.84
498.14	168.52
498.32	227.03
498.50	273.84
498.67	245.76
498.85	269.16
499.03	287.89
499.20	271.50
499.38	255.12
499.56	175.54
499.73	241.08
499.91	287.89
500.08	271.50
500.26	264.48
500.44	205.97
500.61	248.10
500.79	318.31
500.97	276.18
501.14	301.93
501.32	311.29
501.49	255.12
501.67	297.25
501.84	327.68
502.02	191.92
502.20	341.72
502.37	215.33
502.55	215.33
502.72	217.67
502.90	306.61
503.07	320.65
503.25	236.39
503.43	271.50
503.60	266.82
503.78	255.12
503.95	311.29
504.13	205.97
504.30	222.35
504.48	285.55
504.65	337.04
504.83	262.14
505.01	238.73
505.18	212.99
505.36	245.76
505.53	201.29
505.71	269.16
505.88	304.27
506.06	145.11
506.23	184.90
506.41	175.54
506.58	262.14
506.76	194.26
506.93	264.48
507.11	236.39
507.28	248.10
507.46	306.61
507.63	250.44
507.81	252.78
507.98	273.84
508.16	182.56
508.33	285.55
508.50	276.18
508.68	238.73
508.85	266.82
509.03	255.12
509.20	243.42
509.38	210.65
509.55	285.55
509.73	337.04
509.90	273.84
510.08	285.55
510.25	266.82
510.42	241.08
510.60	276.18
510.77	313.63
510.95	252.78
511.12	294.91
511.30	374.49
511.47	236.39
511.64	290.23
511.82	257.46
511.99	285.55
512.17	330.02
512.34	280.86
512.51	198.95
512.69	227.03
512.86	280.86
513.04	250.44
513.21	241.08
513.38	241.08
513.56	236.39
513.73	248.10
513.90	203.63
514.08	215.33
514.25	278.52
514.43	227.03
514.60	315.97
514.77	229.37
514.95	271.50
515.12	257.46
515.29	252.78
515.47	315.97
515.64	234.05
515.81	243.42
515.99	304.27
516.16	243.42
516.33	196.60
516.51	210.65
516.68	220.01
516.85	250.44
517.03	203.63
517.20	191.92
517.37	292.57
517.54	308.95
517.72	334.70
517.89	259.80
518.06	269.16
518.24	294.91
518.41	292.57
518.58	318.31
518.75	285.55
518.93	259.80
519.10	308.95
519.27	257.46
519.45	229.37
519.62	346.40
519.79	198.95
519.96	238.73
520.14	320.65
520.31	332.36
520.48	276.18
520.65	297.25
520.83	273.84
521.00	332.36
521.17	250.44
521.34	285.55
521.52	306.61
521.69	264.48
521.86	313.63
522.03	227.03
522.20	308.95
522.38	231.71
522.55	245.76
522.72	222.35
522.89	156.82
523.07	322.99
523.24	276.18
523.41	276.18
523.58	217.67
523.75	278.52
523.92	299.59
524.10	308.95
524.27	257.46
524.44	241.08
524.61	301.93
524.78	294.91
524.96	287.89
525.13	311.29
525.30	262.14
525.47	184.90
525.64	269.16
525.81	205.97
525.98	255.12
526.16	243.42
526.33	168.52
526.50	210.65
526.67	210.65
526.84	266.82
527.01	163.84
527.18	266.82
527.36	287.89
527.53	320.65
527.70	262.14
527.87	241.08
528.04	353.42
528.21	287.89
528.38	250.44
528.55	330.02
528.72	283.20
528.89	348.74
529.07	280.86
529.24	292.57
529.41	313.63
529.58	308.95
529.75	266.82
529.92	278.52
530.09	294.91
530.26	383.85
530.43	194.26
530.60	255.12
530.77	294.91
530.94	301.93
531.11	234.05
531.28	330.02
531.46	154.48
531.63	294.91
531.80	250.44
531.97	330.02
532.14	315.97
532.31	376.83
532.48	344.06
532.65	449.38
532.82	400.23
532.99	381.51
533.16	367.46
533.33	348.74
533.50	358.10
533.67	334.70
533.84	472.79
534.01	442.36
534.18	463.43
534.35	362.78
534.52	278.52
534.69	360.44
534.86	320.65
535.03	224.69
535.20	285.55
535.37	322.99
535.54	262.14
535.71	259.80
535.88	351.08
536.05	262.14
536.22	322.99
536.38	292.57
536.55	250.44
536.72	264.48
536.89	264.48
537.06	351.08
537.23	292.57
537.40	271.50
537.57	278.52
537.74	334.70
537.91	210.65
538.08	346.40
538.25	285.55
538.42	322.99
538.59	313.63
538.75	346.40
538.92	252.78
539.09	290.23
539.26	255.12
539.43	613.22
539.60	1165.59
539.77	1792.85
539.94	1849.02
540.11	1242.82
540.28	952.60
540.44	723.23
540.61	531.30
540.78	418.96
540.95	465.77
541.12	505.56
541.29	437.68
541.46	538.32
541.62	404.91
541.79	423.64
541.96	414.27
542.13	454.06
542.30	456.40
542.47	507.90
542.63	456.40
542.80	421.30
542.97	411.93
543.14	451.72
543.31	433.00
543.48	421.30
543.64	451.72
543.81	463.43
543.98	512.58
544.15	402.57
544.32	423.64
544.48	325.33
544.65	470.45
544.82	397.89
544.99	414.27
545.16	475.13
545.32	538.32
545.49	653.01
545.66	830.89
545.83	823.87
546.00	695.14
546.16	528.96
546.33	540.66
546.50	421.30
546.67	442.36
546.83	430.66
547.00	390.87
547.17	322.99
547.34	390.87
547.50	271.50
547.67	388.53
547.84	276.18
548.00	348.74
548.17	372.15
548.34	367.46
548.51	369.80
548.67	355.76
548.84	304.27
549.01	315.97
549.18	433.00
549.34	411.93
549.51	337.04
549.68	369.80
549.84	271.50
550.01	273.84
550.18	381.51
550.34	444.70
550.51	266.82
550.68	344.06
550.84	280.86
551.01	301.93
551.18	299.59
551.34	278.52
551.51	388.53
551.68	306.61
551.84	341.72
552.01	243.42
552.18	339.38
552.34	315.97
552.51	264.48
552.68	308.95
552.84	299.59
553.01	271.50
553.18	334.70
553.34	292.57
553.51	290.23
553.67	259.80
553.84	330.02
554.01	276.18
554.17	311.29
554.34	250.44
554.51	287.89
554.67	287.89
554.84	255.12
555.00	304.27
555.17	208.31
555.33	292.57
555.50	234.05
555.67	297.25
555.83	299.59
556.00	294.91
556.16	404.91
556.33	304.27
556.50	306.61
556.66	262.14
556.83	255.12
556.99	269.16
557.16	292.57
557.32	236.39
557.49	250.44
557.65	283.20
557.82	231.71
557.98	194.26
558.15	245.76
558.32	262.14
558.48	271.50
558.65	142.77
558.81	334.70
558.98	245.76
559.14	348.74
559.31	283.20
559.47	313.63
559.64	182.56
559.80	315.97
559.97	262.14
560.13	334.70
560.30	220.01
560.46	241.08
560.63	229.37
560.79	273.84
560.96	262.14
561.12	238.73
561.29	318.31
561.45	301.93
561.61	287.89
561.78	334.70
561.94	292.57
562.11	266.82
562.27	287.89
562.44	212.99
562.60	234.05
562.77	351.08
562.93	287.89
563.10	255.12
563.26	259.80
563.42	313.63
563.59	301.93
563.75	245.76
563.92	299.59
564.08	255.12
564.24	264.48
564.41	273.84
564.57	224.69
564.74	266.82
564.90	222.35
565.07	294.91
565.23	362.78
565.39	299.59
565.56	304.27
565.72	238.73
565.88	313.63
566.05	259.80
566.21	212.99
566.38	330.02
566.54	280.86
566.70	259.80
566.87	299.59
567.03	241.08
567.19	234.05
567.36	308.95
567.52	294.91
567.68	301.93
567.85	255.12
568.01	229.37
568.17	191.92
568.34	271.50
568.50	301.93
568.66	210.65
568.83	334.70
568.99	278.52
569.15	245.76
569.32	196.60
569.48	257.46
569.64	290.23
569.81	280.86
569.97	215.33
570.13	271.50
570.30	180.22
570.46	299.59
570.62	341.72
570.78	339.38
570.95	252.78
571.11	337.04
571.27	308.95
571.43	229.37
571.60	262.14
571.76	238.73
571.92	210.65
572.09	301.93
572.25	299.59
572.41	271.50
572.57	248.10
572.74	374.49
572.90	365.12
573.06	273.84
573.22	236.39
573.38	215.33
573.55	285.55
573.71	182.56
573.87	248.10
574.03	311.29
574.20	250.44
574.36	308.95
574.52	421.30
574.68	400.23
574.84	348.74
575.01	290.23
575.17	337.04
575.33	224.69
575.49	306.61
575.65	379.17
575.82	390.87
575.98	676.41
576.14	713.86
576.30	887.06
576.46	706.84
576.62	587.47
576.79	472.79
576.95	454.06
577.11	362.78
577.27	266.82
577.43	315.97
577.59	313.63
577.75	325.33
577.92	285.55
578.08	330.02
578.24	210.65
578.40	376.83
578.56	465.77
578.72	383.85
578.88	344.06
579.04	320.65
579.21	400.23
579.37	351.08
579.53	362.78
579.69	381.51
579.85	360.44
580.01	449.38
580.17	465.77
580.33	484.49
580.49	414.27
580.65	393.21
580.82	355.76
580.98	395.55
581.14	383.85
581.30	458.74
581.46	512.58
581.62	662.37
581.78	746.63
581.94	709.18
582.10	620.24
582.26	550.03
582.42	554.71
582.58	505.56
582.74	484.49
582.90	559.39
583.06	557.05
583.22	561.73
583.38	629.60
583.54	716.20
583.70	734.93
583.86	758.33
584.02	915.15
584.18	1184.31
584.34	1465.18
584.50	3424.20
584.66	24510.09
584.82	59210.87
584.98	65535.00
585.14	65535.00
585.30	58768.51
585.46	36105.10
585.62	22443.40
585.78	10333.47
585.94	4072.53
586.10	2017.54
586.26	1273.25
586.42	1001.75
586.58	847.27
586.74	725.57
586.90	784.08
587.06	706.84
587.22	767.70
587.38	695.14
587.54	1371.55
587.70	3833.80
587.86	6658.82
588.02	7719.09
588.18	5514.30
588.34	3489.74
588.49	2349.90
588.65	1385.60
588.81	718.54
588.97	589.82
589.13	489.17
589.29	416.62
589.45	409.59
589.61	376.83
589.77	500.87
589.93	566.41
590.08	557.05
590.24	503.22
590.40	557.05
590.56	543.00
590.72	524.28
590.88	468.11
591.04	435.34
591.20	503.22
591.35	393.21
591.51	362.78
591.67	376.83
591.83	425.98
591.99	322.99
592.15	472.79
592.31	428.32
592.46	428.32
592.62	379.17
592.78	367.46
592.94	421.30
593.10	463.43
593.26	374.49
593.41	440.02
593.57	477.47
593.73	660.03
593.89	2862.48
594.05	8163.79
594.20	13207.64
594.36	12704.43
594.52	8250.39
594.68	5158.54
594.84	3508.46
594.99	1863.07
595.15	919.83
595.31	615.56
595.47	491.51
595.62	416.62
595.78	337.04
595.94	374.49
596.10	416.62
596.25	475.13
596.41	433.00
596.57	381.51
596.73	416.62
596.88	599.18
597.04	1619.65
597.20	2649.49
597.36	3356.33
597.51	2457.56
597.67	1617.31
597.83	1184.31
597.99	861.32
598.14	582.79
598.30	447.04
598.46	395.55
598.61	409.59
598.77	381.51
598.93	339.38
599.09	339.38
599.24	435.34
599.40	369.80
599.56	327.68
599.71	337.04
599.87	353.42
600.03	285.55
600.18	294.91
600.34	327.68
600.50	346.40
600.65	290.23
600.81	376.83
600.97	269.16
601.12	278.52
601.28	400.23
601.44	306.61
601.59	339.38
601.75	278.52
601.91	318.31
602.06	304.27
602.22	348.74
602.37	863.66
602.53	1963.71
602.69	3007.59
602.84	3440.59
603.00	2403.73
603.16	1743.70
603.31	1177.29
603.47	685.78
603.62	465.77
603.78	372.15
603.94	428.32
604.09	365.12
604.25	355.76
604.40	322.99
604.56	315.97
604.71	299.59
604.87	252.78
605.03	327.68
605.18	287.89
605.34	337.04
605.49	322.99
605.65	313.63
605.80	308.95
605.96	358.10
606.12	402.57
606.27	383.85
606.43	440.02
606.58	486.83
606.74	901.11
606.89	3637.19
607.05	7920.37
607.20	11066.05
607.36	9153.84
607.51	6366.26
607.67	4009.34
607.82	2654.17
607.98	1502.62
608.13	781.74
608.29	559.39
608.44	521.94
608.60	524.28
608.75	578.11
608.91	1320.06
609.06	5598.56
609.22	13319.99
609.37	19758.80
609.53	17097.61
609.68	11316.49
609.84	7353.96
609.99	4919.81
610.15	2825.03
610.30	1411.34
610.46	931.53
610.61	887.06
610.76	926.85
610.92	1011.11
611.07	898.77
611.23	983.02
611.38	940.90
611.54	880.04
611.69	725.57
611.84	702.16
612.00	606.20
612.15	617.90
612.31	645.99
612.46	863.66
612.62	1022.81
612.77	971.32
612.92	854.30
613.08	847.27
613.23	821.53
613.39	727.91
613.54	1013.45
613.69	4997.04
613.85	15763.51
614.00	27393.63
614.15	30651.66
614.31	21443.99
614.46	14001.08
614.62	9425.34
614.77	5561.11
614.92	2766.51
615.08	1273.25
615.23	784.08
615.38	685.78
615.54	624.92
615.69	1022.81
615.84	3082.49
616.00	6160.29
616.15	7791.64
616.30	6555.84
616.46	4519.57
616.61	3122.27
616.76	2083.08
616.92	1172.61
617.07	676.41
617.22	468.11
617.37	346.40
617.53	344.06
617.68	397.89
617.83	367.46
617.99	414.27
618.14	386.19
618.29	379.17
618.45	397.89
618.60	346.40
618.75	318.31
618.90	341.72
619.06	313.63
619.21	397.89
619.36	369.80
619.51	285.55
619.67	245.76
619.82	255.12
619.97	311.29
620.12	283.20
620.28	348.74
620.43	341.72
620.58	372.15
620.73	425.98
620.89	346.40
621.04	531.30
621.19	1689.87
621.34	3454.63
621.49	4807.46
621.65	4292.54
621.80	3087.17
621.95	2108.82
622.10	1481.56
622.25	945.58
622.41	550.03
622.56	369.80
622.71	407.25
622.86	351.08
623.01	358.10
623.16	341.72
623.32	376.83
623.47	320.65
623.62	313.63
623.77	308.95
623.92	278.52
624.07	355.76
624.23	311.29
624.38	358.10
624.53	358.10
624.68	327.68
624.83	400.23
624.98	313.63
625.13	208.31
625.29	325.33
625.44	360.44
625.59	397.89
625.74	486.83
625.89	613.22
626.04	2483.31
626.19	7899.31
626.34	13898.10
626.49	16334.60
626.65	12180.15
626.80	7913.35
626.95	5238.12
627.10	3272.07
627.25	1636.03
627.40	800.46
627.55	613.22
627.70	514.92
627.85	411.93
628.00	451.72
628.15	376.83
628.30	315.97
628.45	334.70
628.60	351.08
628.76	360.44
628.91	255.12
629.06	332.36
629.21	393.21
629.36	344.06
629.51	311.29
629.66	416.62
629.81	416.62
629.96	1441.77
630.11	3009.93
630.26	4056.15
630.41	3562.30
630.56	2658.85
630.71	1916.90
630.86	1310.70
631.01	814.51
631.16	580.45
631.31	449.38
631.46	390.87
631.61	325.33
631.76	355.76
631.91	287.89
632.06	365.12
632.21	283.20
632.36	442.36
632.51	407.25
632.66	484.49
632.81	1268.57
632.96	4367.44
633.10	8339.33
633.25	10747.74
633.40	9135.11
633.55	6113.48
633.70	4021.04
633.85	2724.38
634.00	1458.15
634.15	741.95
634.30	599.18
634.45	456.40
634.60	376.83
634.75	313.63
634.90	278.52
635.05	346.40
635.19	257.46
635.34	264.48
635.49	313.63
635.64	264.48
635.79	325.33
635.94	252.78
636.09	313.63
636.24	299.59
636.39	383.85
636.53	358.10
636.68	322.99
636.83	390.87
636.98	400.23
637.13	372.15
637.28	458.74
637.43	463.43
637.57	744.29
637.72	3384.41
637.87	10207.08
638.02	17383.16
638.17	20231.59
638.32	15103.48
638.46	9909.83
638.61	6911.60
638.76	4147.43
638.91	2108.82
639.06	1071.97
639.20	828.55
639.35	688.12
639.50	1081.33
639.65	4774.69
639.80	14967.73
639.94	26054.84
640.09	30054.82
640.24	22139.13
640.39	14626.01
640.54	9902.81
640.68	6054.97
640.83	2902.26
640.98	1385.60
641.13	823.87
641.27	557.05
641.42	458.74
641.57	416.62
641.72	395.55
641.86	348.74
642.01	330.02
642.16	313.63
642.31	344.06
642.45	358.10
642.60	301.93
642.75	229.37
642.90	308.95
643.04	212.99
643.19	287.89
643.34	292.57
643.48	320.65
643.63	271.50
643.78	292.57
643.93	248.10
644.07	266.82
644.22	278.52
644.37	224.69
644.51	313.63
644.66	234.05
644.81	215.33
644.95	283.20
645.10	189.58
645.25	236.39
645.39	236.39
645.54	283.20
645.69	330.02
645.83	243.42
645.98	252.78
646.13	264.48
646.27	229.37
646.42	191.92
646.57	212.99
646.71	280.86
646.86	255.12
647.00	257.46
647.15	241.08
647.30	227.03
647.44	264.48
647.59	294.91
647.74	173.20
647.88	119.37
648.03	208.31
648.17	234.05
648.32	224.69
648.47	257.46
648.61	262.14
648.76	257.46
648.90	212.99
649.05	220.01
649.20	189.58
649.34	273.84
649.49	334.70
649.63	407.25
649.78	379.17
649.92	566.41
650.07	1966.05
650.21	6689.25
650.36	12676.34
650.51	16149.70
650.65	13327.01
650.80	9366.82
650.94	6228.17
651.09	3840.82
651.23	2031.58
651.38	1071.97
651.52	613.22
651.67	470.45
651.81	381.51
651.96	341.72
652.10	351.08
652.25	358.10
652.39	337.04
652.54	339.38
652.68	674.07
652.83	2052.65
652.97	4269.14
653.12	5825.59
653.26	5146.84
653.41	3761.24
653.55	2616.72
653.70	1584.54
653.84	973.66
653.99	559.39
654.13	367.46
654.27	397.89
654.42	248.10
654.56	227.03
654.71	262.14
654.85	287.89
655.00	238.73
655.14	180.22
655.29	212.99
655.43	248.10
655.57	201.29
655.72	173.20
655.86	250.44
656.01	250.44
656.15	224.69
656.30	301.93
656.44	243.42
656.58	229.37
656.73	194.26
656.87	215.33
657.01	203.63
657.16	215.33
657.30	208.31
657.45	287.89
657.59	245.76
657.73	220.01
657.88	222.35
658.02	283.20
658.16	227.03
658.31	220.01
658.45	262.14
658.60	203.63
658.74	273.84
658.88	266.82
659.03	290.23
659.17	379.17
659.31	903.45
659.46	2981.84
659.60	5863.04
659.74	7960.16
659.89	6874.15
660.03	4931.51
660.17	3487.40
660.32	2155.63
660.46	1254.53
660.60	798.12
660.74	517.26
660.89	358.10
661.03	304.27
661.17	257.46
661.32	264.48
661.46	271.50
661.60	248.10
661.74	294.91
661.89	259.80
662.03	248.10
662.17	140.43
662.31	234.05
662.46	264.48
662.60	198.95
662.74	276.18
662.88	294.91
663.03	250.44
663.17	236.39
663.31	285.55
663.45	168.52
663.60	208.31
663.74	203.63
663.88	159.16
664.02	208.31
664.17	198.95
664.31	173.20
664.45	229.37
664.59	306.61
664.73	266.82
664.88	262.14
665.02	234.05
665.16	278.52
665.30	337.04
665.44	229.37
665.59	285.55
665.73	243.42
665.87	210.65
666.01	304.27
666.15	196.60
666.29	257.46
666.44	348.74
666.58	304.27
666.72	273.84
666.86	341.72
667.00	339.38
667.14	479.81
667.28	1849.02
667.43	5865.38
667.57	10815.62
667.71	14120.45
667.85	12222.28
667.99	9060.21
668.13	5621.97
668.27	3344.63
668.41	1849.02
668.56	1055.58
668.70	697.48
668.84	477.47
668.98	320.65
669.12	339.38
669.26	325.33
669.40	327.68
669.54	285.55
669.68	241.08
669.82	264.48
669.96	266.82
670.10	203.63
670.25	297.25
670.39	252.78
670.53	241.08
670.67	299.59
670.81	210.65
670.95	315.97
671.09	585.13
671.23	2139.25
671.37	5121.09
671.51	7894.63
671.65	8781.69
671.79	6801.60
671.93	4755.97
672.07	2951.42
672.21	1591.56
672.35	938.55
672.49	512.58
672.63	442.36
672.77	372.15
672.91	227.03
673.05	175.54
673.19	145.11
673.33	301.93
673.47	248.10
673.61	198.95
673.75	273.84
673.89	205.97
674.03	177.88
674.17	236.39
674.31	234.05
674.45	154.48
674.59	187.24
674.73	208.31
674.87	222.35
675.01	250.44
675.15	290.23
675.29	255.12
675.43	332.36
675.56	374.49
675.70	266.82
675.84	203.63
675.98	208.31
676.12	191.92
676.26	215.33
676.40	210.65
676.54	175.54
676.68	180.22
676.82	264.48
676.96	210.65
677.10	203.63
677.23	184.90
677.37	161.50
677.51	234.05
677.65	201.29
677.79	187.24
677.93	231.71
678.07	234.05
678.21	189.58
678.34	222.35
678.48	191.92
678.62	250.44
678.76	182.56
678.90	222.35
679.04	231.71
679.18	224.69
679.31	220.01
679.45	135.75
679.59	236.39
679.73	220.01
679.87	191.92
680.00	138.09
680.14	187.24
680.28	168.52
680.42	170.86
680.56	173.20
680.70	175.54
680.83	184.90
680.97	177.88
681.11	224.69
681.25	215.33
681.39	173.20
681.52	126.39
681.66	168.52
681.80	210.65
681.94	149.79
682.07	180.22
682.21	149.79
682.35	187.24
682.49	203.63
682.62	215.33
682.76	191.92
682.90	236.39
683.04	245.76
683.17	194.26
683.31	231.71
683.45	142.77
683.59	252.78
683.72	205.97
683.86	114.69
684.00	210.65
684.13	205.97
684.27	201.29
684.41	252.78
684.55	257.46
684.68	227.03
684.82	131.07
684.96	203.63
685.09	187.24
685.23	198.95
685.37	173.20
685.50	236.39
685.64	121.71
685.78	145.11
685.91	234.05
686.05	173.20
686.19	198.95
686.32	161.50
686.46	173.20
686.60	212.99
686.73	280.86
686.87	175.54
687.01	306.61
687.14	128.73
687.28	283.20
687.42	262.14
687.55	161.50
687.69	285.55
687.82	217.67
687.96	175.54
688.10	187.24
688.23	224.69
688.37	208.31
688.50	222.35
688.64	201.29
688.78	250.44
688.91	121.71
689.05	145.11
689.18	184.90
689.32	180.22
689.46	166.18
689.59	250.44
689.73	217.67
689.86	184.90
690.00	161.50
690.13	161.50
690.27	152.13
690.41	231.71
690.54	168.52
690.68	191.92
690.81	194.26
690.95	222.35
691.08	210.65
691.22	241.08
691.35	124.05
691.49	145.11
691.62	201.29
691.76	147.45
691.89	215.33
692.03	168.52
692.16	224.69
692.30	285.55
692.43	753.65
692.57	2490.33
692.70	4615.54
692.84	6282.00
692.97	5692.18
693.11	4119.34
693.24	3033.33
693.38	2040.95
693.51	1437.09
693.65	929.19
693.78	608.54
693.92	386.19
694.05	390.87
694.19	229.37
694.32	250.44
694.45	161.50
694.59	175.54
694.72	205.97
694.86	205.97
694.99	290.23
695.13	166.18
695.26	124.05
695.39	198.95
695.53	205.97
695.66	170.86
695.80	217.67
695.93	208.31
696.07	287.89
696.20	358.10
696.33	344.06
696.47	533.64
696.60	468.11
696.73	365.12
696.87	241.08
697.00	311.29
697.14	280.86
697.27	276.18
697.40	212.99
697.54	114.69
697.67	248.10
697.80	217.67
697.94	168.52
698.07	238.73
698.21	180.22
698.34	142.77
698.47	205.97
698.61	98.30
698.74	138.09
698.87	170.86
699.01	173.20
699.14	154.48
699.27	194.26
699.40	330.02
699.54	126.39
699.67	198.95
699.80	145.11
699.94	269.16
700.07	135.75
700.20	142.77
700.34	177.88
700.47	163.84
700.60	147.45
700.73	163.84
700.87	163.84
701.00	147.45
701.13	238.73
701.26	196.60
701.40	203.63
701.53	163.84
701.66	245.76
701.79	191.92
701.93	210.65
702.06	362.78
702.19	418.96
702.32	641.31
702.46	620.24
702.59	535.98
702.72	936.21
702.85	3152.70
702.99	7239.28
703.12	10794.55
703.25	12374.41
703.38	10373.25
703.51	8372.10
703.65	6457.54
703.78	4461.06
703.91	2932.69
704.04	1888.81
704.17	1144.52
704.31	720.88
704.44	521.94
704.57	367.46
704.70	297.25
704.83	273.84
704.96	217.67
705.10	255.12
705.23	259.80
>>>>>End Processed Spectral Data<<<<<
