SpectraSuite Data File
++++++++++++++++++++++++++++++++++++
Date: Fri Oct 04 11:33:46 GMT-05:00 2013
User: price-jones
Dark Spectrum Present: No
Reference Spectrum Present: No
Number of Sampled Component Spectra: 1
Spectrometers: USB2+H05261
Integration Time (usec): 100000 (USB2+H05261)
Spectra Averaged: 1 (USB2+H05261)
Boxcar Smoothing: 0 (USB2+H05261)
Correct for Electrical Dark: No (USB2+H05261)
Strobe/Lamp Enabled: No (USB2+H05261)
Correct for Detector Non-linearity: No (USB2+H05261)
Correct for Stray Light: No (USB2+H05261)
Number of Pixels in Processed Spectrum: 2048
>>>>>Begin Processed Spectral Data<<<<<
365.73	63.19
365.92	63.19
366.12	63.19
366.32	0.00
366.52	0.00
366.72	0.00
366.91	0.00
367.11	0.00
367.31	0.00
367.51	0.00
367.70	0.00
367.90	0.00
368.10	0.00
368.30	0.00
368.49	32.77
368.69	49.15
368.89	2.34
369.09	0.00
369.28	0.00
369.48	0.00
369.68	0.00
369.87	35.11
370.07	0.00
370.27	60.85
370.47	11.70
370.66	46.81
370.86	49.15
371.06	138.09
371.25	208.31
371.45	56.17
371.65	135.75
371.84	67.88
372.04	88.94
372.24	161.50
372.44	163.84
372.63	93.62
372.83	152.13
373.03	86.60
373.22	88.94
373.42	154.48
373.62	187.24
373.81	187.24
374.01	184.90
374.21	177.88
374.40	166.18
374.60	159.16
374.79	180.22
374.99	161.50
375.19	196.60
375.38	243.42
375.58	196.60
375.78	170.86
375.97	149.79
376.17	145.11
376.37	77.24
376.56	149.79
376.76	145.11
376.95	100.64
377.15	131.07
377.35	166.18
377.54	152.13
377.74	84.26
377.93	180.22
378.13	196.60
378.33	166.18
378.52	128.73
378.72	168.52
378.91	198.95
379.11	142.77
379.31	107.66
379.50	173.20
379.70	191.92
379.89	203.63
380.09	117.03
380.28	133.41
380.48	86.60
380.68	93.62
380.87	70.22
381.07	138.09
381.26	126.39
381.46	208.31
381.65	161.50
381.85	236.39
382.04	119.37
382.24	145.11
382.43	177.88
382.63	180.22
382.83	156.82
383.02	121.71
383.22	152.13
383.41	112.35
383.61	128.73
383.80	205.97
384.00	77.24
384.19	117.03
384.39	110.01
384.58	133.41
384.78	121.71
384.97	168.52
385.17	114.69
385.36	187.24
385.56	194.26
385.75	142.77
385.95	131.07
386.14	135.75
386.34	194.26
386.53	114.69
386.72	100.64
386.92	177.88
387.11	152.13
387.31	201.29
387.50	173.20
387.70	152.13
387.89	128.73
388.09	145.11
388.28	140.43
388.48	119.37
388.67	105.32
388.86	168.52
389.06	161.50
389.25	163.84
389.45	177.88
389.64	184.90
389.84	198.95
390.03	102.98
390.22	140.43
390.42	159.16
390.61	119.37
390.81	121.71
391.00	175.54
391.19	205.97
391.39	156.82
391.58	121.71
391.78	168.52
391.97	184.90
392.16	147.45
392.36	95.96
392.55	236.39
392.75	184.90
392.94	180.22
393.13	229.37
393.33	128.73
393.52	187.24
393.71	142.77
393.91	163.84
394.10	133.41
394.29	126.39
394.49	161.50
394.68	180.22
394.88	196.60
395.07	175.54
395.26	163.84
395.46	51.49
395.65	177.88
395.84	110.01
396.04	252.78
396.23	149.79
396.42	227.03
396.62	194.26
396.81	98.30
397.00	110.01
397.19	133.41
397.39	131.07
397.58	196.60
397.77	121.71
397.97	81.92
398.16	145.11
398.35	135.75
398.55	168.52
398.74	154.48
398.93	156.82
399.12	112.35
399.32	131.07
399.51	142.77
399.70	208.31
399.90	184.90
400.09	149.79
400.28	196.60
400.47	175.54
400.67	189.58
400.86	65.54
401.05	135.75
401.24	250.44
401.44	212.99
401.63	163.84
401.82	133.41
402.01	91.28
402.21	107.66
402.40	180.22
402.59	168.52
402.78	119.37
402.97	170.86
403.17	168.52
403.36	201.29
403.55	194.26
403.74	126.39
403.93	107.66
404.13	198.95
404.32	250.44
404.51	238.73
404.70	180.22
404.89	215.33
405.09	173.20
405.28	189.58
405.47	166.18
405.66	168.52
405.85	203.63
406.05	231.71
406.24	182.56
406.43	121.71
406.62	203.63
406.81	184.90
407.00	220.01
407.20	154.48
407.39	203.63
407.58	170.86
407.77	203.63
407.96	140.43
408.15	161.50
408.34	159.16
408.54	149.79
408.73	156.82
408.92	159.16
409.11	203.63
409.30	259.80
409.49	135.75
409.68	98.30
409.87	182.56
410.07	133.41
410.26	245.76
410.45	175.54
410.64	182.56
410.83	159.16
411.02	142.77
411.21	283.20
411.40	161.50
411.59	184.90
411.78	142.77
411.98	147.45
412.17	100.64
412.36	154.48
412.55	194.26
412.74	159.16
412.93	222.35
413.12	133.41
413.31	133.41
413.50	161.50
413.69	124.05
413.88	142.77
414.07	205.97
414.26	227.03
414.45	196.60
414.64	196.60
414.83	210.65
415.02	121.71
415.22	145.11
415.41	236.39
415.60	175.54
415.79	117.03
415.98	198.95
416.17	112.35
416.36	159.16
416.55	163.84
416.74	201.29
416.93	184.90
417.12	236.39
417.31	166.18
417.50	159.16
417.69	182.56
417.88	198.95
418.07	161.50
418.26	149.79
418.45	201.29
418.64	208.31
418.83	187.24
419.02	170.86
419.21	149.79
419.39	187.24
419.58	154.48
419.77	227.03
419.96	184.90
420.15	177.88
420.34	180.22
420.53	166.18
420.72	175.54
420.91	159.16
421.10	198.95
421.29	131.07
421.48	208.31
421.67	203.63
421.86	135.75
422.05	210.65
422.24	234.05
422.43	149.79
422.61	149.79
422.80	205.97
422.99	131.07
423.18	175.54
423.37	224.69
423.56	203.63
423.75	245.76
423.94	173.20
424.13	205.97
424.32	166.18
424.50	175.54
424.69	194.26
424.88	184.90
425.07	145.11
425.26	201.29
425.45	177.88
425.64	184.90
425.83	227.03
426.01	187.24
426.20	147.45
426.39	227.03
426.58	217.67
426.77	135.75
426.96	215.33
427.15	196.60
427.33	184.90
427.52	203.63
427.71	173.20
427.90	149.79
428.09	196.60
428.28	191.92
428.46	161.50
428.65	262.14
428.84	128.73
429.03	203.63
429.22	191.92
429.40	145.11
429.59	138.09
429.78	170.86
429.97	194.26
430.16	163.84
430.34	147.45
430.53	135.75
430.72	170.86
430.91	259.80
431.10	149.79
431.28	154.48
431.47	248.10
431.66	210.65
431.85	208.31
432.03	147.45
432.22	257.46
432.41	168.52
432.60	168.52
432.79	147.45
432.97	264.48
433.16	283.20
433.35	168.52
433.54	191.92
433.72	201.29
433.91	222.35
434.10	248.10
434.28	222.35
434.47	149.79
434.66	145.11
434.85	210.65
435.03	252.78
435.22	344.06
435.41	514.92
435.59	372.15
435.78	306.61
435.97	212.99
436.16	243.42
436.34	241.08
436.53	189.58
436.72	215.33
436.90	177.88
437.09	217.67
437.28	189.58
437.46	203.63
437.65	168.52
437.84	184.90
438.02	184.90
438.21	220.01
438.40	117.03
438.58	168.52
438.77	215.33
438.96	210.65
439.14	224.69
439.33	220.01
439.52	257.46
439.70	173.20
439.89	187.24
440.08	175.54
440.26	236.39
440.45	245.76
440.63	198.95
440.82	154.48
441.01	210.65
441.19	243.42
441.38	163.84
441.57	271.50
441.75	245.76
441.94	210.65
442.12	234.05
442.31	189.58
442.50	231.71
442.68	262.14
442.87	156.82
443.05	168.52
443.24	243.42
443.43	212.99
443.61	210.65
443.80	238.73
443.98	194.26
444.17	180.22
444.35	161.50
444.54	163.84
444.73	119.37
444.91	175.54
445.10	264.48
445.28	154.48
445.47	262.14
445.65	252.78
445.84	182.56
446.02	201.29
446.21	224.69
446.39	203.63
446.58	149.79
446.77	189.58
446.95	231.71
447.14	229.37
447.32	287.89
447.51	227.03
447.69	170.86
447.88	259.80
448.06	201.29
448.25	252.78
448.43	241.08
448.62	250.44
448.80	173.20
448.99	250.44
449.17	138.09
449.36	198.95
449.54	269.16
449.73	156.82
449.91	292.57
450.10	194.26
450.28	255.12
450.46	257.46
450.65	210.65
450.83	189.58
451.02	212.99
451.20	250.44
451.39	217.67
451.57	180.22
451.76	191.92
451.94	173.20
452.13	215.33
452.31	145.11
452.49	194.26
452.68	194.26
452.86	283.20
453.05	203.63
453.23	201.29
453.42	217.67
453.60	135.75
453.78	196.60
453.97	215.33
454.15	131.07
454.34	166.18
454.52	156.82
454.70	175.54
454.89	241.08
455.07	222.35
455.26	145.11
455.44	187.24
455.62	245.76
455.81	208.31
455.99	152.13
456.17	196.60
456.36	238.73
456.54	189.58
456.73	210.65
456.91	201.29
457.09	159.16
457.28	257.46
457.46	184.90
457.64	166.18
457.83	238.73
458.01	184.90
458.19	234.05
458.38	149.79
458.56	280.86
458.74	217.67
458.93	191.92
459.11	276.18
459.29	191.92
459.48	191.92
459.66	292.57
459.84	154.48
460.03	327.68
460.21	234.05
460.39	262.14
460.57	203.63
460.76	276.18
460.94	224.69
461.12	149.79
461.31	191.92
461.49	198.95
461.67	184.90
461.85	210.65
462.04	187.24
462.22	631.94
462.40	259.80
462.59	259.80
462.77	182.56
462.95	175.54
463.13	215.33
463.32	198.95
463.50	201.29
463.68	161.50
463.86	149.79
464.05	196.60
464.23	294.91
464.41	227.03
464.59	184.90
464.78	210.65
464.96	217.67
465.14	133.41
465.32	191.92
465.50	166.18
465.69	189.58
465.87	177.88
466.05	168.52
466.23	91.28
466.41	173.20
466.60	177.88
466.78	166.18
466.96	287.89
467.14	161.50
467.32	168.52
467.51	208.31
467.69	208.31
467.87	210.65
468.05	269.16
468.23	140.43
468.41	212.99
468.60	208.31
468.78	283.20
468.96	304.27
469.14	147.45
469.32	208.31
469.50	234.05
469.69	107.66
469.87	175.54
470.05	203.63
470.23	217.67
470.41	222.35
470.59	252.78
470.77	248.10
470.95	224.69
471.14	177.88
471.32	217.67
471.50	166.18
471.68	173.20
471.86	283.20
472.04	184.90
472.22	196.60
472.40	245.76
472.58	166.18
472.77	227.03
472.95	147.45
473.13	220.01
473.31	257.46
473.49	182.56
473.67	184.90
473.85	210.65
474.03	220.01
474.21	124.05
474.39	234.05
474.57	217.67
474.75	245.76
474.93	208.31
475.12	124.05
475.30	236.39
475.48	276.18
475.66	201.29
475.84	280.86
476.02	234.05
476.20	278.52
476.38	161.50
476.56	304.27
476.74	180.22
476.92	168.52
477.10	205.97
477.28	217.67
477.46	203.63
477.64	187.24
477.82	217.67
478.00	194.26
478.18	184.90
478.36	156.82
478.54	161.50
478.72	208.31
478.90	273.84
479.08	224.69
479.26	259.80
479.44	194.26
479.62	205.97
479.80	236.39
479.98	231.71
480.16	191.92
480.34	252.78
480.52	196.60
480.70	205.97
480.88	238.73
481.06	276.18
481.24	205.97
481.41	217.67
481.59	166.18
481.77	231.71
481.95	173.20
482.13	271.50
482.31	236.39
482.49	194.26
482.67	271.50
482.85	224.69
483.03	236.39
483.21	217.67
483.39	269.16
483.57	201.29
483.74	229.37
483.92	271.50
484.10	290.23
484.28	245.76
484.46	334.70
484.64	196.60
484.82	189.58
485.00	262.14
485.18	301.93
485.35	292.57
485.53	238.73
485.71	276.18
485.89	159.16
486.07	194.26
486.25	301.93
486.43	252.78
486.61	210.65
486.78	238.73
486.96	262.14
487.14	311.29
487.32	280.86
487.50	269.16
487.68	278.52
487.85	301.93
488.03	330.02
488.21	292.57
488.39	297.25
488.57	287.89
488.75	311.29
488.92	503.22
489.10	234.05
489.28	297.25
489.46	194.26
489.64	205.97
489.81	278.52
489.99	252.78
490.17	238.73
490.35	287.89
490.53	283.20
490.70	236.39
490.88	297.25
491.06	273.84
491.24	269.16
491.41	248.10
491.59	205.97
491.77	264.48
491.95	194.26
492.13	231.71
492.30	231.71
492.48	236.39
492.66	287.89
492.84	287.89
493.01	257.46
493.19	259.80
493.37	266.82
493.54	297.25
493.72	236.39
493.90	220.01
494.08	278.52
494.25	250.44
494.43	212.99
494.61	311.29
494.79	201.29
494.96	304.27
495.14	224.69
495.32	292.57
495.49	248.10
495.67	292.57
495.85	250.44
496.02	285.55
496.20	311.29
496.38	299.59
496.55	280.86
496.73	241.08
496.91	184.90
497.09	283.20
497.26	353.42
497.44	255.12
497.62	304.27
497.79	224.69
497.97	318.31
498.14	332.36
498.32	320.65
498.50	283.20
498.67	215.33
498.85	306.61
499.03	262.14
499.20	238.73
499.38	301.93
499.56	245.76
499.73	327.68
499.91	322.99
500.08	374.49
500.26	325.33
500.44	290.23
500.61	290.23
500.79	241.08
500.97	301.93
501.14	280.86
501.32	238.73
501.49	266.82
501.67	313.63
501.84	285.55
502.02	212.99
502.20	287.89
502.37	292.57
502.55	229.37
502.72	294.91
502.90	304.27
503.07	243.42
503.25	327.68
503.43	231.71
503.60	308.95
503.78	269.16
503.95	280.86
504.13	252.78
504.30	315.97
504.48	320.65
504.65	257.46
504.83	269.16
505.01	283.20
505.18	315.97
505.36	280.86
505.53	250.44
505.71	203.63
505.88	330.02
506.06	315.97
506.23	299.59
506.41	236.39
506.58	297.25
506.76	257.46
506.93	245.76
507.11	250.44
507.28	222.35
507.46	210.65
507.63	175.54
507.81	332.36
507.98	311.29
508.16	264.48
508.33	229.37
508.50	327.68
508.68	269.16
508.85	266.82
509.03	276.18
509.20	201.29
509.38	292.57
509.55	301.93
509.73	304.27
509.90	332.36
510.08	341.72
510.25	332.36
510.42	285.55
510.60	318.31
510.77	362.78
510.95	322.99
511.12	287.89
511.30	351.08
511.47	280.86
511.64	332.36
511.82	264.48
511.99	266.82
512.17	238.73
512.34	348.74
512.51	238.73
512.69	299.59
512.86	294.91
513.04	227.03
513.21	250.44
513.38	290.23
513.56	259.80
513.73	285.55
513.90	297.25
514.08	255.12
514.25	313.63
514.43	346.40
514.60	330.02
514.77	266.82
514.95	339.38
515.12	215.33
515.29	241.08
515.47	334.70
515.64	351.08
515.81	262.14
515.99	259.80
516.16	379.17
516.33	306.61
516.51	276.18
516.68	278.52
516.85	227.03
517.03	168.52
517.20	320.65
517.37	271.50
517.54	220.01
517.72	248.10
517.89	299.59
518.06	248.10
518.24	386.19
518.41	341.72
518.58	339.38
518.75	252.78
518.93	271.50
519.10	269.16
519.27	271.50
519.45	360.44
519.62	367.46
519.79	255.12
519.96	283.20
520.14	320.65
520.31	264.48
520.48	304.27
520.65	292.57
520.83	241.08
521.00	290.23
521.17	332.36
521.34	287.89
521.52	287.89
521.69	262.14
521.86	278.52
522.03	330.02
522.20	285.55
522.38	304.27
522.55	322.99
522.72	255.12
522.89	234.05
523.07	306.61
523.24	374.49
523.41	273.84
523.58	271.50
523.75	374.49
523.92	264.48
524.10	304.27
524.27	262.14
524.44	386.19
524.61	313.63
524.78	243.42
524.96	315.97
525.13	346.40
525.30	320.65
525.47	400.23
525.64	234.05
525.81	351.08
525.98	315.97
526.16	337.04
526.33	234.05
526.50	271.50
526.67	184.90
526.84	355.76
527.01	273.84
527.18	348.74
527.36	341.72
527.53	283.20
527.70	341.72
527.87	280.86
528.04	327.68
528.21	304.27
528.38	365.12
528.55	348.74
528.72	330.02
528.89	320.65
529.07	346.40
529.24	414.27
529.41	346.40
529.58	290.23
529.75	273.84
529.92	355.76
530.09	280.86
530.26	362.78
530.43	379.17
530.60	299.59
530.77	287.89
530.94	430.66
531.11	313.63
531.28	264.48
531.46	334.70
531.63	332.36
531.80	264.48
531.97	301.93
532.14	372.15
532.31	337.04
532.48	306.61
532.65	374.49
532.82	301.93
532.99	353.42
533.16	334.70
533.33	273.84
533.50	301.93
533.67	362.78
533.84	334.70
534.01	355.76
534.18	362.78
534.35	409.59
534.52	365.12
534.69	365.12
534.86	301.93
535.03	308.95
535.20	315.97
535.37	440.02
535.54	330.02
535.71	299.59
535.88	297.25
536.05	348.74
536.22	365.12
536.38	327.68
536.55	330.02
536.72	332.36
536.89	351.08
537.06	318.31
537.23	292.57
537.40	367.46
537.57	315.97
537.74	379.17
537.91	351.08
538.08	334.70
538.25	346.40
538.42	308.95
538.59	327.68
538.75	332.36
538.92	337.04
539.09	437.68
539.26	351.08
539.43	341.72
539.60	486.83
539.77	517.26
539.94	627.26
540.11	503.22
540.28	475.13
540.44	524.28
540.61	477.47
540.78	454.06
540.95	510.24
541.12	582.79
541.29	578.11
541.46	671.73
541.62	596.84
541.79	599.18
541.96	559.39
542.13	613.22
542.30	521.94
542.47	500.87
542.63	592.16
542.80	430.66
542.97	634.29
543.14	503.22
543.31	540.66
543.48	552.37
543.64	519.60
543.81	489.17
543.98	505.56
544.15	521.94
544.32	500.87
544.48	580.45
544.65	454.06
544.82	510.24
544.99	512.58
545.16	430.66
545.32	517.26
545.49	772.38
545.66	1001.75
545.83	1025.15
546.00	894.08
546.16	690.46
546.33	587.47
546.50	540.66
546.67	496.19
546.83	493.85
547.00	484.49
547.17	491.51
547.34	402.57
547.50	327.68
547.67	407.25
547.84	383.85
548.00	484.49
548.17	447.04
548.34	440.02
548.51	470.45
548.67	479.81
548.84	437.68
549.01	360.44
549.18	388.53
549.34	421.30
549.51	379.17
549.68	383.85
549.84	456.40
550.01	276.18
550.18	510.24
550.34	414.27
550.51	393.21
550.68	458.74
550.84	390.87
551.01	351.08
551.18	348.74
551.34	348.74
551.51	330.02
551.68	351.08
551.84	299.59
552.01	360.44
552.18	372.15
552.34	313.63
552.51	313.63
552.68	353.42
552.84	341.72
553.01	311.29
553.18	369.80
553.34	353.42
553.51	294.91
553.67	383.85
553.84	400.23
554.01	269.16
554.17	339.38
554.34	367.46
554.51	339.38
554.67	301.93
554.84	397.89
555.00	344.06
555.17	290.23
555.33	358.10
555.50	351.08
555.67	341.72
555.83	355.76
556.00	346.40
556.16	456.40
556.33	358.10
556.50	304.27
556.66	245.76
556.83	320.65
556.99	397.89
557.16	332.36
557.32	308.95
557.49	348.74
557.65	299.59
557.82	255.12
557.98	318.31
558.15	358.10
558.32	315.97
558.48	290.23
558.65	248.10
558.81	290.23
558.98	308.95
559.14	369.80
559.31	341.72
559.47	194.26
559.64	304.27
559.80	322.99
559.97	294.91
560.13	238.73
560.30	320.65
560.46	248.10
560.63	376.83
560.79	306.61
560.96	353.42
561.12	231.71
561.29	358.10
561.45	299.59
561.61	325.33
561.78	435.34
561.94	290.23
562.11	339.38
562.27	236.39
562.44	344.06
562.60	269.16
562.77	257.46
562.93	346.40
563.10	262.14
563.26	276.18
563.42	311.29
563.59	330.02
563.75	285.55
563.92	362.78
564.08	322.99
564.24	315.97
564.41	341.72
564.57	266.82
564.74	315.97
564.90	264.48
565.07	285.55
565.23	285.55
565.39	351.08
565.56	341.72
565.72	315.97
565.88	306.61
566.05	285.55
566.21	280.86
566.38	241.08
566.54	304.27
566.70	330.02
566.87	255.12
567.03	245.76
567.19	273.84
567.36	337.04
567.52	250.44
567.68	266.82
567.85	315.97
568.01	177.88
568.17	311.29
568.34	292.57
568.50	313.63
568.66	273.84
568.83	259.80
568.99	348.74
569.15	383.85
569.32	264.48
569.48	285.55
569.64	304.27
569.81	243.42
569.97	238.73
570.13	306.61
570.30	304.27
570.46	327.68
570.62	294.91
570.78	334.70
570.95	292.57
571.11	367.46
571.27	332.36
571.43	322.99
571.60	255.12
571.76	315.97
571.92	276.18
572.09	278.52
572.25	248.10
572.41	271.50
572.57	304.27
572.74	372.15
572.90	283.20
573.06	294.91
573.22	294.91
573.38	325.33
573.55	273.84
573.71	292.57
573.87	285.55
574.03	334.70
574.20	212.99
574.36	365.12
574.52	273.84
574.68	294.91
574.84	301.93
575.01	339.38
575.17	299.59
575.33	292.57
575.49	369.80
575.65	311.29
575.82	299.59
575.98	409.59
576.14	372.15
576.30	437.68
576.46	418.96
576.62	393.21
576.79	416.62
576.95	327.68
577.11	360.44
577.27	262.14
577.43	362.78
577.59	313.63
577.75	320.65
577.92	287.89
578.08	306.61
578.24	243.42
578.40	367.46
578.56	381.51
578.72	430.66
578.88	404.91
579.04	379.17
579.21	353.42
579.37	367.46
579.53	269.16
579.69	339.38
579.85	409.59
580.01	332.36
580.17	348.74
580.33	304.27
580.49	264.48
580.65	264.48
580.82	358.10
580.98	285.55
581.14	348.74
581.30	395.55
581.46	376.83
581.62	416.62
581.78	374.49
581.94	409.59
582.10	330.02
582.26	381.51
582.42	386.19
582.58	376.83
582.74	353.42
582.90	332.36
583.06	355.76
583.22	311.29
583.38	334.70
583.54	325.33
583.70	477.47
583.86	425.98
584.02	437.68
584.18	510.24
584.34	484.49
584.50	727.91
584.66	3435.91
584.82	8842.54
584.98	11822.05
585.14	10045.58
585.30	6672.87
585.46	4241.05
585.62	2698.64
585.78	1439.43
585.94	760.67
586.10	507.90
586.26	381.51
586.42	491.51
586.58	388.53
586.74	376.83
586.90	388.53
587.06	407.25
587.22	475.13
587.38	433.00
587.54	461.09
587.70	837.91
587.86	1039.20
588.02	1170.27
588.18	950.26
588.34	582.79
588.49	437.68
588.65	409.59
588.81	325.33
588.97	236.39
589.13	229.37
589.29	304.27
589.45	311.29
589.61	280.86
589.77	301.93
589.93	322.99
590.08	311.29
590.24	325.33
590.40	383.85
590.56	306.61
590.72	306.61
590.88	306.61
591.04	327.68
591.20	322.99
591.35	330.02
591.51	234.05
591.67	283.20
591.83	330.02
591.99	369.80
592.15	348.74
592.31	369.80
592.46	411.93
592.62	362.78
592.78	346.40
592.94	337.04
593.10	369.80
593.26	318.31
593.41	374.49
593.57	404.91
593.73	365.12
593.89	713.86
594.05	1254.53
594.20	1783.49
594.36	1682.85
594.52	1132.82
594.68	802.80
594.84	620.24
594.99	517.26
595.15	381.51
595.31	404.91
595.47	381.51
595.62	285.55
595.78	325.33
595.94	262.14
596.10	362.78
596.25	273.84
596.41	224.69
596.57	297.25
596.73	330.02
596.88	381.51
597.04	519.60
597.20	566.41
597.36	601.52
597.51	557.05
597.67	440.02
597.83	306.61
597.99	397.89
598.14	322.99
598.30	355.76
598.46	318.31
598.61	304.27
598.77	294.91
598.93	278.52
599.09	379.17
599.24	381.51
599.40	390.87
599.56	276.18
599.71	365.12
599.87	313.63
600.03	264.48
600.18	325.33
600.34	301.93
600.50	360.44
600.65	273.84
600.81	334.70
600.97	306.61
601.12	259.80
601.28	248.10
601.44	238.73
601.59	306.61
601.75	318.31
601.91	276.18
602.06	351.08
602.22	381.51
602.37	393.21
602.53	510.24
602.69	688.12
602.84	697.48
603.00	550.03
603.16	498.53
603.31	468.11
603.47	442.36
603.62	320.65
603.78	369.80
603.94	334.70
604.09	308.95
604.25	290.23
604.40	334.70
604.56	313.63
604.71	212.99
604.87	252.78
605.03	320.65
605.18	241.08
605.34	322.99
605.49	283.20
605.65	339.38
605.80	243.42
605.96	367.46
606.12	344.06
606.27	290.23
606.43	278.52
606.58	285.55
606.74	397.89
606.89	737.27
607.05	1256.87
607.20	1481.56
607.36	1310.70
607.51	964.30
607.67	730.25
607.82	599.18
607.98	533.64
608.13	358.10
608.29	360.44
608.44	292.57
608.60	383.85
608.75	379.17
608.91	521.94
609.06	1093.03
609.22	1919.24
609.37	2527.78
609.53	2275.00
609.68	1586.88
609.84	1196.01
609.99	889.40
610.15	786.42
610.30	676.41
610.46	720.88
610.61	833.23
610.76	901.11
610.92	1062.60
611.07	1107.07
611.23	1177.29
611.38	971.32
611.54	877.70
611.69	767.70
611.84	671.73
612.00	554.71
612.15	592.16
612.31	648.33
612.46	528.96
612.62	589.82
612.77	645.99
612.92	601.52
613.08	540.66
613.23	585.13
613.39	444.70
613.54	528.96
613.69	1018.13
613.85	2366.28
614.00	3644.21
614.15	3616.13
614.31	2693.96
614.46	1989.46
614.62	1366.87
614.77	1069.62
614.92	580.45
615.08	507.90
615.23	418.96
615.38	430.66
615.54	435.34
615.69	456.40
615.84	746.63
616.00	1020.47
616.15	1158.57
616.30	1034.52
616.46	814.51
616.61	582.79
616.76	526.62
616.92	383.85
617.07	339.38
617.22	252.78
617.37	365.12
617.53	372.15
617.68	285.55
617.83	297.25
617.99	376.83
618.14	362.78
618.29	325.33
618.45	327.68
618.60	301.93
618.75	341.72
618.90	339.38
619.06	346.40
619.21	322.99
619.36	299.59
619.51	266.82
619.67	292.57
619.82	332.36
619.97	264.48
620.12	297.25
620.28	383.85
620.43	290.23
620.58	332.36
620.73	245.76
620.89	339.38
621.04	348.74
621.19	524.28
621.34	711.52
621.49	802.80
621.65	767.70
621.80	601.52
621.95	550.03
622.10	479.81
622.25	369.80
622.41	339.38
622.56	266.82
622.71	344.06
622.86	355.76
623.01	241.08
623.16	301.93
623.32	262.14
623.47	376.83
623.62	294.91
623.77	306.61
623.92	344.06
624.07	313.63
624.23	348.74
624.38	297.25
624.53	262.14
624.68	283.20
624.83	315.97
624.98	369.80
625.13	341.72
625.29	229.37
625.44	348.74
625.59	227.03
625.74	365.12
625.89	379.17
626.04	617.90
626.19	1357.51
626.34	1928.60
626.49	2036.27
626.65	1458.15
626.80	1224.10
626.95	973.66
627.10	624.92
627.25	468.11
627.40	365.12
627.55	299.59
627.70	313.63
627.85	369.80
628.00	231.71
628.15	210.65
628.30	276.18
628.45	294.91
628.60	271.50
628.76	337.04
628.91	355.76
629.06	339.38
629.21	287.89
629.36	358.10
629.51	229.37
629.66	313.63
629.81	271.50
629.96	507.90
630.11	608.54
630.26	793.44
630.41	692.80
630.56	535.98
630.71	458.74
630.86	430.66
631.01	341.72
631.16	395.55
631.31	402.57
631.46	372.15
631.61	330.02
631.76	266.82
631.91	259.80
632.06	304.27
632.21	285.55
632.36	313.63
632.51	248.10
632.66	271.50
632.81	407.25
632.96	816.85
633.10	1240.48
633.25	1399.64
633.40	1200.69
633.55	830.89
633.70	585.13
633.85	514.92
634.00	416.62
634.15	299.59
634.30	313.63
634.45	227.03
634.60	280.86
634.75	262.14
634.90	220.01
635.05	311.29
635.19	306.61
635.34	215.33
635.49	327.68
635.64	273.84
635.79	311.29
635.94	278.52
636.09	250.44
636.24	285.55
636.39	285.55
636.53	252.78
636.68	252.78
636.83	287.89
636.98	341.72
637.13	241.08
637.28	320.65
637.43	301.93
637.57	365.12
637.72	730.25
637.87	1682.85
638.02	2225.85
638.17	2307.77
638.32	1949.67
638.46	1348.15
638.61	1093.03
638.76	660.03
638.91	360.44
639.06	332.36
639.20	304.27
639.35	255.12
639.50	301.93
639.65	1018.13
639.80	2200.10
639.94	3260.37
640.09	3478.04
640.24	2677.57
640.39	2045.63
640.54	1397.30
640.68	905.79
640.83	653.01
640.98	404.91
641.13	241.08
641.27	304.27
641.42	255.12
641.57	292.57
641.72	198.95
641.86	271.50
642.01	255.12
642.16	215.33
642.31	266.82
642.45	330.02
642.60	248.10
642.75	259.80
642.90	210.65
643.04	271.50
643.19	262.14
643.34	210.65
643.48	191.92
643.63	191.92
643.78	243.42
643.93	306.61
644.07	238.73
644.22	224.69
644.37	229.37
644.51	257.46
644.66	318.31
644.81	245.76
644.95	285.55
645.10	196.60
645.25	308.95
645.39	290.23
645.54	255.12
645.69	262.14
645.83	262.14
645.98	217.67
646.13	276.18
646.27	229.37
646.42	166.18
646.57	234.05
646.71	262.14
646.86	201.29
647.00	341.72
647.15	271.50
647.30	222.35
647.44	290.23
647.59	259.80
647.74	290.23
647.88	259.80
648.03	236.39
648.17	236.39
648.32	201.29
648.47	332.36
648.61	287.89
648.76	159.16
648.90	196.60
649.05	205.97
649.20	201.29
649.34	205.97
649.49	294.91
649.63	166.18
649.78	276.18
649.92	278.52
650.07	550.03
650.21	1100.05
650.36	1720.29
650.51	2052.65
650.65	1729.66
650.80	1254.53
650.94	894.08
651.09	631.94
651.23	465.77
651.38	283.20
651.52	287.89
651.67	191.92
651.81	201.29
651.96	320.65
652.10	365.12
652.25	210.65
652.39	248.10
652.54	229.37
652.68	344.06
652.83	463.43
652.97	653.01
653.12	851.96
653.26	723.23
653.41	634.29
653.55	538.32
653.70	393.21
653.84	337.04
653.99	304.27
654.13	231.71
654.27	259.80
654.42	234.05
654.56	198.95
654.71	266.82
654.85	250.44
655.00	257.46
655.14	217.67
655.29	234.05
655.43	222.35
655.57	147.45
655.72	180.22
655.86	220.01
656.01	217.67
656.15	210.65
656.30	238.73
656.44	187.24
656.58	182.56
656.73	201.29
656.87	189.58
657.01	271.50
657.16	229.37
657.30	285.55
657.45	252.78
657.59	280.86
657.73	259.80
657.88	332.36
658.02	304.27
658.16	273.84
658.31	250.44
658.45	222.35
658.60	180.22
658.74	208.31
658.88	217.67
659.03	198.95
659.17	243.42
659.31	292.57
659.46	624.92
659.60	910.47
659.74	1128.14
659.89	1057.92
660.03	781.74
660.17	631.94
660.32	468.11
660.46	402.57
660.60	297.25
660.74	191.92
660.89	243.42
661.03	243.42
661.17	276.18
661.32	224.69
661.46	280.86
661.60	236.39
661.74	159.16
661.89	245.76
662.03	269.16
662.17	203.63
662.31	224.69
662.46	224.69
662.60	238.73
662.74	224.69
662.88	229.37
663.03	262.14
663.17	182.56
663.31	264.48
663.45	250.44
663.60	208.31
663.74	182.56
663.88	215.33
664.02	250.44
664.17	145.11
664.31	215.33
664.45	241.08
664.59	271.50
664.73	285.55
664.88	304.27
665.02	243.42
665.16	322.99
665.30	234.05
665.44	234.05
665.59	231.71
665.73	220.01
665.87	210.65
666.01	271.50
666.15	203.63
666.29	187.24
666.44	297.25
666.58	292.57
666.72	161.50
666.86	203.63
667.00	212.99
667.14	257.46
667.28	475.13
667.43	929.19
667.57	1465.18
667.71	1827.96
667.85	1542.41
667.99	1135.16
668.13	770.04
668.27	585.13
668.41	409.59
668.56	294.91
668.70	315.97
668.84	299.59
668.98	297.25
669.12	311.29
669.26	245.76
669.40	252.78
669.54	189.58
669.68	238.73
669.82	257.46
669.96	273.84
670.10	301.93
670.25	196.60
670.39	224.69
670.53	229.37
670.67	201.29
670.81	189.58
670.95	224.69
671.09	238.73
671.23	514.92
671.37	851.96
671.51	1191.33
671.65	1259.21
671.79	936.21
671.93	748.97
672.07	526.62
672.21	393.21
672.35	311.29
672.49	220.01
672.63	271.50
672.77	243.42
672.91	189.58
673.05	250.44
673.19	255.12
673.33	229.37
673.47	266.82
673.61	203.63
673.75	187.24
673.89	196.60
674.03	220.01
674.17	189.58
674.31	224.69
674.45	234.05
674.59	294.91
674.73	208.31
674.87	196.60
675.01	208.31
675.15	304.27
675.29	238.73
675.43	294.91
675.56	180.22
675.70	255.12
675.84	266.82
675.98	271.50
676.12	189.58
676.26	238.73
676.40	152.13
676.54	203.63
676.68	210.65
676.82	292.57
676.96	257.46
677.10	243.42
677.23	173.20
677.37	124.05
677.51	201.29
677.65	248.10
677.79	182.56
677.93	203.63
678.07	168.52
678.21	180.22
678.34	250.44
678.48	222.35
678.62	215.33
678.76	182.56
678.90	217.67
679.04	180.22
679.18	182.56
679.31	173.20
679.45	100.64
679.59	201.29
679.73	184.90
679.87	222.35
680.00	245.76
680.14	156.82
680.28	266.82
680.42	203.63
680.56	273.84
680.70	191.92
680.83	264.48
680.97	173.20
681.11	243.42
681.25	238.73
681.39	243.42
681.52	243.42
681.66	198.95
681.80	224.69
681.94	217.67
682.07	180.22
682.21	245.76
682.35	133.41
682.49	173.20
682.62	236.39
682.76	191.92
682.90	210.65
683.04	224.69
683.17	222.35
683.31	170.86
683.45	241.08
683.59	124.05
683.72	196.60
683.86	236.39
684.00	210.65
684.13	287.89
684.27	287.89
684.41	198.95
684.55	236.39
684.68	170.86
684.82	194.26
684.96	198.95
685.09	168.52
685.23	243.42
685.37	196.60
685.50	173.20
685.64	215.33
685.78	100.64
685.91	229.37
686.05	241.08
686.19	168.52
686.32	107.66
686.46	135.75
686.60	187.24
686.73	177.88
686.87	175.54
687.01	231.71
687.14	189.58
687.28	163.84
687.42	187.24
687.55	142.77
687.69	145.11
687.82	194.26
687.96	191.92
688.10	163.84
688.23	194.26
688.37	222.35
688.50	196.60
688.64	224.69
688.78	173.20
688.91	156.82
689.05	154.48
689.18	173.20
689.32	142.77
689.46	154.48
689.59	203.63
689.73	201.29
689.86	163.84
690.00	170.86
690.13	210.65
690.27	152.13
690.41	231.71
690.54	238.73
690.68	166.18
690.81	114.69
690.95	212.99
691.08	201.29
691.22	189.58
691.35	196.60
691.49	131.07
691.62	175.54
691.76	147.45
691.89	140.43
692.03	128.73
692.16	245.76
692.30	175.54
692.43	196.60
692.57	550.03
692.70	711.52
692.84	870.68
692.97	737.27
693.11	610.88
693.24	463.43
693.38	297.25
693.51	449.38
693.65	250.44
693.78	236.39
693.92	196.60
694.05	248.10
694.19	194.26
694.32	215.33
694.45	210.65
694.59	142.77
694.72	205.97
694.86	205.97
694.99	229.37
695.13	138.09
695.26	180.22
695.39	220.01
695.53	287.89
695.66	159.16
695.80	168.52
695.93	177.88
696.07	152.13
696.20	322.99
696.33	133.41
696.47	255.12
696.60	269.16
696.73	198.95
696.87	257.46
697.00	362.78
697.14	156.82
697.27	196.60
697.40	266.82
697.54	145.11
697.67	140.43
697.80	135.75
697.94	112.35
698.07	175.54
698.21	154.48
698.34	161.50
698.47	156.82
698.61	208.31
698.74	170.86
698.87	168.52
699.01	140.43
699.14	138.09
699.27	238.73
699.40	290.23
699.54	191.92
699.67	84.26
699.80	159.16
699.94	154.48
700.07	210.65
700.20	234.05
700.34	208.31
700.47	145.11
700.60	128.73
700.73	117.03
700.87	217.67
701.00	98.30
701.13	119.37
701.26	168.52
701.40	205.97
701.53	201.29
701.66	145.11
701.79	142.77
701.93	222.35
702.06	243.42
702.19	236.39
702.32	187.24
702.46	170.86
702.59	173.20
702.72	215.33
702.85	582.79
702.99	978.34
703.12	1397.30
703.25	1497.94
703.38	1270.91
703.51	1083.67
703.65	748.97
703.78	624.92
703.91	423.64
704.04	416.62
704.17	262.14
704.31	248.10
704.44	205.97
704.57	159.16
704.70	227.03
704.83	142.77
704.96	168.52
705.10	159.16
705.23	88.94
>>>>>End Processed Spectral Data<<<<<
