SpectraSuite Data File
++++++++++++++++++++++++++++++++++++
Date: Fri Oct 04 11:33:48 GMT-05:00 2013
User: price-jones
Dark Spectrum Present: No
Reference Spectrum Present: No
Number of Sampled Component Spectra: 1
Spectrometers: USB2+H05261
Integration Time (usec): 100000 (USB2+H05261)
Spectra Averaged: 1 (USB2+H05261)
Boxcar Smoothing: 0 (USB2+H05261)
Correct for Electrical Dark: No (USB2+H05261)
Strobe/Lamp Enabled: No (USB2+H05261)
Correct for Detector Non-linearity: No (USB2+H05261)
Correct for Stray Light: No (USB2+H05261)
Number of Pixels in Processed Spectrum: 2048
>>>>>Begin Processed Spectral Data<<<<<
365.73	88.94
365.92	88.94
366.12	88.94
366.32	0.00
366.52	21.06
366.72	42.13
366.91	0.00
367.11	0.00
367.31	0.00
367.51	65.54
367.70	0.00
367.90	53.83
368.10	53.83
368.30	32.77
368.49	0.00
368.69	14.04
368.89	0.00
369.09	0.00
369.28	0.00
369.48	23.41
369.68	0.00
369.87	32.77
370.07	14.04
370.27	39.79
370.47	105.32
370.66	4.68
370.86	149.79
371.06	133.41
371.25	175.54
371.45	131.07
371.65	138.09
371.84	161.50
372.04	88.94
372.24	110.01
372.44	147.45
372.63	149.79
372.83	149.79
373.03	98.30
373.22	114.69
373.42	100.64
373.62	105.32
373.81	77.24
374.01	184.90
374.21	180.22
374.40	210.65
374.60	168.52
374.79	112.35
374.99	159.16
375.19	173.20
375.38	189.58
375.58	102.98
375.78	138.09
375.97	98.30
376.17	210.65
376.37	161.50
376.56	154.48
376.76	121.71
376.95	224.69
377.15	161.50
377.35	72.56
377.54	102.98
377.74	84.26
377.93	170.86
378.13	128.73
378.33	161.50
378.52	159.16
378.72	149.79
378.91	154.48
379.11	159.16
379.31	112.35
379.50	11.70
379.70	173.20
379.89	182.56
380.09	138.09
380.28	70.22
380.48	121.71
380.68	119.37
380.87	107.66
381.07	152.13
381.26	187.24
381.46	170.86
381.65	229.37
381.85	135.75
382.04	35.11
382.24	138.09
382.43	175.54
382.63	138.09
382.83	126.39
383.02	131.07
383.22	135.75
383.41	149.79
383.61	126.39
383.80	187.24
384.00	163.84
384.19	56.17
384.39	168.52
384.58	86.60
384.78	135.75
384.97	156.82
385.17	161.50
385.36	114.69
385.56	184.90
385.75	140.43
385.95	110.01
386.14	128.73
386.34	182.56
386.53	77.24
386.72	173.20
386.92	208.31
387.11	163.84
387.31	173.20
387.50	84.26
387.70	140.43
387.89	107.66
388.09	95.96
388.28	86.60
388.48	156.82
388.67	166.18
388.86	70.22
389.06	107.66
389.25	156.82
389.45	138.09
389.64	102.98
389.84	210.65
390.03	217.67
390.22	91.28
390.42	77.24
390.61	84.26
390.81	128.73
391.00	182.56
391.19	149.79
391.39	135.75
391.58	166.18
391.78	95.96
391.97	119.37
392.16	128.73
392.36	217.67
392.55	227.03
392.75	135.75
392.94	74.90
393.13	198.95
393.33	117.03
393.52	177.88
393.71	184.90
393.91	105.32
394.10	107.66
394.29	173.20
394.49	133.41
394.68	154.48
394.88	140.43
395.07	159.16
395.26	156.82
395.46	128.73
395.65	112.35
395.84	140.43
396.04	248.10
396.23	201.29
396.42	105.32
396.62	168.52
396.81	112.35
397.00	163.84
397.19	117.03
397.39	205.97
397.58	182.56
397.77	156.82
397.97	138.09
398.16	241.08
398.35	196.60
398.55	198.95
398.74	149.79
398.93	184.90
399.12	140.43
399.32	166.18
399.51	110.01
399.70	147.45
399.90	114.69
400.09	105.32
400.28	152.13
400.47	138.09
400.67	175.54
400.86	142.77
401.05	131.07
401.24	215.33
401.44	212.99
401.63	161.50
401.82	208.31
402.01	159.16
402.21	142.77
402.40	93.62
402.59	131.07
402.78	147.45
402.97	88.94
403.17	93.62
403.36	191.92
403.55	119.37
403.74	86.60
403.93	133.41
404.13	201.29
404.32	180.22
404.51	154.48
404.70	194.26
404.89	121.71
405.09	210.65
405.28	95.96
405.47	163.84
405.66	114.69
405.85	241.08
406.05	128.73
406.24	187.24
406.43	133.41
406.62	135.75
406.81	163.84
407.00	264.48
407.20	131.07
407.39	110.01
407.58	168.52
407.77	182.56
407.96	187.24
408.15	189.58
408.34	229.37
408.54	166.18
408.73	173.20
408.92	156.82
409.11	161.50
409.30	212.99
409.49	159.16
409.68	175.54
409.87	196.60
410.07	166.18
410.26	189.58
410.45	154.48
410.64	177.88
410.83	126.39
411.02	180.22
411.21	168.52
411.40	175.54
411.59	110.01
411.78	191.92
411.98	161.50
412.17	91.28
412.36	210.65
412.55	128.73
412.74	173.20
412.93	161.50
413.12	142.77
413.31	208.31
413.50	229.37
413.69	142.77
413.88	128.73
414.07	205.97
414.26	119.37
414.45	161.50
414.64	238.73
414.83	210.65
415.02	217.67
415.22	154.48
415.41	184.90
415.60	175.54
415.79	187.24
415.98	257.46
416.17	222.35
416.36	152.13
416.55	142.77
416.74	121.71
416.93	159.16
417.12	161.50
417.31	159.16
417.50	152.13
417.69	234.05
417.88	194.26
418.07	243.42
418.26	220.01
418.45	182.56
418.64	280.86
418.83	264.48
419.02	229.37
419.21	205.97
419.39	175.54
419.58	166.18
419.77	255.12
419.96	215.33
420.15	154.48
420.34	152.13
420.53	182.56
420.72	135.75
420.91	198.95
421.10	128.73
421.29	154.48
421.48	177.88
421.67	231.71
421.86	147.45
422.05	180.22
422.24	114.69
422.43	142.77
422.61	168.52
422.80	166.18
422.99	154.48
423.18	198.95
423.37	245.76
423.56	156.82
423.75	131.07
423.94	145.11
424.13	135.75
424.32	168.52
424.50	152.13
424.69	110.01
424.88	161.50
425.07	154.48
425.26	180.22
425.45	222.35
425.64	238.73
425.83	173.20
426.01	205.97
426.20	217.67
426.39	147.45
426.58	170.86
426.77	126.39
426.96	208.31
427.15	110.01
427.33	161.50
427.52	152.13
427.71	208.31
427.90	194.26
428.09	128.73
428.28	205.97
428.46	177.88
428.65	220.01
428.84	205.97
429.03	175.54
429.22	67.88
429.40	170.86
429.59	142.77
429.78	145.11
429.97	145.11
430.16	131.07
430.34	182.56
430.53	156.82
430.72	205.97
430.91	187.24
431.10	145.11
431.28	234.05
431.47	187.24
431.66	149.79
431.85	161.50
432.03	152.13
432.22	170.86
432.41	138.09
432.60	182.56
432.79	236.39
432.97	196.60
433.16	236.39
433.35	276.18
433.54	273.84
433.72	177.88
433.91	215.33
434.10	177.88
434.28	224.69
434.47	184.90
434.66	222.35
434.85	187.24
435.03	250.44
435.22	306.61
435.41	416.62
435.59	318.31
435.78	280.86
435.97	301.93
436.16	177.88
436.34	117.03
436.53	184.90
436.72	198.95
436.90	170.86
437.09	177.88
437.28	220.01
437.46	208.31
437.65	194.26
437.84	220.01
438.02	191.92
438.21	145.11
438.40	205.97
438.58	182.56
438.77	304.27
438.96	173.20
439.14	201.29
439.33	154.48
439.52	194.26
439.70	212.99
439.89	191.92
440.08	220.01
440.26	184.90
440.45	248.10
440.63	147.45
440.82	180.22
441.01	168.52
441.19	201.29
441.38	227.03
441.57	131.07
441.75	131.07
441.94	154.48
442.12	220.01
442.31	194.26
442.50	124.05
442.68	159.16
442.87	184.90
443.05	212.99
443.24	114.69
443.43	203.63
443.61	196.60
443.80	149.79
443.98	208.31
444.17	138.09
444.35	142.77
444.54	173.20
444.73	250.44
444.91	222.35
445.10	175.54
445.28	147.45
445.47	168.52
445.65	126.39
445.84	112.35
446.02	168.52
446.21	201.29
446.39	166.18
446.58	198.95
446.77	182.56
446.95	184.90
447.14	175.54
447.32	187.24
447.51	194.26
447.69	224.69
447.88	140.43
448.06	187.24
448.25	170.86
448.43	138.09
448.62	236.39
448.80	194.26
448.99	208.31
449.17	147.45
449.36	229.37
449.54	145.11
449.73	147.45
449.91	236.39
450.10	189.58
450.28	266.82
450.46	208.31
450.65	276.18
450.83	208.31
451.02	224.69
451.20	152.13
451.39	154.48
451.57	196.60
451.76	222.35
451.94	166.18
452.13	227.03
452.31	231.71
452.49	229.37
452.68	159.16
452.86	198.95
453.05	198.95
453.23	177.88
453.42	198.95
453.60	194.26
453.78	149.79
453.97	198.95
454.15	184.90
454.34	159.16
454.52	215.33
454.70	110.01
454.89	245.76
455.07	163.84
455.26	184.90
455.44	234.05
455.62	238.73
455.81	184.90
455.99	229.37
456.17	159.16
456.36	100.64
456.54	154.48
456.73	177.88
456.91	229.37
457.09	198.95
457.28	184.90
457.46	156.82
457.64	180.22
457.83	147.45
458.01	201.29
458.19	259.80
458.38	138.09
458.56	187.24
458.74	194.26
458.93	205.97
459.11	217.67
459.29	159.16
459.48	180.22
459.66	205.97
459.84	257.46
460.03	325.33
460.21	245.76
460.39	201.29
460.57	243.42
460.76	187.24
460.94	196.60
461.12	182.56
461.31	187.24
461.49	191.92
461.67	163.84
461.85	205.97
462.04	121.71
462.22	620.24
462.40	273.84
462.59	121.71
462.77	189.58
462.95	238.73
463.13	238.73
463.32	224.69
463.50	243.42
463.68	220.01
463.86	217.67
464.05	182.56
464.23	168.52
464.41	205.97
464.59	177.88
464.78	241.08
464.96	203.63
465.14	180.22
465.32	259.80
465.50	159.16
465.69	166.18
465.87	145.11
466.05	145.11
466.23	196.60
466.41	177.88
466.60	220.01
466.78	222.35
466.96	149.79
467.14	180.22
467.32	266.82
467.51	163.84
467.69	187.24
467.87	191.92
468.05	248.10
468.23	220.01
468.41	217.67
468.60	163.84
468.78	203.63
468.96	243.42
469.14	147.45
469.32	145.11
469.50	140.43
469.69	135.75
469.87	156.82
470.05	201.29
470.23	173.20
470.41	262.14
470.59	201.29
470.77	224.69
470.95	262.14
471.14	222.35
471.32	140.43
471.50	238.73
471.68	149.79
471.86	175.54
472.04	269.16
472.22	257.46
472.40	170.86
472.58	168.52
472.77	341.72
472.95	234.05
473.13	208.31
473.31	227.03
473.49	184.90
473.67	163.84
473.85	198.95
474.03	156.82
474.21	196.60
474.39	196.60
474.57	278.52
474.75	231.71
474.93	252.78
475.12	168.52
475.30	229.37
475.48	191.92
475.66	198.95
475.84	238.73
476.02	208.31
476.20	292.57
476.38	208.31
476.56	294.91
476.74	156.82
476.92	187.24
477.10	278.52
477.28	248.10
477.46	180.22
477.64	241.08
477.82	187.24
478.00	194.26
478.18	241.08
478.36	250.44
478.54	224.69
478.72	117.03
478.90	187.24
479.08	297.25
479.26	238.73
479.44	175.54
479.62	121.71
479.80	194.26
479.98	175.54
480.16	245.76
480.34	257.46
480.52	184.90
480.70	252.78
480.88	147.45
481.06	170.86
481.24	210.65
481.41	133.41
481.59	245.76
481.77	201.29
481.95	255.12
482.13	203.63
482.31	149.79
482.49	177.88
482.67	273.84
482.85	250.44
483.03	220.01
483.21	224.69
483.39	156.82
483.57	203.63
483.74	201.29
483.92	217.67
484.10	173.20
484.28	203.63
484.46	273.84
484.64	227.03
484.82	259.80
485.00	234.05
485.18	273.84
485.35	217.67
485.53	180.22
485.71	201.29
485.89	217.67
486.07	227.03
486.25	269.16
486.43	250.44
486.61	262.14
486.78	208.31
486.96	189.58
487.14	227.03
487.32	241.08
487.50	248.10
487.68	315.97
487.85	224.69
488.03	243.42
488.21	318.31
488.39	201.29
488.57	353.42
488.75	250.44
488.92	449.38
489.10	259.80
489.28	330.02
489.46	290.23
489.64	264.48
489.81	220.01
489.99	241.08
490.17	198.95
490.35	294.91
490.53	299.59
490.70	210.65
490.88	262.14
491.06	283.20
491.24	271.50
491.41	313.63
491.59	264.48
491.77	201.29
491.95	215.33
492.13	156.82
492.30	217.67
492.48	248.10
492.66	224.69
492.84	243.42
493.01	250.44
493.19	222.35
493.37	257.46
493.54	227.03
493.72	166.18
493.90	217.67
494.08	248.10
494.25	283.20
494.43	180.22
494.61	257.46
494.79	147.45
494.96	243.42
495.14	290.23
495.32	224.69
495.49	266.82
495.67	227.03
495.85	271.50
496.02	229.37
496.20	250.44
496.38	325.33
496.55	229.37
496.73	252.78
496.91	308.95
497.09	278.52
497.26	255.12
497.44	290.23
497.62	304.27
497.79	140.43
497.97	266.82
498.14	318.31
498.32	283.20
498.50	287.89
498.67	245.76
498.85	187.24
499.03	175.54
499.20	215.33
499.38	262.14
499.56	276.18
499.73	227.03
499.91	173.20
500.08	313.63
500.26	306.61
500.44	264.48
500.61	238.73
500.79	248.10
500.97	285.55
501.14	269.16
501.32	271.50
501.49	262.14
501.67	191.92
501.84	325.33
502.02	266.82
502.20	236.39
502.37	269.16
502.55	243.42
502.72	266.82
502.90	264.48
503.07	313.63
503.25	318.31
503.43	388.53
503.60	327.68
503.78	292.57
503.95	259.80
504.13	222.35
504.30	241.08
504.48	210.65
504.65	234.05
504.83	278.52
505.01	241.08
505.18	297.25
505.36	252.78
505.53	243.42
505.71	163.84
505.88	196.60
506.06	243.42
506.23	271.50
506.41	266.82
506.58	259.80
506.76	238.73
506.93	299.59
507.11	283.20
507.28	194.26
507.46	287.89
507.63	241.08
507.81	290.23
507.98	210.65
508.16	236.39
508.33	262.14
508.50	255.12
508.68	292.57
508.85	243.42
509.03	287.89
509.20	203.63
509.38	301.93
509.55	264.48
509.73	334.70
509.90	264.48
510.08	212.99
510.25	283.20
510.42	212.99
510.60	217.67
510.77	224.69
510.95	287.89
511.12	304.27
511.30	327.68
511.47	325.33
511.64	301.93
511.82	234.05
511.99	250.44
512.17	259.80
512.34	170.86
512.51	220.01
512.69	215.33
512.86	299.59
513.04	262.14
513.21	229.37
513.38	203.63
513.56	299.59
513.73	304.27
513.90	299.59
514.08	222.35
514.25	248.10
514.43	376.83
514.60	278.52
514.77	346.40
514.95	257.46
515.12	334.70
515.29	252.78
515.47	311.29
515.64	241.08
515.81	227.03
515.99	243.42
516.16	266.82
516.33	315.97
516.51	234.05
516.68	212.99
516.85	248.10
517.03	212.99
517.20	252.78
517.37	250.44
517.54	266.82
517.72	266.82
517.89	236.39
518.06	231.71
518.24	299.59
518.41	285.55
518.58	327.68
518.75	320.65
518.93	259.80
519.10	257.46
519.27	280.86
519.45	198.95
519.62	217.67
519.79	248.10
519.96	252.78
520.14	318.31
520.31	276.18
520.48	285.55
520.65	290.23
520.83	285.55
521.00	315.97
521.17	227.03
521.34	264.48
521.52	283.20
521.69	276.18
521.86	250.44
522.03	278.52
522.20	327.68
522.38	292.57
522.55	208.31
522.72	257.46
522.89	283.20
523.07	262.14
523.24	287.89
523.41	203.63
523.58	262.14
523.75	327.68
523.92	287.89
524.10	234.05
524.27	308.95
524.44	248.10
524.61	248.10
524.78	301.93
524.96	292.57
525.13	229.37
525.30	327.68
525.47	304.27
525.64	201.29
525.81	234.05
525.98	315.97
526.16	287.89
526.33	210.65
526.50	243.42
526.67	238.73
526.84	154.48
527.01	252.78
527.18	313.63
527.36	271.50
527.53	262.14
527.70	255.12
527.87	315.97
528.04	348.74
528.21	163.84
528.38	327.68
528.55	351.08
528.72	297.25
528.89	301.93
529.07	220.01
529.24	301.93
529.41	327.68
529.58	292.57
529.75	276.18
529.92	301.93
530.09	245.76
530.26	259.80
530.43	292.57
530.60	236.39
530.77	334.70
530.94	301.93
531.11	339.38
531.28	276.18
531.46	234.05
531.63	320.65
531.80	297.25
531.97	276.18
532.14	360.44
532.31	341.72
532.48	299.59
532.65	414.27
532.82	442.36
532.99	332.36
533.16	341.72
533.33	365.12
533.50	255.12
533.67	379.17
533.84	458.74
534.01	365.12
534.18	418.96
534.35	341.72
534.52	339.38
534.69	344.06
534.86	297.25
535.03	269.16
535.20	330.02
535.37	337.04
535.54	287.89
535.71	269.16
535.88	276.18
536.05	273.84
536.22	332.36
536.38	278.52
536.55	257.46
536.72	238.73
536.89	285.55
537.06	294.91
537.23	322.99
537.40	330.02
537.57	227.03
537.74	400.23
537.91	365.12
538.08	351.08
538.25	421.30
538.42	313.63
538.59	379.17
538.75	365.12
538.92	358.10
539.09	360.44
539.26	327.68
539.43	554.71
539.60	1018.13
539.77	1551.78
539.94	1572.84
540.11	1078.99
540.28	807.48
540.44	608.54
540.61	444.70
540.78	416.62
540.95	468.11
541.12	482.15
541.29	458.74
541.46	465.77
541.62	568.75
541.79	575.77
541.96	430.66
542.13	400.23
542.30	463.43
542.47	500.87
542.63	512.58
542.80	514.92
542.97	552.37
543.14	486.83
543.31	428.32
543.48	451.72
543.64	489.17
543.81	482.15
543.98	477.47
544.15	458.74
544.32	470.45
544.48	514.92
544.65	479.81
544.82	440.02
544.99	498.53
545.16	489.17
545.32	428.32
545.49	760.67
545.66	802.80
545.83	877.70
546.00	741.95
546.16	643.65
546.33	535.98
546.50	444.70
546.67	334.70
546.83	458.74
547.00	334.70
547.17	402.57
547.34	351.08
547.50	409.59
547.67	449.38
547.84	388.53
548.00	386.19
548.17	294.91
548.34	374.49
548.51	407.25
548.67	311.29
548.84	332.36
549.01	346.40
549.18	341.72
549.34	365.12
549.51	318.31
549.68	348.74
549.84	294.91
550.01	383.85
550.18	395.55
550.34	404.91
550.51	318.31
550.68	411.93
550.84	311.29
551.01	320.65
551.18	337.04
551.34	231.71
551.51	306.61
551.68	266.82
551.84	299.59
552.01	252.78
552.18	339.38
552.34	318.31
552.51	294.91
552.68	360.44
552.84	301.93
553.01	332.36
553.18	297.25
553.34	290.23
553.51	294.91
553.67	297.25
553.84	301.93
554.01	287.89
554.17	308.95
554.34	245.76
554.51	227.03
554.67	325.33
554.84	337.04
555.00	297.25
555.17	278.52
555.33	287.89
555.50	341.72
555.67	285.55
555.83	245.76
556.00	252.78
556.16	411.93
556.33	327.68
556.50	252.78
556.66	220.01
556.83	297.25
556.99	264.48
557.16	337.04
557.32	241.08
557.49	257.46
557.65	327.68
557.82	369.80
557.98	287.89
558.15	292.57
558.32	278.52
558.48	238.73
558.65	339.38
558.81	315.97
558.98	273.84
559.14	266.82
559.31	306.61
559.47	294.91
559.64	311.29
559.80	299.59
559.97	208.31
560.13	276.18
560.30	315.97
560.46	308.95
560.63	222.35
560.79	210.65
560.96	285.55
561.12	248.10
561.29	285.55
561.45	280.86
561.61	294.91
561.78	379.17
561.94	201.29
562.11	262.14
562.27	334.70
562.44	220.01
562.60	297.25
562.77	217.67
562.93	353.42
563.10	217.67
563.26	308.95
563.42	271.50
563.59	280.86
563.75	222.35
563.92	255.12
564.08	262.14
564.24	320.65
564.41	294.91
564.57	245.76
564.74	229.37
564.90	227.03
565.07	280.86
565.23	330.02
565.39	299.59
565.56	278.52
565.72	259.80
565.88	287.89
566.05	266.82
566.21	248.10
566.38	264.48
566.54	273.84
566.70	285.55
566.87	278.52
567.03	224.69
567.19	322.99
567.36	250.44
567.52	294.91
567.68	311.29
567.85	257.46
568.01	248.10
568.17	264.48
568.34	229.37
568.50	241.08
568.66	301.93
568.83	383.85
568.99	259.80
569.15	285.55
569.32	222.35
569.48	243.42
569.64	229.37
569.81	278.52
569.97	187.24
570.13	227.03
570.30	229.37
570.46	196.60
570.62	264.48
570.78	236.39
570.95	245.76
571.11	306.61
571.27	318.31
571.43	234.05
571.60	273.84
571.76	313.63
571.92	290.23
572.09	283.20
572.25	283.20
572.41	229.37
572.57	222.35
572.74	351.08
572.90	236.39
573.06	262.14
573.22	276.18
573.38	351.08
573.55	248.10
573.71	311.29
573.87	257.46
574.03	283.20
574.20	252.78
574.36	325.33
574.52	313.63
574.68	362.78
574.84	292.57
575.01	341.72
575.17	327.68
575.33	250.44
575.49	292.57
575.65	320.65
575.82	379.17
575.98	627.26
576.14	664.71
576.30	823.87
576.46	718.54
576.62	580.45
576.79	538.32
576.95	433.00
577.11	372.15
577.27	283.20
577.43	362.78
577.59	332.36
577.75	344.06
577.92	266.82
578.08	313.63
578.24	372.15
578.40	330.02
578.56	327.68
578.72	482.15
578.88	465.77
579.04	325.33
579.21	297.25
579.37	362.78
579.53	388.53
579.69	348.74
579.85	383.85
580.01	461.09
580.17	404.91
580.33	435.34
580.49	423.64
580.65	381.51
580.82	418.96
580.98	355.76
581.14	430.66
581.30	433.00
581.46	552.37
581.62	638.97
581.78	674.07
581.94	601.52
582.10	582.79
582.26	526.62
582.42	477.47
582.58	447.04
582.74	447.04
582.90	472.79
583.06	486.83
583.22	433.00
583.38	505.56
583.54	566.41
583.70	617.90
583.86	662.37
584.02	786.42
584.18	1022.81
584.34	1158.57
584.50	2717.36
584.66	19445.17
584.82	52502.90
584.98	64746.24
585.14	62777.85
585.30	48458.45
585.46	29186.48
585.62	18045.53
585.78	8547.64
585.94	3300.16
586.10	1624.33
586.26	1151.54
586.42	922.17
586.58	777.06
586.74	624.92
586.90	779.40
587.06	601.52
587.22	627.26
587.38	624.92
587.54	1132.82
587.70	3213.56
587.86	5460.47
588.02	6282.00
588.18	4531.28
588.34	2949.08
588.49	1809.23
588.65	1277.93
588.81	683.44
588.97	435.34
589.13	379.17
589.29	372.15
589.45	440.02
589.61	404.91
589.77	440.02
589.93	552.37
590.08	465.77
590.24	514.92
590.40	496.19
590.56	442.36
590.72	447.04
590.88	458.74
591.04	404.91
591.20	428.32
591.35	468.11
591.51	421.30
591.67	358.10
591.83	390.87
591.99	339.38
592.15	397.89
592.31	411.93
592.46	358.10
592.62	390.87
592.78	404.91
592.94	421.30
593.10	374.49
593.26	376.83
593.41	444.70
593.57	447.04
593.73	688.12
593.89	2401.39
594.05	6490.31
594.20	10429.43
594.36	10232.82
594.52	6825.00
594.68	4140.41
594.84	2822.69
594.99	1547.09
595.15	788.76
595.31	554.71
595.47	470.45
595.62	315.97
595.78	292.57
595.94	444.70
596.10	442.36
596.25	327.68
596.41	451.72
596.57	390.87
596.73	341.72
596.88	512.58
597.04	1280.27
597.20	2256.28
597.36	2754.81
597.51	2120.53
597.67	1359.85
597.83	1053.24
597.99	739.61
598.14	507.90
598.30	451.72
598.46	362.78
598.61	430.66
598.77	393.21
598.93	393.21
599.09	383.85
599.24	383.85
599.40	325.33
599.56	337.04
599.71	313.63
599.87	320.65
600.03	264.48
600.18	334.70
600.34	292.57
600.50	297.25
600.65	262.14
600.81	351.08
600.97	304.27
601.12	313.63
601.28	322.99
601.44	236.39
601.59	273.84
601.75	332.36
601.91	238.73
602.06	243.42
602.22	489.17
602.37	685.78
602.53	1666.46
602.69	2628.42
602.84	2949.08
603.00	2146.27
603.16	1448.79
603.31	1067.28
603.47	685.78
603.62	435.34
603.78	348.74
603.94	280.86
604.09	301.93
604.25	262.14
604.40	243.42
604.56	334.70
604.71	313.63
604.87	376.83
605.03	304.27
605.18	308.95
605.34	344.06
605.49	304.27
605.65	290.23
605.80	301.93
605.96	376.83
606.12	383.85
606.27	433.00
606.43	381.51
606.58	512.58
606.74	816.85
606.89	2993.55
607.05	6541.80
607.20	8901.06
607.36	7627.81
607.51	5160.88
607.67	3407.82
607.82	2326.49
607.98	1350.49
608.13	763.01
608.29	528.96
608.44	535.98
608.60	557.05
608.75	554.71
608.91	1118.78
609.06	4622.56
609.22	10803.91
609.37	15726.06
609.53	13818.52
609.68	9256.82
609.84	5982.41
609.99	4014.02
610.15	2331.17
610.30	1259.21
610.46	938.55
610.61	919.83
610.76	868.34
610.92	1018.13
611.07	966.64
611.23	1041.54
611.38	983.02
611.54	861.32
611.69	779.40
611.84	711.52
612.00	610.88
612.15	608.54
612.31	702.16
612.46	861.32
612.62	917.49
612.77	870.68
612.92	777.06
613.08	830.89
613.23	758.33
613.39	676.41
613.54	997.07
613.69	4236.37
613.85	12849.54
614.00	22483.19
614.15	25944.84
614.31	17970.63
614.46	11623.10
614.62	7808.03
614.77	4734.90
614.92	2214.15
615.08	1086.01
615.23	770.04
615.38	545.34
615.54	533.64
615.69	851.96
615.84	2553.52
616.00	4964.28
616.15	6523.07
616.30	5736.65
616.46	3768.26
616.61	2539.48
616.76	1860.73
616.92	1081.33
617.07	503.22
617.22	379.17
617.37	409.59
617.53	400.23
617.68	304.27
617.83	362.78
617.99	369.80
618.14	442.36
618.29	425.98
618.45	367.46
618.60	297.25
618.75	283.20
618.90	301.93
619.06	315.97
619.21	353.42
619.36	290.23
619.51	294.91
619.67	407.25
619.82	283.20
619.97	306.61
620.12	376.83
620.28	386.19
620.43	376.83
620.58	308.95
620.73	299.59
620.89	330.02
621.04	491.51
621.19	1523.69
621.34	2647.15
621.49	3822.09
621.65	3485.06
621.80	2469.27
621.95	1680.50
622.10	1273.25
622.25	760.67
622.41	465.77
622.56	409.59
622.71	339.38
622.86	327.68
623.01	320.65
623.16	353.42
623.32	325.33
623.47	271.50
623.62	351.08
623.77	339.38
623.92	205.97
624.07	266.82
624.23	318.31
624.38	325.33
624.53	348.74
624.68	341.72
624.83	372.15
624.98	334.70
625.13	360.44
625.29	393.21
625.44	341.72
625.59	379.17
625.74	383.85
625.89	699.82
626.04	2066.69
626.19	6478.60
626.34	10965.41
626.49	13455.74
626.65	9956.64
626.80	6595.63
626.95	4332.33
627.10	2839.07
627.25	1556.46
627.40	734.93
627.55	510.24
627.70	367.46
627.85	290.23
628.00	332.36
628.15	241.08
628.30	297.25
628.45	381.51
628.60	334.70
628.76	346.40
628.91	255.12
629.06	334.70
629.21	257.46
629.36	404.91
629.51	262.14
629.66	313.63
629.81	503.22
629.96	1233.46
630.11	2373.30
630.26	3442.93
630.41	3171.43
630.56	2272.66
630.71	1568.16
630.86	1043.88
631.01	828.55
631.16	540.66
631.31	428.32
631.46	358.10
631.61	325.33
631.76	276.18
631.91	327.68
632.06	325.33
632.21	308.95
632.36	322.99
632.51	367.46
632.66	456.40
632.81	997.07
632.96	3414.84
633.10	6782.87
633.25	9329.38
633.40	7225.23
633.55	5170.24
633.70	3480.38
633.85	2165.00
634.00	1282.61
634.15	695.14
634.30	500.87
634.45	341.72
634.60	437.68
634.75	348.74
634.90	299.59
635.05	308.95
635.19	262.14
635.34	259.80
635.49	395.55
635.64	339.38
635.79	238.73
635.94	330.02
636.09	259.80
636.24	334.70
636.39	266.82
636.53	390.87
636.68	285.55
636.83	365.12
636.98	355.76
637.13	348.74
637.28	386.19
637.43	484.49
637.57	636.63
637.72	2621.40
637.87	8297.20
638.02	14277.27
638.17	16697.38
638.32	12063.12
638.46	8119.32
638.61	5495.58
638.76	3339.94
638.91	1778.81
639.06	952.60
639.20	737.27
639.35	657.69
639.50	866.00
639.65	4053.81
639.80	12297.17
639.94	21656.98
640.09	25488.43
640.24	18492.57
640.39	12496.12
640.54	8077.19
640.68	4990.02
640.83	2410.75
640.98	1186.65
641.13	744.29
641.27	486.83
641.42	458.74
641.57	376.83
641.72	367.46
641.86	278.52
642.01	369.80
642.16	374.49
642.31	292.57
642.45	346.40
642.60	308.95
642.75	320.65
642.90	299.59
643.04	252.78
643.19	212.99
643.34	271.50
643.48	264.48
643.63	283.20
643.78	292.57
643.93	243.42
644.07	269.16
644.22	208.31
644.37	241.08
644.51	262.14
644.66	322.99
644.81	191.92
644.95	187.24
645.10	250.44
645.25	229.37
645.39	250.44
645.54	177.88
645.69	245.76
645.83	266.82
645.98	283.20
646.13	210.65
646.27	262.14
646.42	250.44
646.57	304.27
646.71	243.42
646.86	189.58
647.00	304.27
647.15	262.14
647.30	234.05
647.44	269.16
647.59	191.92
647.74	255.12
647.88	339.38
648.03	222.35
648.17	245.76
648.32	236.39
648.47	273.84
648.61	189.58
648.76	229.37
648.90	238.73
649.05	318.31
649.20	250.44
649.34	304.27
649.49	234.05
649.63	358.10
649.78	245.76
649.92	468.11
650.07	1720.29
650.21	5563.45
650.36	10352.19
650.51	13308.29
650.65	11185.42
650.80	7817.39
650.94	5191.31
651.09	3197.17
651.23	1732.00
651.38	875.36
651.52	500.87
651.67	360.44
651.81	304.27
651.96	304.27
652.10	290.23
652.25	255.12
652.39	365.12
652.54	360.44
652.68	535.98
652.83	1839.66
652.97	3513.14
653.12	4716.18
653.26	4145.09
653.41	3091.85
653.55	2150.95
653.70	1418.36
653.84	830.89
653.99	526.62
654.13	308.95
654.27	292.57
654.42	271.50
654.56	220.01
654.71	224.69
654.85	262.14
655.00	229.37
655.14	201.29
655.29	220.01
655.43	257.46
655.57	222.35
655.72	220.01
655.86	220.01
656.01	198.95
656.15	224.69
656.30	222.35
656.44	168.52
656.58	194.26
656.73	194.26
656.87	187.24
657.01	222.35
657.16	304.27
657.30	201.29
657.45	278.52
657.59	255.12
657.73	287.89
657.88	205.97
658.02	320.65
658.16	224.69
658.31	294.91
658.45	234.05
658.60	194.26
658.74	182.56
658.88	245.76
659.03	283.20
659.17	325.33
659.31	800.46
659.46	2424.80
659.60	4786.40
659.74	6462.22
659.89	5989.43
660.03	4287.86
660.17	3063.76
660.32	1919.24
660.46	1149.20
660.60	697.48
660.74	465.77
660.89	334.70
661.03	236.39
661.17	276.18
661.32	266.82
661.46	252.78
661.60	222.35
661.74	259.80
661.89	283.20
662.03	259.80
662.17	212.99
662.31	210.65
662.46	234.05
662.60	187.24
662.74	241.08
662.88	234.05
663.03	278.52
663.17	273.84
663.31	212.99
663.45	269.16
663.60	280.86
663.74	201.29
663.88	227.03
664.02	154.48
664.17	217.67
664.31	196.60
664.45	245.76
664.59	203.63
664.73	255.12
664.88	243.42
665.02	224.69
665.16	297.25
665.30	306.61
665.44	243.42
665.59	210.65
665.73	245.76
665.87	243.42
666.01	222.35
666.15	220.01
666.29	280.86
666.44	297.25
666.58	337.04
666.72	217.67
666.86	243.42
667.00	339.38
667.14	372.15
667.28	1465.18
667.43	4624.90
667.57	8688.07
667.71	11793.96
667.85	9872.38
667.99	7309.49
668.13	4660.01
668.27	2916.31
668.41	1589.22
668.56	933.87
668.70	643.65
668.84	454.06
668.98	423.64
669.12	320.65
669.26	269.16
669.40	325.33
669.54	229.37
669.68	238.73
669.82	191.92
669.96	276.18
670.10	248.10
670.25	262.14
670.39	231.71
670.53	173.20
670.67	243.42
670.81	238.73
670.95	280.86
671.09	550.03
671.23	1757.74
671.37	4007.00
671.51	6443.49
671.65	7215.87
671.79	5755.38
671.93	3983.59
672.07	2443.52
672.21	1418.36
672.35	819.19
672.49	559.39
672.63	496.19
672.77	353.42
672.91	304.27
673.05	276.18
673.19	210.65
673.33	212.99
673.47	215.33
673.61	184.90
673.75	229.37
673.89	210.65
674.03	241.08
674.17	238.73
674.31	220.01
674.45	245.76
674.59	227.03
674.73	220.01
674.87	198.95
675.01	264.48
675.15	315.97
675.29	290.23
675.43	330.02
675.56	266.82
675.70	227.03
675.84	182.56
675.98	318.31
676.12	231.71
676.26	227.03
676.40	187.24
676.54	196.60
676.68	205.97
676.82	227.03
676.96	140.43
677.10	259.80
677.23	156.82
677.37	105.32
677.51	191.92
677.65	269.16
677.79	194.26
677.93	128.73
678.07	107.66
678.21	187.24
678.34	276.18
678.48	196.60
678.62	191.92
678.76	154.48
678.90	152.13
679.04	173.20
679.18	248.10
679.31	189.58
679.45	166.18
679.59	152.13
679.73	161.50
679.87	124.05
680.00	194.26
680.14	177.88
680.28	147.45
680.42	156.82
680.56	252.78
680.70	175.54
680.83	215.33
680.97	189.58
681.11	245.76
681.25	236.39
681.39	266.82
681.52	131.07
681.66	182.56
681.80	196.60
681.94	180.22
682.07	187.24
682.21	128.73
682.35	156.82
682.49	210.65
682.62	196.60
682.76	163.84
682.90	243.42
683.04	135.75
683.17	159.16
683.31	191.92
683.45	159.16
683.59	236.39
683.72	203.63
683.86	191.92
684.00	156.82
684.13	222.35
684.27	128.73
684.41	170.86
684.55	201.29
684.68	231.71
684.82	147.45
684.96	170.86
685.09	224.69
685.23	84.26
685.37	95.96
685.50	203.63
685.64	205.97
685.78	203.63
685.91	184.90
686.05	196.60
686.19	147.45
686.32	187.24
686.46	149.79
686.60	133.41
686.73	238.73
686.87	264.48
687.01	245.76
687.14	194.26
687.28	241.08
687.42	124.05
687.55	166.18
687.69	273.84
687.82	170.86
687.96	191.92
688.10	152.13
688.23	170.86
688.37	278.52
688.50	215.33
688.64	145.11
688.78	145.11
688.91	177.88
689.05	203.63
689.18	241.08
689.32	163.84
689.46	133.41
689.59	191.92
689.73	180.22
689.86	175.54
690.00	166.18
690.13	175.54
690.27	191.92
690.41	212.99
690.54	236.39
690.68	163.84
690.81	133.41
690.95	220.01
691.08	152.13
691.22	187.24
691.35	168.52
691.49	231.71
691.62	208.31
691.76	156.82
691.89	170.86
692.03	175.54
692.16	208.31
692.30	299.59
692.43	573.43
692.57	1867.75
692.70	3627.83
692.84	5020.45
692.97	4781.71
693.11	3515.48
693.24	2626.08
693.38	1750.72
693.51	1184.31
693.65	791.10
693.78	538.32
693.92	381.51
694.05	318.31
694.19	250.44
694.32	196.60
694.45	196.60
694.59	238.73
694.72	198.95
694.86	224.69
694.99	170.86
695.13	205.97
695.26	227.03
695.39	201.29
695.53	299.59
695.66	215.33
695.80	248.10
695.93	215.33
696.07	236.39
696.20	273.84
696.33	376.83
696.47	407.25
696.60	433.00
696.73	477.47
696.87	358.10
697.00	330.02
697.14	227.03
697.27	250.44
697.40	287.89
697.54	182.56
697.67	227.03
697.80	208.31
697.94	189.58
698.07	227.03
698.21	149.79
698.34	250.44
698.47	156.82
698.61	175.54
698.74	189.58
698.87	208.31
699.01	163.84
699.14	168.52
699.27	184.90
699.40	257.46
699.54	198.95
699.67	222.35
699.80	140.43
699.94	241.08
700.07	205.97
700.20	114.69
700.34	168.52
700.47	135.75
700.60	145.11
700.73	135.75
700.87	234.05
701.00	180.22
701.13	227.03
701.26	215.33
701.40	154.48
701.53	140.43
701.66	227.03
701.79	166.18
701.93	245.76
702.06	255.12
702.19	379.17
702.32	528.96
702.46	456.40
702.59	486.83
702.72	718.54
702.85	2345.22
702.99	5554.09
703.12	8432.95
703.25	10003.45
703.38	8365.07
703.51	6696.27
703.65	5078.96
703.78	3768.26
703.91	2424.80
704.04	1570.50
704.17	1069.62
704.31	685.78
704.44	435.34
704.57	358.10
704.70	224.69
704.83	262.14
704.96	285.55
705.10	224.69
705.23	191.92
>>>>>End Processed Spectral Data<<<<<
