SpectraSuite Data File
++++++++++++++++++++++++++++++++++++
Date: Fri Oct 04 11:34:02 GMT-05:00 2013
User: price-jones
Dark Spectrum Present: No
Reference Spectrum Present: No
Number of Sampled Component Spectra: 1
Spectrometers: USB2+H05261
Integration Time (usec): 100000 (USB2+H05261)
Spectra Averaged: 1 (USB2+H05261)
Boxcar Smoothing: 0 (USB2+H05261)
Correct for Electrical Dark: No (USB2+H05261)
Strobe/Lamp Enabled: No (USB2+H05261)
Correct for Detector Non-linearity: No (USB2+H05261)
Correct for Stray Light: No (USB2+H05261)
Number of Pixels in Processed Spectrum: 2048
>>>>>Begin Processed Spectral Data<<<<<
365.73	72.56
365.92	72.56
366.12	72.56
366.32	0.00
366.52	0.00
366.72	0.00
366.91	0.00
367.11	0.00
367.31	4.68
367.51	18.72
367.70	0.00
367.90	4.68
368.10	0.00
368.30	0.00
368.49	0.00
368.69	0.00
368.89	0.00
369.09	0.00
369.28	23.41
369.48	0.00
369.68	2.34
369.87	28.09
370.07	21.06
370.27	35.11
370.47	79.58
370.66	63.19
370.86	74.90
371.06	147.45
371.25	138.09
371.45	100.64
371.65	194.26
371.84	135.75
372.04	117.03
372.24	154.48
372.44	159.16
372.63	140.43
372.83	184.90
373.03	154.48
373.22	107.66
373.42	140.43
373.62	105.32
373.81	140.43
374.01	163.84
374.21	287.89
374.40	161.50
374.60	191.92
374.79	100.64
374.99	117.03
375.19	168.52
375.38	159.16
375.58	161.50
375.78	145.11
375.97	161.50
376.17	215.33
376.37	152.13
376.56	191.92
376.76	159.16
376.95	138.09
377.15	149.79
377.35	215.33
377.54	182.56
377.74	191.92
377.93	149.79
378.13	243.42
378.33	128.73
378.52	58.51
378.72	196.60
378.91	163.84
379.11	88.94
379.31	100.64
379.50	142.77
379.70	138.09
379.89	126.39
380.09	147.45
380.28	152.13
380.48	112.35
380.68	126.39
380.87	79.58
381.07	74.90
381.26	182.56
381.46	201.29
381.65	208.31
381.85	140.43
382.04	86.60
382.24	117.03
382.43	102.98
382.63	77.24
382.83	72.56
383.02	156.82
383.22	184.90
383.41	81.92
383.61	180.22
383.80	145.11
384.00	138.09
384.19	117.03
384.39	119.37
384.58	133.41
384.78	110.01
384.97	175.54
385.17	100.64
385.36	135.75
385.56	135.75
385.75	138.09
385.95	147.45
386.14	149.79
386.34	138.09
386.53	163.84
386.72	121.71
386.92	126.39
387.11	170.86
387.31	159.16
387.50	105.32
387.70	173.20
387.89	156.82
388.09	119.37
388.28	105.32
388.48	142.77
388.67	163.84
388.86	182.56
389.06	208.31
389.25	131.07
389.45	177.88
389.64	133.41
389.84	142.77
390.03	138.09
390.22	107.66
390.42	145.11
390.61	88.94
390.81	105.32
391.00	187.24
391.19	189.58
391.39	72.56
391.58	121.71
391.78	147.45
391.97	98.30
392.16	119.37
392.36	187.24
392.55	107.66
392.75	149.79
392.94	152.13
393.13	154.48
393.33	114.69
393.52	161.50
393.71	168.52
393.91	161.50
394.10	91.28
394.29	163.84
394.49	175.54
394.68	166.18
394.88	215.33
395.07	161.50
395.26	161.50
395.46	152.13
395.65	161.50
395.84	173.20
396.04	175.54
396.23	145.11
396.42	175.54
396.62	117.03
396.81	135.75
397.00	175.54
397.19	205.97
397.39	166.18
397.58	152.13
397.77	145.11
397.97	173.20
398.16	124.05
398.35	149.79
398.55	154.48
398.74	177.88
398.93	222.35
399.12	114.69
399.32	215.33
399.51	152.13
399.70	149.79
399.90	95.96
400.09	161.50
400.28	133.41
400.47	81.92
400.67	152.13
400.86	131.07
401.05	131.07
401.24	180.22
401.44	154.48
401.63	191.92
401.82	140.43
402.01	98.30
402.21	187.24
402.40	119.37
402.59	74.90
402.78	107.66
402.97	170.86
403.17	114.69
403.36	126.39
403.55	234.05
403.74	154.48
403.93	273.84
404.13	234.05
404.32	257.46
404.51	163.84
404.70	189.58
404.89	161.50
405.09	229.37
405.28	229.37
405.47	124.05
405.66	196.60
405.85	177.88
406.05	121.71
406.24	84.26
406.43	168.52
406.62	135.75
406.81	234.05
407.00	95.96
407.20	191.92
407.39	187.24
407.58	170.86
407.77	140.43
407.96	170.86
408.15	250.44
408.34	210.65
408.54	140.43
408.73	182.56
408.92	154.48
409.11	168.52
409.30	147.45
409.49	128.73
409.68	187.24
409.87	149.79
410.07	191.92
410.26	149.79
410.45	60.85
410.64	65.54
410.83	124.05
411.02	131.07
411.21	189.58
411.40	224.69
411.59	198.95
411.78	126.39
411.98	112.35
412.17	117.03
412.36	149.79
412.55	170.86
412.74	205.97
412.93	170.86
413.12	119.37
413.31	168.52
413.50	203.63
413.69	177.88
413.88	220.01
414.07	222.35
414.26	107.66
414.45	142.77
414.64	191.92
414.83	159.16
415.02	187.24
415.22	79.58
415.41	191.92
415.60	173.20
415.79	271.50
415.98	140.43
416.17	168.52
416.36	189.58
416.55	149.79
416.74	175.54
416.93	159.16
417.12	142.77
417.31	177.88
417.50	203.63
417.69	292.57
417.88	229.37
418.07	217.67
418.26	156.82
418.45	152.13
418.64	257.46
418.83	208.31
419.02	231.71
419.21	161.50
419.39	194.26
419.58	210.65
419.77	177.88
419.96	229.37
420.15	264.48
420.34	81.92
420.53	170.86
420.72	173.20
420.91	194.26
421.10	182.56
421.29	229.37
421.48	170.86
421.67	159.16
421.86	142.77
422.05	212.99
422.24	205.97
422.43	168.52
422.61	173.20
422.80	117.03
422.99	177.88
423.18	93.62
423.37	142.77
423.56	126.39
423.75	191.92
423.94	154.48
424.13	156.82
424.32	149.79
424.50	159.16
424.69	126.39
424.88	180.22
425.07	156.82
425.26	243.42
425.45	280.86
425.64	210.65
425.83	262.14
426.01	236.39
426.20	138.09
426.39	180.22
426.58	201.29
426.77	175.54
426.96	182.56
427.15	220.01
427.33	220.01
427.52	126.39
427.71	166.18
427.90	154.48
428.09	154.48
428.28	149.79
428.46	215.33
428.65	140.43
428.84	173.20
429.03	154.48
429.22	133.41
429.40	81.92
429.59	140.43
429.78	205.97
429.97	173.20
430.16	205.97
430.34	189.58
430.53	182.56
430.72	166.18
430.91	142.77
431.10	168.52
431.28	133.41
431.47	159.16
431.66	227.03
431.85	168.52
432.03	205.97
432.22	234.05
432.41	147.45
432.60	177.88
432.79	191.92
432.97	245.76
433.16	292.57
433.35	236.39
433.54	133.41
433.72	163.84
433.91	203.63
434.10	234.05
434.28	170.86
434.47	184.90
434.66	217.67
434.85	191.92
435.03	273.84
435.22	386.19
435.41	550.03
435.59	627.26
435.78	428.32
435.97	276.18
436.16	250.44
436.34	187.24
436.53	217.67
436.72	203.63
436.90	191.92
437.09	220.01
437.28	217.67
437.46	142.77
437.65	189.58
437.84	159.16
438.02	142.77
438.21	212.99
438.40	159.16
438.58	154.48
438.77	196.60
438.96	154.48
439.14	198.95
439.33	241.08
439.52	159.16
439.70	168.52
439.89	168.52
440.08	161.50
440.26	114.69
440.45	227.03
440.63	98.30
440.82	163.84
441.01	175.54
441.19	187.24
441.38	168.52
441.57	152.13
441.75	252.78
441.94	229.37
442.12	131.07
442.31	238.73
442.50	184.90
442.68	154.48
442.87	140.43
443.05	133.41
443.24	259.80
443.43	156.82
443.61	166.18
443.80	112.35
443.98	187.24
444.17	173.20
444.35	187.24
444.54	175.54
444.73	248.10
444.91	266.82
445.10	184.90
445.28	145.11
445.47	191.92
445.65	187.24
445.84	222.35
446.02	163.84
446.21	175.54
446.39	168.52
446.58	217.67
446.77	175.54
446.95	170.86
447.14	201.29
447.32	170.86
447.51	210.65
447.69	189.58
447.88	142.77
448.06	250.44
448.25	177.88
448.43	110.01
448.62	149.79
448.80	163.84
448.99	135.75
449.17	215.33
449.36	201.29
449.54	236.39
449.73	156.82
449.91	234.05
450.10	210.65
450.28	191.92
450.46	238.73
450.65	231.71
450.83	175.54
451.02	215.33
451.20	128.73
451.39	215.33
451.57	191.92
451.76	152.13
451.94	198.95
452.13	210.65
452.31	227.03
452.49	212.99
452.68	93.62
452.86	170.86
453.05	236.39
453.23	257.46
453.42	145.11
453.60	194.26
453.78	180.22
453.97	215.33
454.15	238.73
454.34	135.75
454.52	142.77
454.70	306.61
454.89	175.54
455.07	140.43
455.26	131.07
455.44	145.11
455.62	191.92
455.81	236.39
455.99	229.37
456.17	156.82
456.36	203.63
456.54	170.86
456.73	191.92
456.91	182.56
457.09	88.94
457.28	189.58
457.46	243.42
457.64	222.35
457.83	163.84
458.01	203.63
458.19	196.60
458.38	222.35
458.56	154.48
458.74	168.52
458.93	236.39
459.11	212.99
459.29	147.45
459.48	217.67
459.66	208.31
459.84	189.58
460.03	344.06
460.21	138.09
460.39	201.29
460.57	227.03
460.76	170.86
460.94	191.92
461.12	245.76
461.31	236.39
461.49	72.56
461.67	168.52
461.85	163.84
462.04	147.45
462.22	669.39
462.40	222.35
462.59	175.54
462.77	124.05
462.95	168.52
463.13	194.26
463.32	220.01
463.50	248.10
463.68	227.03
463.86	180.22
464.05	138.09
464.23	217.67
464.41	217.67
464.59	168.52
464.78	135.75
464.96	212.99
465.14	154.48
465.32	196.60
465.50	184.90
465.69	194.26
465.87	243.42
466.05	278.52
466.23	196.60
466.41	187.24
466.60	269.16
466.78	152.13
466.96	222.35
467.14	166.18
467.32	294.91
467.51	126.39
467.69	234.05
467.87	201.29
468.05	210.65
468.23	238.73
468.41	196.60
468.60	198.95
468.78	175.54
468.96	241.08
469.14	250.44
469.32	215.33
469.50	168.52
469.69	271.50
469.87	229.37
470.05	187.24
470.23	154.48
470.41	180.22
470.59	248.10
470.77	245.76
470.95	147.45
471.14	217.67
471.32	215.33
471.50	255.12
471.68	149.79
471.86	196.60
472.04	145.11
472.22	184.90
472.40	91.28
472.58	170.86
472.77	168.52
472.95	205.97
473.13	238.73
473.31	280.86
473.49	220.01
473.67	210.65
473.85	212.99
474.03	224.69
474.21	175.54
474.39	180.22
474.57	236.39
474.75	170.86
474.93	205.97
475.12	191.92
475.30	252.78
475.48	145.11
475.66	205.97
475.84	112.35
476.02	215.33
476.20	243.42
476.38	217.67
476.56	227.03
476.74	227.03
476.92	229.37
477.10	142.77
477.28	154.48
477.46	177.88
477.64	184.90
477.82	313.63
478.00	196.60
478.18	187.24
478.36	135.75
478.54	229.37
478.72	184.90
478.90	168.52
479.08	187.24
479.26	271.50
479.44	243.42
479.62	170.86
479.80	191.92
479.98	255.12
480.16	243.42
480.34	269.16
480.52	152.13
480.70	208.31
480.88	212.99
481.06	217.67
481.24	203.63
481.41	208.31
481.59	231.71
481.77	210.65
481.95	234.05
482.13	224.69
482.31	248.10
482.49	154.48
482.67	212.99
482.85	205.97
483.03	173.20
483.21	241.08
483.39	229.37
483.57	166.18
483.74	285.55
483.92	287.89
484.10	212.99
484.28	212.99
484.46	297.25
484.64	217.67
484.82	191.92
485.00	245.76
485.18	262.14
485.35	236.39
485.53	266.82
485.71	285.55
485.89	161.50
486.07	318.31
486.25	334.70
486.43	205.97
486.61	191.92
486.78	241.08
486.96	201.29
487.14	257.46
487.32	262.14
487.50	292.57
487.68	255.12
487.85	184.90
488.03	334.70
488.21	271.50
488.39	257.46
488.57	264.48
488.75	255.12
488.92	528.96
489.10	257.46
489.28	262.14
489.46	217.67
489.64	191.92
489.81	238.73
489.99	290.23
490.17	222.35
490.35	264.48
490.53	243.42
490.70	198.95
490.88	297.25
491.06	294.91
491.24	210.65
491.41	227.03
491.59	227.03
491.77	175.54
491.95	224.69
492.13	231.71
492.30	196.60
492.48	262.14
492.66	271.50
492.84	255.12
493.01	208.31
493.19	217.67
493.37	292.57
493.54	266.82
493.72	285.55
493.90	266.82
494.08	238.73
494.25	191.92
494.43	325.33
494.61	252.78
494.79	273.84
494.96	294.91
495.14	234.05
495.32	278.52
495.49	266.82
495.67	313.63
495.85	259.80
496.02	308.95
496.20	259.80
496.38	311.29
496.55	238.73
496.73	285.55
496.91	299.59
497.09	264.48
497.26	280.86
497.44	229.37
497.62	318.31
497.79	248.10
497.97	306.61
498.14	163.84
498.32	215.33
498.50	280.86
498.67	152.13
498.85	217.67
499.03	203.63
499.20	313.63
499.38	173.20
499.56	231.71
499.73	358.10
499.91	269.16
500.08	238.73
500.26	222.35
500.44	292.57
500.61	255.12
500.79	257.46
500.97	297.25
501.14	245.76
501.32	227.03
501.49	264.48
501.67	217.67
501.84	203.63
502.02	229.37
502.20	191.92
502.37	224.69
502.55	269.16
502.72	222.35
502.90	257.46
503.07	191.92
503.25	198.95
503.43	301.93
503.60	301.93
503.78	322.99
503.95	348.74
504.13	210.65
504.30	334.70
504.48	266.82
504.65	231.71
504.83	276.18
505.01	222.35
505.18	201.29
505.36	273.84
505.53	170.86
505.71	222.35
505.88	248.10
506.06	208.31
506.23	266.82
506.41	234.05
506.58	304.27
506.76	210.65
506.93	194.26
507.11	271.50
507.28	264.48
507.46	191.92
507.63	196.60
507.81	255.12
507.98	147.45
508.16	290.23
508.33	205.97
508.50	224.69
508.68	299.59
508.85	252.78
509.03	297.25
509.20	201.29
509.38	278.52
509.55	332.36
509.73	297.25
509.90	327.68
510.08	276.18
510.25	269.16
510.42	203.63
510.60	243.42
510.77	315.97
510.95	248.10
511.12	194.26
511.30	278.52
511.47	334.70
511.64	376.83
511.82	269.16
511.99	250.44
512.17	238.73
512.34	318.31
512.51	243.42
512.69	283.20
512.86	250.44
513.04	203.63
513.21	259.80
513.38	203.63
513.56	269.16
513.73	222.35
513.90	227.03
514.08	245.76
514.25	280.86
514.43	290.23
514.60	231.71
514.77	255.12
514.95	304.27
515.12	196.60
515.29	252.78
515.47	273.84
515.64	325.33
515.81	306.61
515.99	264.48
516.16	194.26
516.33	304.27
516.51	191.92
516.68	266.82
516.85	189.58
517.03	269.16
517.20	278.52
517.37	332.36
517.54	311.29
517.72	227.03
517.89	196.60
518.06	152.13
518.24	248.10
518.41	311.29
518.58	322.99
518.75	259.80
518.93	269.16
519.10	287.89
519.27	262.14
519.45	280.86
519.62	330.02
519.79	297.25
519.96	224.69
520.14	264.48
520.31	245.76
520.48	238.73
520.65	276.18
520.83	248.10
521.00	285.55
521.17	227.03
521.34	224.69
521.52	280.86
521.69	217.67
521.86	318.31
522.03	346.40
522.20	327.68
522.38	372.15
522.55	273.84
522.72	215.33
522.89	220.01
523.07	332.36
523.24	287.89
523.41	245.76
523.58	250.44
523.75	252.78
523.92	227.03
524.10	269.16
524.27	311.29
524.44	236.39
524.61	194.26
524.78	301.93
524.96	294.91
525.13	278.52
525.30	227.03
525.47	241.08
525.64	325.33
525.81	245.76
525.98	222.35
526.16	234.05
526.33	301.93
526.50	222.35
526.67	224.69
526.84	322.99
527.01	283.20
527.18	285.55
527.36	212.99
527.53	285.55
527.70	287.89
527.87	203.63
528.04	292.57
528.21	236.39
528.38	241.08
528.55	271.50
528.72	257.46
528.89	248.10
529.07	259.80
529.24	252.78
529.41	311.29
529.58	278.52
529.75	353.42
529.92	292.57
530.09	273.84
530.26	250.44
530.43	266.82
530.60	236.39
530.77	227.03
530.94	271.50
531.11	273.84
531.28	231.71
531.46	285.55
531.63	217.67
531.80	231.71
531.97	271.50
532.14	243.42
532.31	255.12
532.48	304.27
532.65	435.34
532.82	330.02
532.99	390.87
533.16	379.17
533.33	318.31
533.50	308.95
533.67	348.74
533.84	465.77
534.01	409.59
534.18	425.98
534.35	390.87
534.52	330.02
534.69	360.44
534.86	264.48
535.03	301.93
535.20	292.57
535.37	360.44
535.54	278.52
535.71	292.57
535.88	353.42
536.05	311.29
536.22	337.04
536.38	262.14
536.55	212.99
536.72	330.02
536.89	285.55
537.06	358.10
537.23	278.52
537.40	355.76
537.57	273.84
537.74	327.68
537.91	308.95
538.08	311.29
538.25	271.50
538.42	369.80
538.59	306.61
538.75	381.51
538.92	332.36
539.09	386.19
539.26	372.15
539.43	580.45
539.60	1100.05
539.77	1486.24
539.94	1551.78
540.11	1004.09
540.28	772.38
540.44	638.97
540.61	507.90
540.78	402.57
540.95	521.94
541.12	657.69
541.29	620.24
541.46	603.86
541.62	620.24
541.79	514.92
541.96	557.05
542.13	505.56
542.30	533.64
542.47	533.64
542.63	521.94
542.80	519.60
542.97	526.62
543.14	540.66
543.31	599.18
543.48	554.71
543.64	449.38
543.81	512.58
543.98	514.92
544.15	449.38
544.32	496.19
544.48	573.43
544.65	507.90
544.82	484.49
544.99	458.74
545.16	498.53
545.32	557.05
545.49	758.33
545.66	976.00
545.83	1144.52
546.00	1006.43
546.16	784.08
546.33	653.01
546.50	610.88
546.67	564.07
546.83	493.85
547.00	470.45
547.17	386.19
547.34	482.15
547.50	461.09
547.67	454.06
547.84	393.21
548.00	486.83
548.17	425.98
548.34	447.04
548.51	451.72
548.67	454.06
548.84	332.36
549.01	442.36
549.18	376.83
549.34	362.78
549.51	379.17
549.68	433.00
549.84	365.12
550.01	395.55
550.18	458.74
550.34	353.42
550.51	299.59
550.68	365.12
550.84	332.36
551.01	367.46
551.18	348.74
551.34	278.52
551.51	381.51
551.68	330.02
551.84	351.08
552.01	346.40
552.18	313.63
552.34	285.55
552.51	332.36
552.68	330.02
552.84	248.10
553.01	292.57
553.18	374.49
553.34	348.74
553.51	220.01
553.67	297.25
553.84	341.72
554.01	381.51
554.17	372.15
554.34	346.40
554.51	318.31
554.67	318.31
554.84	311.29
555.00	301.93
555.17	299.59
555.33	304.27
555.50	227.03
555.67	339.38
555.83	257.46
556.00	257.46
556.16	414.27
556.33	266.82
556.50	292.57
556.66	285.55
556.83	311.29
556.99	297.25
557.16	184.90
557.32	299.59
557.49	283.20
557.65	266.82
557.82	234.05
557.98	250.44
558.15	217.67
558.32	180.22
558.48	208.31
558.65	276.18
558.81	287.89
558.98	229.37
559.14	308.95
559.31	205.97
559.47	231.71
559.64	252.78
559.80	259.80
559.97	224.69
560.13	337.04
560.30	215.33
560.46	262.14
560.63	266.82
560.79	234.05
560.96	264.48
561.12	180.22
561.29	259.80
561.45	292.57
561.61	262.14
561.78	325.33
561.94	262.14
562.11	234.05
562.27	259.80
562.44	194.26
562.60	208.31
562.77	266.82
562.93	330.02
563.10	287.89
563.26	224.69
563.42	236.39
563.59	177.88
563.75	252.78
563.92	346.40
564.08	271.50
564.24	290.23
564.41	264.48
564.57	212.99
564.74	264.48
564.90	231.71
565.07	266.82
565.23	393.21
565.39	278.52
565.56	322.99
565.72	262.14
565.88	248.10
566.05	280.86
566.21	269.16
566.38	236.39
566.54	304.27
566.70	234.05
566.87	210.65
567.03	257.46
567.19	299.59
567.36	264.48
567.52	234.05
567.68	259.80
567.85	283.20
568.01	351.08
568.17	320.65
568.34	290.23
568.50	271.50
568.66	252.78
568.83	351.08
568.99	215.33
569.15	273.84
569.32	243.42
569.48	266.82
569.64	222.35
569.81	283.20
569.97	285.55
570.13	252.78
570.30	264.48
570.46	262.14
570.62	283.20
570.78	259.80
570.95	248.10
571.11	285.55
571.27	241.08
571.43	325.33
571.60	322.99
571.76	313.63
571.92	175.54
572.09	234.05
572.25	234.05
572.41	341.72
572.57	222.35
572.74	311.29
572.90	304.27
573.06	348.74
573.22	304.27
573.38	304.27
573.55	341.72
573.71	227.03
573.87	301.93
574.03	313.63
574.20	299.59
574.36	353.42
574.52	297.25
574.68	332.36
574.84	376.83
575.01	262.14
575.17	234.05
575.33	266.82
575.49	262.14
575.65	348.74
575.82	362.78
575.98	552.37
576.14	613.22
576.30	657.69
576.46	557.05
576.62	592.16
576.79	477.47
576.95	479.81
577.11	325.33
577.27	454.06
577.43	353.42
577.59	393.21
577.75	369.80
577.92	299.59
578.08	283.20
578.24	229.37
578.40	264.48
578.56	482.15
578.72	456.40
578.88	461.09
579.04	463.43
579.21	374.49
579.37	421.30
579.53	365.12
579.69	416.62
579.85	383.85
580.01	402.57
580.17	425.98
580.33	428.32
580.49	369.80
580.65	320.65
580.82	334.70
580.98	355.76
581.14	362.78
581.30	393.21
581.46	479.81
581.62	571.09
581.78	610.88
581.94	674.07
582.10	526.62
582.26	475.13
582.42	491.51
582.58	496.19
582.74	423.64
582.90	568.75
583.06	454.06
583.22	517.26
583.38	517.26
583.54	489.17
583.70	629.60
583.86	723.23
584.02	816.85
584.18	917.49
584.34	1167.93
584.50	2906.95
584.66	20940.77
584.82	53291.66
584.98	62796.57
585.14	59564.29
585.30	43580.78
585.46	26698.49
585.62	16477.37
585.78	7793.98
585.94	3068.44
586.10	1507.30
586.26	1057.92
586.42	938.55
586.58	723.23
586.74	751.31
586.90	734.93
587.06	580.45
587.22	638.97
587.38	575.77
587.54	1277.93
587.70	3405.48
587.86	5188.97
588.02	5717.93
588.18	4131.05
588.34	2757.15
588.49	1813.92
588.65	1111.75
588.81	676.41
588.97	416.62
589.13	320.65
589.29	407.25
589.45	435.34
589.61	428.32
589.77	416.62
589.93	472.79
590.08	489.17
590.24	479.81
590.40	477.47
590.56	547.69
590.72	390.87
590.88	472.79
591.04	407.25
591.20	367.46
591.35	414.27
591.51	362.78
591.67	388.53
591.83	318.31
591.99	395.55
592.15	414.27
592.31	379.17
592.46	315.97
592.62	355.76
592.78	416.62
592.94	416.62
593.10	360.44
593.26	418.96
593.41	451.72
593.57	451.72
593.73	547.69
593.89	2682.25
594.05	6972.46
594.20	9736.63
594.36	9153.84
594.52	6193.06
594.68	3911.04
594.84	2752.47
594.99	1521.35
595.15	781.74
595.31	503.22
595.47	390.87
595.62	337.04
595.78	301.93
595.94	327.68
596.10	383.85
596.25	395.55
596.41	451.72
596.57	358.10
596.73	301.93
596.88	580.45
597.04	1366.87
597.20	2202.44
597.36	2565.23
597.51	1858.39
597.67	1301.34
597.83	994.73
597.99	613.22
598.14	402.57
598.30	400.23
598.46	346.40
598.61	451.72
598.77	318.31
598.93	346.40
599.09	374.49
599.24	379.17
599.40	449.38
599.56	365.12
599.71	325.33
599.87	339.38
600.03	372.15
600.18	294.91
600.34	273.84
600.50	353.42
600.65	283.20
600.81	313.63
600.97	325.33
601.12	294.91
601.28	372.15
601.44	346.40
601.59	217.67
601.75	231.71
601.91	311.29
602.06	341.72
602.22	397.89
602.37	748.97
602.53	1638.38
602.69	2420.11
602.84	2576.93
603.00	1982.43
603.16	1327.08
603.31	1006.43
603.47	683.44
603.62	421.30
603.78	285.55
603.94	313.63
604.09	332.36
604.25	337.04
604.40	280.86
604.56	313.63
604.71	257.46
604.87	290.23
605.03	325.33
605.18	386.19
605.34	341.72
605.49	372.15
605.65	355.76
605.80	306.61
605.96	360.44
606.12	430.66
606.27	341.72
606.43	500.87
606.58	486.83
606.74	788.76
606.89	3162.06
607.05	6242.21
607.20	8421.25
607.36	7131.61
607.51	4819.16
607.67	3283.77
607.82	2115.84
607.98	1296.66
608.13	671.73
608.29	552.37
608.44	468.11
608.60	489.17
608.75	538.32
608.91	1165.59
609.06	4978.32
609.22	11169.04
609.37	14707.93
609.53	12720.81
609.68	8589.77
609.84	5746.02
609.99	3981.25
610.15	2214.15
610.30	1343.47
610.46	1027.50
610.61	973.66
610.76	1041.54
610.92	1160.91
611.07	1167.93
611.23	1268.57
611.38	1203.04
611.54	1188.99
611.69	947.92
611.84	819.19
612.00	833.23
612.15	587.47
612.31	830.89
612.46	844.93
612.62	980.68
612.77	950.26
612.92	877.70
613.08	727.91
613.23	737.27
613.39	727.91
613.54	968.98
613.69	4346.37
613.85	13406.59
614.00	21542.29
614.15	23613.66
614.31	16156.72
614.46	10579.22
614.62	7386.73
614.77	4376.80
614.92	2101.80
615.08	1158.57
615.23	746.63
615.38	664.71
615.54	596.84
615.69	1036.86
615.84	2691.62
616.00	4828.53
616.15	6136.88
616.30	4887.04
616.46	3431.23
616.61	2403.73
616.76	1652.42
616.92	1039.20
617.07	613.22
617.22	493.85
617.37	418.96
617.53	472.79
617.68	374.49
617.83	358.10
617.99	468.11
618.14	465.77
618.29	383.85
618.45	285.55
618.60	252.78
618.75	346.40
618.90	381.51
619.06	411.93
619.21	292.57
619.36	358.10
619.51	348.74
619.67	332.36
619.82	238.73
619.97	311.29
620.12	369.80
620.28	341.72
620.43	339.38
620.58	353.42
620.73	360.44
620.89	372.15
621.04	543.00
621.19	1533.05
621.34	2778.22
621.49	3574.00
621.65	3251.00
621.80	2300.75
621.95	1575.18
622.10	1198.35
622.25	753.65
622.41	491.51
622.56	407.25
622.71	362.78
622.86	369.80
623.01	308.95
623.16	395.55
623.32	332.36
623.47	341.72
623.62	341.72
623.77	308.95
623.92	287.89
624.07	229.37
624.23	374.49
624.38	334.70
624.53	327.68
624.68	322.99
624.83	355.76
624.98	374.49
625.13	388.53
625.29	353.42
625.44	308.95
625.59	379.17
625.74	447.04
625.89	592.16
626.04	2115.84
626.19	6628.40
626.34	10377.94
626.49	11852.47
626.65	8720.84
626.80	5994.11
626.95	4086.58
627.10	2541.82
627.25	1364.53
627.40	748.97
627.55	517.26
627.70	379.17
627.85	358.10
628.00	308.95
628.15	320.65
628.30	241.08
628.45	346.40
628.60	337.04
628.76	308.95
628.91	259.80
629.06	304.27
629.21	308.95
629.36	290.23
629.51	341.72
629.66	430.66
629.81	507.90
629.96	1200.69
630.11	2373.30
630.26	3180.79
630.41	2801.62
630.56	2064.35
630.71	1547.09
630.86	1128.14
631.01	648.33
631.16	603.86
631.31	416.62
631.46	468.11
631.61	292.57
631.76	351.08
631.91	411.93
632.06	304.27
632.21	381.51
632.36	360.44
632.51	395.55
632.66	425.98
632.81	1104.73
632.96	3719.11
633.10	6462.22
633.25	8100.59
633.40	6558.18
633.55	4685.75
633.70	3115.25
633.85	2143.93
634.00	1219.42
634.15	599.18
634.30	397.89
634.45	367.46
634.60	339.38
634.75	280.86
634.90	306.61
635.05	271.50
635.19	308.95
635.34	266.82
635.49	353.42
635.64	327.68
635.79	257.46
635.94	292.57
636.09	280.86
636.24	252.78
636.39	294.91
636.53	369.80
636.68	283.20
636.83	353.42
636.98	351.08
637.13	346.40
637.28	425.98
637.43	472.79
637.57	702.16
637.72	3066.10
637.87	8540.61
638.02	13937.89
638.17	14712.61
638.32	11054.35
638.46	7616.10
638.61	5401.96
638.76	2993.55
638.91	1692.21
639.06	854.30
639.20	592.16
639.35	608.54
639.50	823.87
639.65	4327.65
639.80	13249.77
639.94	21139.72
640.09	22944.27
640.24	16989.95
640.39	11721.40
640.54	8011.65
640.68	4805.12
640.83	2333.51
640.98	1184.31
641.13	758.33
641.27	479.81
641.42	388.53
641.57	451.72
641.72	353.42
641.86	266.82
642.01	411.93
642.16	306.61
642.31	308.95
642.45	287.89
642.60	259.80
642.75	278.52
642.90	266.82
643.04	201.29
643.19	262.14
643.34	229.37
643.48	292.57
643.63	238.73
643.78	278.52
643.93	264.48
644.07	238.73
644.22	369.80
644.37	194.26
644.51	301.93
644.66	362.78
644.81	215.33
644.95	299.59
645.10	203.63
645.25	238.73
645.39	224.69
645.54	259.80
645.69	285.55
645.83	255.12
645.98	250.44
646.13	234.05
646.27	248.10
646.42	276.18
646.57	173.20
646.71	304.27
646.86	196.60
647.00	229.37
647.15	236.39
647.30	180.22
647.44	255.12
647.59	245.76
647.74	177.88
647.88	194.26
648.03	269.16
648.17	257.46
648.32	306.61
648.47	332.36
648.61	222.35
648.76	294.91
648.90	227.03
649.05	257.46
649.20	257.46
649.34	311.29
649.49	175.54
649.63	322.99
649.78	414.27
649.92	594.50
650.07	1863.07
650.21	5589.20
650.36	9589.17
650.51	11808.00
650.65	9472.15
650.80	6841.39
650.94	4608.51
651.09	3138.66
651.23	1579.86
651.38	837.91
651.52	512.58
651.67	339.38
651.81	301.93
651.96	355.76
652.10	308.95
652.25	285.55
652.39	362.78
652.54	358.10
652.68	631.94
652.83	1799.87
652.97	3403.14
653.12	4306.59
653.26	3854.86
653.41	2663.53
653.55	2015.20
653.70	1268.57
653.84	763.01
653.99	493.85
654.13	304.27
654.27	292.57
654.42	294.91
654.56	210.65
654.71	287.89
654.85	264.48
655.00	159.16
655.14	241.08
655.29	241.08
655.43	229.37
655.57	269.16
655.72	241.08
655.86	262.14
656.01	220.01
656.15	203.63
656.30	236.39
656.44	217.67
656.58	187.24
656.73	276.18
656.87	194.26
657.01	294.91
657.16	250.44
657.30	243.42
657.45	273.84
657.59	252.78
657.73	208.31
657.88	290.23
658.02	220.01
658.16	287.89
658.31	243.42
658.45	191.92
658.60	276.18
658.74	224.69
658.88	184.90
659.03	262.14
659.17	304.27
659.31	828.55
659.46	2588.63
659.60	4762.99
659.74	6003.47
659.89	5217.05
660.03	3836.14
660.17	2668.21
660.32	1699.23
660.46	1006.43
660.60	606.20
660.74	372.15
660.89	297.25
661.03	250.44
661.17	278.52
661.32	163.84
661.46	222.35
661.60	234.05
661.74	238.73
661.89	262.14
662.03	269.16
662.17	210.65
662.31	212.99
662.46	220.01
662.60	241.08
662.74	184.90
662.88	196.60
663.03	220.01
663.17	238.73
663.31	245.76
663.45	290.23
663.60	266.82
663.74	248.10
663.88	210.65
664.02	243.42
664.17	189.58
664.31	184.90
664.45	280.86
664.59	255.12
664.73	262.14
664.88	201.29
665.02	198.95
665.16	163.84
665.30	264.48
665.44	243.42
665.59	252.78
665.73	231.71
665.87	198.95
666.01	245.76
666.15	243.42
666.29	262.14
666.44	189.58
666.58	365.12
666.72	217.67
666.86	264.48
667.00	397.89
667.14	414.27
667.28	1631.35
667.43	4685.75
667.57	8299.54
667.71	10331.12
667.85	8805.10
667.99	6511.37
668.13	4236.37
668.27	2569.91
668.41	1383.26
668.56	947.92
668.70	629.60
668.84	388.53
668.98	308.95
669.12	266.82
669.26	248.10
669.40	327.68
669.54	287.89
669.68	266.82
669.82	234.05
669.96	250.44
670.10	163.84
670.25	238.73
670.39	299.59
670.53	177.88
670.67	287.89
670.81	231.71
670.95	332.36
671.09	503.22
671.23	1825.62
671.37	4173.18
671.51	6026.88
671.65	6349.87
671.79	4938.53
671.93	3445.27
672.07	2167.34
672.21	1348.15
672.35	702.16
672.49	458.74
672.63	383.85
672.77	292.57
672.91	229.37
673.05	306.61
673.19	285.55
673.33	170.86
673.47	273.84
673.61	222.35
673.75	210.65
673.89	252.78
674.03	180.22
674.17	170.86
674.31	208.31
674.45	156.82
674.59	220.01
674.73	210.65
674.87	210.65
675.01	259.80
675.15	334.70
675.29	353.42
675.43	278.52
675.56	322.99
675.70	262.14
675.84	215.33
675.98	252.78
676.12	231.71
676.26	212.99
676.40	210.65
676.54	220.01
676.68	152.13
676.82	161.50
676.96	159.16
677.10	210.65
677.23	208.31
677.37	245.76
677.51	257.46
677.65	250.44
677.79	187.24
677.93	147.45
678.07	170.86
678.21	191.92
678.34	173.20
678.48	168.52
678.62	201.29
678.76	203.63
678.90	196.60
679.04	170.86
679.18	198.95
679.31	245.76
679.45	187.24
679.59	184.90
679.73	156.82
679.87	163.84
680.00	168.52
680.14	222.35
680.28	128.73
680.42	236.39
680.56	140.43
680.70	189.58
680.83	196.60
680.97	140.43
681.11	201.29
681.25	231.71
681.39	229.37
681.52	212.99
681.66	205.97
681.80	222.35
681.94	166.18
682.07	187.24
682.21	236.39
682.35	231.71
682.49	166.18
682.62	191.92
682.76	187.24
682.90	182.56
683.04	177.88
683.17	220.01
683.31	159.16
683.45	177.88
683.59	156.82
683.72	222.35
683.86	177.88
684.00	212.99
684.13	168.52
684.27	180.22
684.41	234.05
684.55	166.18
684.68	191.92
684.82	161.50
684.96	170.86
685.09	145.11
685.23	105.32
685.37	231.71
685.50	177.88
685.64	205.97
685.78	177.88
685.91	224.69
686.05	212.99
686.19	201.29
686.32	180.22
686.46	163.84
686.60	135.75
686.73	175.54
686.87	194.26
687.01	152.13
687.14	245.76
687.28	238.73
687.42	238.73
687.55	147.45
687.69	241.08
687.82	163.84
687.96	173.20
688.10	156.82
688.23	222.35
688.37	147.45
688.50	229.37
688.64	259.80
688.78	177.88
688.91	166.18
689.05	196.60
689.18	224.69
689.32	201.29
689.46	203.63
689.59	201.29
689.73	182.56
689.86	161.50
690.00	196.60
690.13	60.85
690.27	180.22
690.41	166.18
690.54	220.01
690.68	191.92
690.81	248.10
690.95	163.84
691.08	180.22
691.22	196.60
691.35	168.52
691.49	152.13
691.62	243.42
691.76	173.20
691.89	161.50
692.03	170.86
692.16	210.65
692.30	266.82
692.43	683.44
692.57	2047.97
692.70	3431.23
692.84	4348.72
692.97	4023.38
693.11	3056.74
693.24	2275.00
693.38	1495.60
693.51	1043.88
693.65	711.52
693.78	554.71
693.92	421.30
694.05	320.65
694.19	220.01
694.32	259.80
694.45	208.31
694.59	187.24
694.72	175.54
694.86	182.56
694.99	145.11
695.13	208.31
695.26	203.63
695.39	224.69
695.53	203.63
695.66	231.71
695.80	231.71
695.93	173.20
696.07	212.99
696.20	259.80
696.33	372.15
696.47	362.78
696.60	411.93
696.73	376.83
696.87	299.59
697.00	259.80
697.14	344.06
697.27	191.92
697.40	194.26
697.54	227.03
697.67	152.13
697.80	189.58
697.94	159.16
698.07	147.45
698.21	203.63
698.34	245.76
698.47	152.13
698.61	124.05
698.74	121.71
698.87	243.42
699.01	161.50
699.14	187.24
699.27	229.37
699.40	315.97
699.54	161.50
699.67	154.48
699.80	149.79
699.94	194.26
700.07	198.95
700.20	147.45
700.34	224.69
700.47	238.73
700.60	128.73
700.73	187.24
700.87	215.33
701.00	210.65
701.13	182.56
701.26	133.41
701.40	166.18
701.53	170.86
701.66	180.22
701.79	217.67
701.93	236.39
702.06	383.85
702.19	308.95
702.32	468.11
702.46	409.59
702.59	442.36
702.72	868.34
702.85	2560.55
702.99	5483.88
703.12	7681.64
703.25	8484.44
703.38	7276.73
703.51	5900.49
703.65	4526.60
703.78	3222.92
703.91	2136.91
704.04	1376.24
704.17	894.08
704.31	550.03
704.44	365.12
704.57	285.55
704.70	255.12
704.83	203.63
704.96	299.59
705.10	266.82
705.23	215.33
>>>>>End Processed Spectral Data<<<<<
