SpectraSuite Data File
++++++++++++++++++++++++++++++++++++
Date: Fri Oct 04 11:34:01 GMT-05:00 2013
User: price-jones
Dark Spectrum Present: No
Reference Spectrum Present: No
Number of Sampled Component Spectra: 1
Spectrometers: USB2+H05261
Integration Time (usec): 100000 (USB2+H05261)
Spectra Averaged: 1 (USB2+H05261)
Boxcar Smoothing: 0 (USB2+H05261)
Correct for Electrical Dark: No (USB2+H05261)
Strobe/Lamp Enabled: No (USB2+H05261)
Correct for Detector Non-linearity: No (USB2+H05261)
Correct for Stray Light: No (USB2+H05261)
Number of Pixels in Processed Spectrum: 2048
>>>>>Begin Processed Spectral Data<<<<<
365.73	14.04
365.92	14.04
366.12	14.04
366.32	0.00
366.52	0.00
366.72	53.83
366.91	18.72
367.11	0.00
367.31	0.00
367.51	0.00
367.70	0.00
367.90	0.00
368.10	0.00
368.30	0.00
368.49	0.00
368.69	0.00
368.89	0.00
369.09	0.00
369.28	11.70
369.48	0.00
369.68	35.11
369.87	37.45
370.07	11.70
370.27	86.60
370.47	67.88
370.66	30.43
370.86	100.64
371.06	100.64
371.25	102.98
371.45	161.50
371.65	72.56
371.84	168.52
372.04	105.32
372.24	114.69
372.44	161.50
372.63	63.19
372.83	119.37
373.03	110.01
373.22	58.51
373.42	84.26
373.62	166.18
373.81	112.35
374.01	201.29
374.21	173.20
374.40	182.56
374.60	208.31
374.79	138.09
374.99	203.63
375.19	201.29
375.38	147.45
375.58	175.54
375.78	159.16
375.97	79.58
376.17	177.88
376.37	168.52
376.56	126.39
376.76	168.52
376.95	147.45
377.15	173.20
377.35	114.69
377.54	114.69
377.74	112.35
377.93	93.62
378.13	180.22
378.33	170.86
378.52	173.20
378.72	161.50
378.91	191.92
379.11	138.09
379.31	117.03
379.50	105.32
379.70	180.22
379.89	187.24
380.09	114.69
380.28	100.64
380.48	152.13
380.68	91.28
380.87	156.82
381.07	161.50
381.26	110.01
381.46	170.86
381.65	121.71
381.85	114.69
382.04	145.11
382.24	124.05
382.43	142.77
382.63	145.11
382.83	98.30
383.02	191.92
383.22	128.73
383.41	112.35
383.61	154.48
383.80	198.95
384.00	142.77
384.19	98.30
384.39	110.01
384.58	133.41
384.78	159.16
384.97	42.13
385.17	152.13
385.36	119.37
385.56	184.90
385.75	72.56
385.95	138.09
386.14	152.13
386.34	170.86
386.53	110.01
386.72	205.97
386.92	180.22
387.11	196.60
387.31	180.22
387.50	156.82
387.70	175.54
387.89	102.98
388.09	184.90
388.28	112.35
388.48	58.51
388.67	67.88
388.86	224.69
389.06	180.22
389.25	133.41
389.45	77.24
389.64	168.52
389.84	110.01
390.03	117.03
390.22	187.24
390.42	93.62
390.61	140.43
390.81	117.03
391.00	140.43
391.19	107.66
391.39	168.52
391.58	142.77
391.78	161.50
391.97	156.82
392.16	74.90
392.36	184.90
392.55	159.16
392.75	140.43
392.94	133.41
393.13	184.90
393.33	135.75
393.52	175.54
393.71	147.45
393.91	203.63
394.10	145.11
394.29	154.48
394.49	173.20
394.68	194.26
394.88	177.88
395.07	175.54
395.26	184.90
395.46	138.09
395.65	196.60
395.84	227.03
396.04	220.01
396.23	121.71
396.42	152.13
396.62	131.07
396.81	203.63
397.00	142.77
397.19	166.18
397.39	110.01
397.58	175.54
397.77	156.82
397.97	161.50
398.16	126.39
398.35	182.56
398.55	114.69
398.74	133.41
398.93	203.63
399.12	126.39
399.32	170.86
399.51	84.26
399.70	128.73
399.90	170.86
400.09	100.64
400.28	152.13
400.47	114.69
400.67	102.98
400.86	110.01
401.05	205.97
401.24	184.90
401.44	191.92
401.63	177.88
401.82	133.41
402.01	112.35
402.21	196.60
402.40	147.45
402.59	175.54
402.78	133.41
402.97	133.41
403.17	86.60
403.36	100.64
403.55	147.45
403.74	194.26
403.93	215.33
404.13	236.39
404.32	231.71
404.51	210.65
404.70	198.95
404.89	170.86
405.09	215.33
405.28	131.07
405.47	173.20
405.66	187.24
405.85	154.48
406.05	93.62
406.24	170.86
406.43	187.24
406.62	168.52
406.81	208.31
407.00	203.63
407.20	140.43
407.39	173.20
407.58	93.62
407.77	173.20
407.96	138.09
408.15	121.71
408.34	163.84
408.54	147.45
408.73	264.48
408.92	145.11
409.11	168.52
409.30	170.86
409.49	114.69
409.68	166.18
409.87	112.35
410.07	126.39
410.26	234.05
410.45	173.20
410.64	161.50
410.83	182.56
411.02	81.92
411.21	133.41
411.40	124.05
411.59	184.90
411.78	166.18
411.98	191.92
412.17	177.88
412.36	170.86
412.55	86.60
412.74	142.77
412.93	154.48
413.12	205.97
413.31	184.90
413.50	168.52
413.69	93.62
413.88	205.97
414.07	140.43
414.26	166.18
414.45	168.52
414.64	184.90
414.83	98.30
415.02	117.03
415.22	175.54
415.41	196.60
415.60	170.86
415.79	187.24
415.98	147.45
416.17	154.48
416.36	133.41
416.55	163.84
416.74	84.26
416.93	194.26
417.12	163.84
417.31	142.77
417.50	198.95
417.69	276.18
417.88	229.37
418.07	149.79
418.26	166.18
418.45	173.20
418.64	238.73
418.83	252.78
419.02	250.44
419.21	180.22
419.39	203.63
419.58	184.90
419.77	215.33
419.96	220.01
420.15	166.18
420.34	177.88
420.53	184.90
420.72	142.77
420.91	77.24
421.10	154.48
421.29	131.07
421.48	243.42
421.67	161.50
421.86	187.24
422.05	140.43
422.24	168.52
422.43	156.82
422.61	203.63
422.80	180.22
422.99	175.54
423.18	173.20
423.37	180.22
423.56	168.52
423.75	222.35
423.94	121.71
424.13	245.76
424.32	112.35
424.50	196.60
424.69	49.15
424.88	215.33
425.07	161.50
425.26	229.37
425.45	250.44
425.64	264.48
425.83	203.63
426.01	187.24
426.20	163.84
426.39	201.29
426.58	173.20
426.77	140.43
426.96	138.09
427.15	156.82
427.33	175.54
427.52	194.26
427.71	154.48
427.90	170.86
428.09	163.84
428.28	191.92
428.46	205.97
428.65	229.37
428.84	177.88
429.03	194.26
429.22	95.96
429.40	98.30
429.59	166.18
429.78	215.33
429.97	156.82
430.16	203.63
430.34	114.69
430.53	215.33
430.72	215.33
430.91	161.50
431.10	156.82
431.28	168.52
431.47	163.84
431.66	156.82
431.85	159.16
432.03	182.56
432.22	231.71
432.41	182.56
432.60	182.56
432.79	229.37
432.97	255.12
433.16	311.29
433.35	205.97
433.54	231.71
433.72	241.08
433.91	166.18
434.10	210.65
434.28	196.60
434.47	224.69
434.66	177.88
434.85	161.50
435.03	224.69
435.22	365.12
435.41	500.87
435.59	517.26
435.78	381.51
435.97	252.78
436.16	198.95
436.34	175.54
436.53	259.80
436.72	159.16
436.90	231.71
437.09	271.50
437.28	194.26
437.46	217.67
437.65	180.22
437.84	156.82
438.02	182.56
438.21	215.33
438.40	175.54
438.58	156.82
438.77	133.41
438.96	177.88
439.14	168.52
439.33	194.26
439.52	124.05
439.70	86.60
439.89	163.84
440.08	117.03
440.26	194.26
440.45	208.31
440.63	147.45
440.82	117.03
441.01	203.63
441.19	168.52
441.38	198.95
441.57	194.26
441.75	159.16
441.94	208.31
442.12	131.07
442.31	217.67
442.50	191.92
442.68	236.39
442.87	173.20
443.05	95.96
443.24	210.65
443.43	145.11
443.61	138.09
443.80	173.20
443.98	133.41
444.17	220.01
444.35	283.20
444.54	189.58
444.73	194.26
444.91	161.50
445.10	189.58
445.28	184.90
445.47	131.07
445.65	191.92
445.84	177.88
446.02	124.05
446.21	142.77
446.39	154.48
446.58	215.33
446.77	205.97
446.95	138.09
447.14	245.76
447.32	177.88
447.51	217.67
447.69	152.13
447.88	201.29
448.06	257.46
448.25	236.39
448.43	168.52
448.62	156.82
448.80	196.60
448.99	212.99
449.17	248.10
449.36	196.60
449.54	210.65
449.73	147.45
449.91	194.26
450.10	215.33
450.28	241.08
450.46	212.99
450.65	182.56
450.83	236.39
451.02	205.97
451.20	234.05
451.39	170.86
451.57	180.22
451.76	212.99
451.94	152.13
452.13	238.73
452.31	215.33
452.49	210.65
452.68	128.73
452.86	210.65
453.05	203.63
453.23	248.10
453.42	168.52
453.60	187.24
453.78	191.92
453.97	145.11
454.15	107.66
454.34	191.92
454.52	168.52
454.70	280.86
454.89	177.88
455.07	161.50
455.26	187.24
455.44	217.67
455.62	86.60
455.81	196.60
455.99	182.56
456.17	187.24
456.36	140.43
456.54	124.05
456.73	149.79
456.91	133.41
457.09	280.86
457.28	184.90
457.46	248.10
457.64	262.14
457.83	177.88
458.01	131.07
458.19	145.11
458.38	198.95
458.56	154.48
458.74	201.29
458.93	255.12
459.11	191.92
459.29	128.73
459.48	234.05
459.66	250.44
459.84	248.10
460.03	250.44
460.21	180.22
460.39	161.50
460.57	248.10
460.76	138.09
460.94	168.52
461.12	196.60
461.31	266.82
461.49	203.63
461.67	119.37
461.85	182.56
462.04	196.60
462.22	655.35
462.40	231.71
462.59	145.11
462.77	154.48
462.95	222.35
463.13	161.50
463.32	205.97
463.50	243.42
463.68	259.80
463.86	231.71
464.05	198.95
464.23	177.88
464.41	248.10
464.59	229.37
464.78	163.84
464.96	166.18
465.14	252.78
465.32	154.48
465.50	154.48
465.69	182.56
465.87	173.20
466.05	180.22
466.23	184.90
466.41	205.97
466.60	234.05
466.78	166.18
466.96	215.33
467.14	255.12
467.32	257.46
467.51	191.92
467.69	196.60
467.87	325.33
468.05	166.18
468.23	231.71
468.41	187.24
468.60	191.92
468.78	210.65
468.96	210.65
469.14	161.50
469.32	154.48
469.50	145.11
469.69	177.88
469.87	248.10
470.05	173.20
470.23	212.99
470.41	203.63
470.59	182.56
470.77	234.05
470.95	173.20
471.14	257.46
471.32	215.33
471.50	248.10
471.68	128.73
471.86	201.29
472.04	182.56
472.22	173.20
472.40	128.73
472.58	182.56
472.77	201.29
472.95	180.22
473.13	236.39
473.31	262.14
473.49	220.01
473.67	175.54
473.85	196.60
474.03	262.14
474.21	128.73
474.39	191.92
474.57	189.58
474.75	198.95
474.93	182.56
475.12	189.58
475.30	152.13
475.48	180.22
475.66	161.50
475.84	224.69
476.02	229.37
476.20	161.50
476.38	156.82
476.56	259.80
476.74	117.03
476.92	222.35
477.10	229.37
477.28	224.69
477.46	140.43
477.64	147.45
477.82	220.01
478.00	201.29
478.18	203.63
478.36	198.95
478.54	198.95
478.72	210.65
478.90	252.78
479.08	285.55
479.26	287.89
479.44	276.18
479.62	140.43
479.80	173.20
479.98	142.77
480.16	170.86
480.34	224.69
480.52	222.35
480.70	231.71
480.88	180.22
481.06	229.37
481.24	273.84
481.41	177.88
481.59	161.50
481.77	189.58
481.95	135.75
482.13	322.99
482.31	203.63
482.49	205.97
482.67	229.37
482.85	301.93
483.03	229.37
483.21	236.39
483.39	248.10
483.57	196.60
483.74	313.63
483.92	187.24
484.10	234.05
484.28	276.18
484.46	262.14
484.64	222.35
484.82	238.73
485.00	325.33
485.18	161.50
485.35	205.97
485.53	201.29
485.71	252.78
485.89	163.84
486.07	262.14
486.25	393.21
486.43	325.33
486.61	311.29
486.78	271.50
486.96	222.35
487.14	245.76
487.32	248.10
487.50	299.59
487.68	269.16
487.85	259.80
488.03	187.24
488.21	220.01
488.39	205.97
488.57	259.80
488.75	259.80
488.92	571.09
489.10	271.50
489.28	301.93
489.46	238.73
489.64	124.05
489.81	220.01
489.99	283.20
490.17	250.44
490.35	269.16
490.53	220.01
490.70	205.97
490.88	287.89
491.06	187.24
491.24	269.16
491.41	236.39
491.59	203.63
491.77	245.76
491.95	278.52
492.13	311.29
492.30	227.03
492.48	332.36
492.66	362.78
492.84	273.84
493.01	203.63
493.19	229.37
493.37	313.63
493.54	220.01
493.72	276.18
493.90	248.10
494.08	271.50
494.25	264.48
494.43	224.69
494.61	290.23
494.79	271.50
494.96	220.01
495.14	229.37
495.32	241.08
495.49	241.08
495.67	278.52
495.85	266.82
496.02	229.37
496.20	290.23
496.38	278.52
496.55	280.86
496.73	271.50
496.91	220.01
497.09	318.31
497.26	271.50
497.44	290.23
497.62	224.69
497.79	212.99
497.97	241.08
498.14	262.14
498.32	294.91
498.50	278.52
498.67	243.42
498.85	241.08
499.03	257.46
499.20	273.84
499.38	196.60
499.56	220.01
499.73	243.42
499.91	215.33
500.08	306.61
500.26	227.03
500.44	180.22
500.61	252.78
500.79	184.90
500.97	217.67
501.14	262.14
501.32	264.48
501.49	259.80
501.67	231.71
501.84	257.46
502.02	273.84
502.20	334.70
502.37	182.56
502.55	147.45
502.72	280.86
502.90	210.65
503.07	245.76
503.25	297.25
503.43	278.52
503.60	313.63
503.78	248.10
503.95	236.39
504.13	306.61
504.30	315.97
504.48	266.82
504.65	269.16
504.83	313.63
505.01	255.12
505.18	201.29
505.36	287.89
505.53	269.16
505.71	241.08
505.88	264.48
506.06	234.05
506.23	290.23
506.41	320.65
506.58	255.12
506.76	217.67
506.93	224.69
507.11	318.31
507.28	201.29
507.46	252.78
507.63	276.18
507.81	346.40
507.98	194.26
508.16	257.46
508.33	299.59
508.50	290.23
508.68	278.52
508.85	290.23
509.03	234.05
509.20	229.37
509.38	271.50
509.55	327.68
509.73	241.08
509.90	285.55
510.08	278.52
510.25	325.33
510.42	250.44
510.60	264.48
510.77	278.52
510.95	306.61
511.12	315.97
511.30	311.29
511.47	351.08
511.64	330.02
511.82	241.08
511.99	266.82
512.17	220.01
512.34	257.46
512.51	212.99
512.69	287.89
512.86	318.31
513.04	182.56
513.21	217.67
513.38	215.33
513.56	234.05
513.73	313.63
513.90	154.48
514.08	231.71
514.25	269.16
514.43	308.95
514.60	266.82
514.77	252.78
514.95	264.48
515.12	234.05
515.29	304.27
515.47	276.18
515.64	346.40
515.81	264.48
515.99	248.10
516.16	330.02
516.33	259.80
516.51	208.31
516.68	236.39
516.85	283.20
517.03	297.25
517.20	231.71
517.37	325.33
517.54	294.91
517.72	208.31
517.89	224.69
518.06	241.08
518.24	292.57
518.41	280.86
518.58	250.44
518.75	255.12
518.93	154.48
519.10	292.57
519.27	201.29
519.45	229.37
519.62	313.63
519.79	266.82
519.96	238.73
520.14	217.67
520.31	257.46
520.48	322.99
520.65	238.73
520.83	318.31
521.00	245.76
521.17	313.63
521.34	255.12
521.52	217.67
521.69	208.31
521.86	278.52
522.03	330.02
522.20	322.99
522.38	184.90
522.55	231.71
522.72	184.90
522.89	290.23
523.07	308.95
523.24	241.08
523.41	283.20
523.58	255.12
523.75	285.55
523.92	184.90
524.10	236.39
524.27	299.59
524.44	250.44
524.61	292.57
524.78	241.08
524.96	304.27
525.13	290.23
525.30	322.99
525.47	320.65
525.64	259.80
525.81	173.20
525.98	259.80
526.16	231.71
526.33	222.35
526.50	180.22
526.67	252.78
526.84	271.50
527.01	306.61
527.18	252.78
527.36	201.29
527.53	285.55
527.70	257.46
527.87	250.44
528.04	313.63
528.21	308.95
528.38	306.61
528.55	280.86
528.72	334.70
528.89	365.12
529.07	322.99
529.24	262.14
529.41	395.55
529.58	297.25
529.75	238.73
529.92	315.97
530.09	266.82
530.26	367.46
530.43	243.42
530.60	318.31
530.77	301.93
530.94	313.63
531.11	290.23
531.28	224.69
531.46	229.37
531.63	280.86
531.80	287.89
531.97	348.74
532.14	306.61
532.31	227.03
532.48	369.80
532.65	339.38
532.82	348.74
532.99	428.32
533.16	430.66
533.33	395.55
533.50	397.89
533.67	346.40
533.84	472.79
534.01	418.96
534.18	416.62
534.35	308.95
534.52	306.61
534.69	344.06
534.86	269.16
535.03	278.52
535.20	327.68
535.37	315.97
535.54	322.99
535.71	292.57
535.88	339.38
536.05	280.86
536.22	266.82
536.38	297.25
536.55	257.46
536.72	311.29
536.89	224.69
537.06	276.18
537.23	287.89
537.40	325.33
537.57	285.55
537.74	339.38
537.91	353.42
538.08	287.89
538.25	299.59
538.42	266.82
538.59	306.61
538.75	280.86
538.92	337.04
539.09	397.89
539.26	411.93
539.43	578.11
539.60	1163.25
539.77	1603.27
539.94	1572.84
540.11	1252.19
540.28	798.12
540.44	582.79
540.61	517.26
540.78	578.11
540.95	557.05
541.12	617.90
541.29	557.05
541.46	603.86
541.62	643.65
541.79	648.33
541.96	561.73
542.13	568.75
542.30	601.52
542.47	507.90
542.63	465.77
542.80	507.90
542.97	505.56
543.14	491.51
543.31	592.16
543.48	571.09
543.64	454.06
543.81	547.69
543.98	564.07
544.15	545.34
544.32	554.71
544.48	414.27
544.65	479.81
544.82	503.22
544.99	484.49
545.16	486.83
545.32	486.83
545.49	819.19
545.66	884.72
545.83	1048.56
546.00	987.71
546.16	763.01
546.33	514.92
546.50	608.54
546.67	486.83
546.83	524.28
547.00	498.53
547.17	458.74
547.34	337.04
547.50	381.51
547.67	397.89
547.84	374.49
548.00	433.00
548.17	440.02
548.34	383.85
548.51	393.21
548.67	383.85
548.84	344.06
549.01	404.91
549.18	358.10
549.34	355.76
549.51	351.08
549.68	393.21
549.84	402.57
550.01	304.27
550.18	430.66
550.34	498.53
550.51	280.86
550.68	418.96
550.84	365.12
551.01	308.95
551.18	306.61
551.34	348.74
551.51	294.91
551.68	318.31
551.84	341.72
552.01	306.61
552.18	351.08
552.34	339.38
552.51	308.95
552.68	271.50
552.84	304.27
553.01	276.18
553.18	266.82
553.34	212.99
553.51	301.93
553.67	252.78
553.84	341.72
554.01	299.59
554.17	379.17
554.34	259.80
554.51	241.08
554.67	264.48
554.84	334.70
555.00	304.27
555.17	346.40
555.33	313.63
555.50	297.25
555.67	353.42
555.83	318.31
556.00	325.33
556.16	433.00
556.33	376.83
556.50	236.39
556.66	266.82
556.83	327.68
556.99	229.37
557.16	269.16
557.32	222.35
557.49	283.20
557.65	262.14
557.82	287.89
557.98	252.78
558.15	220.01
558.32	238.73
558.48	215.33
558.65	215.33
558.81	376.83
558.98	259.80
559.14	238.73
559.31	234.05
559.47	290.23
559.64	142.77
559.80	318.31
559.97	201.29
560.13	332.36
560.30	332.36
560.46	283.20
560.63	262.14
560.79	292.57
560.96	283.20
561.12	290.23
561.29	222.35
561.45	234.05
561.61	264.48
561.78	283.20
561.94	266.82
562.11	299.59
562.27	311.29
562.44	229.37
562.60	337.04
562.77	182.56
562.93	344.06
563.10	217.67
563.26	297.25
563.42	294.91
563.59	278.52
563.75	315.97
563.92	301.93
564.08	231.71
564.24	276.18
564.41	220.01
564.57	306.61
564.74	248.10
564.90	320.65
565.07	299.59
565.23	318.31
565.39	245.76
565.56	301.93
565.72	266.82
565.88	266.82
566.05	330.02
566.21	252.78
566.38	201.29
566.54	283.20
566.70	285.55
566.87	287.89
567.03	276.18
567.19	271.50
567.36	334.70
567.52	287.89
567.68	294.91
567.85	299.59
568.01	266.82
568.17	283.20
568.34	166.18
568.50	294.91
568.66	262.14
568.83	327.68
568.99	315.97
569.15	215.33
569.32	250.44
569.48	222.35
569.64	215.33
569.81	234.05
569.97	220.01
570.13	257.46
570.30	217.67
570.46	241.08
570.62	222.35
570.78	238.73
570.95	255.12
571.11	236.39
571.27	299.59
571.43	241.08
571.60	334.70
571.76	220.01
571.92	259.80
572.09	238.73
572.25	215.33
572.41	278.52
572.57	287.89
572.74	294.91
572.90	269.16
573.06	262.14
573.22	222.35
573.38	271.50
573.55	292.57
573.71	320.65
573.87	315.97
574.03	161.50
574.20	248.10
574.36	365.12
574.52	280.86
574.68	273.84
574.84	334.70
575.01	252.78
575.17	315.97
575.33	297.25
575.49	355.76
575.65	276.18
575.82	320.65
575.98	601.52
576.14	809.83
576.30	847.27
576.46	664.71
576.62	631.94
576.79	554.71
576.95	550.03
577.11	353.42
577.27	283.20
577.43	315.97
577.59	351.08
577.75	290.23
577.92	290.23
578.08	379.17
578.24	283.20
578.40	365.12
578.56	451.72
578.72	407.25
578.88	514.92
579.04	435.34
579.21	381.51
579.37	418.96
579.53	266.82
579.69	365.12
579.85	358.10
580.01	428.32
580.17	433.00
580.33	428.32
580.49	407.25
580.65	477.47
580.82	362.78
580.98	381.51
581.14	334.70
581.30	386.19
581.46	526.62
581.62	552.37
581.78	634.29
581.94	727.91
582.10	528.96
582.26	526.62
582.42	507.90
582.58	493.85
582.74	479.81
582.90	561.73
583.06	475.13
583.22	496.19
583.38	594.50
583.54	603.86
583.70	631.94
583.86	805.14
584.02	875.36
584.18	1001.75
584.34	1289.64
584.50	2993.55
584.66	22347.44
584.82	55559.64
584.98	65535.00
585.14	62929.98
585.30	49441.48
585.46	30061.84
585.62	18579.17
585.78	8697.43
585.94	3538.89
586.10	1666.46
586.26	1205.38
586.42	873.02
586.58	842.59
586.74	809.83
586.90	711.52
587.06	748.97
587.22	603.86
587.38	638.97
587.54	1219.42
587.70	3463.99
587.86	5717.93
588.02	6590.95
588.18	4592.13
588.34	2995.89
588.49	2026.90
588.65	1235.80
588.81	697.48
588.97	489.17
589.13	425.98
589.29	393.21
589.45	374.49
589.61	390.87
589.77	454.06
589.93	533.64
590.08	617.90
590.24	559.39
590.40	479.81
590.56	500.87
590.72	442.36
590.88	390.87
591.04	395.55
591.20	362.78
591.35	407.25
591.51	477.47
591.67	393.21
591.83	332.36
591.99	367.46
592.15	414.27
592.31	311.29
592.46	383.85
592.62	486.83
592.78	346.40
592.94	388.53
593.10	409.59
593.26	456.40
593.41	442.36
593.57	535.98
593.73	669.39
593.89	2818.00
594.05	7337.58
594.20	11098.82
594.36	10572.20
594.52	6951.39
594.68	4313.61
594.84	2899.92
594.99	1701.57
595.15	835.57
595.31	615.56
595.47	472.79
595.62	367.46
595.78	407.25
595.94	283.20
596.10	393.21
596.25	397.89
596.41	470.45
596.57	414.27
596.73	454.06
596.88	620.24
597.04	1409.00
597.20	2422.45
597.36	2691.62
597.51	2125.21
597.67	1413.68
597.83	1069.62
597.99	777.06
598.14	493.85
598.30	498.53
598.46	407.25
598.61	404.91
598.77	449.38
598.93	360.44
599.09	330.02
599.24	358.10
599.40	372.15
599.56	334.70
599.71	360.44
599.87	337.04
600.03	337.04
600.18	327.68
600.34	264.48
600.50	252.78
600.65	280.86
600.81	395.55
600.97	292.57
601.12	271.50
601.28	360.44
601.44	327.68
601.59	348.74
601.75	311.29
601.91	285.55
602.06	334.70
602.22	372.15
602.37	720.88
602.53	1715.61
602.69	2745.45
602.84	2803.96
603.00	2221.17
603.16	1535.39
603.31	1153.88
603.47	711.52
603.62	463.43
603.78	360.44
603.94	348.74
604.09	358.10
604.25	290.23
604.40	327.68
604.56	327.68
604.71	409.59
604.87	292.57
605.03	332.36
605.18	327.68
605.34	327.68
605.49	299.59
605.65	330.02
605.80	330.02
605.96	332.36
606.12	339.38
606.27	393.21
606.43	379.17
606.58	423.64
606.74	870.68
606.89	3389.10
607.05	6817.98
607.20	9441.72
607.36	7953.14
607.51	5444.09
607.67	3522.51
607.82	2427.14
607.98	1430.07
608.13	732.59
608.29	643.65
608.44	561.73
608.60	491.51
608.75	615.56
608.91	1181.97
609.06	5305.99
609.22	12262.07
609.37	16390.77
609.53	14326.42
609.68	9661.73
609.84	6352.21
609.99	4442.34
610.15	2586.29
610.30	1357.51
610.46	1034.52
610.61	964.30
610.76	1046.22
610.92	1135.16
611.07	1172.61
611.23	1263.89
611.38	1095.37
611.54	915.15
611.69	905.79
611.84	919.83
612.00	814.51
612.15	678.76
612.31	674.07
612.46	940.90
612.62	945.58
612.77	912.81
612.92	830.89
613.08	823.87
613.23	748.97
613.39	727.91
613.54	966.64
613.69	4823.84
613.85	14647.07
614.00	24379.02
614.15	25614.82
614.31	18331.08
614.46	12072.48
614.62	8116.98
614.77	4943.21
614.92	2307.77
615.08	1200.69
615.23	791.10
615.38	674.07
615.54	660.03
615.69	926.85
615.84	2773.53
616.00	5350.46
616.15	6787.55
616.30	5544.73
616.46	3911.04
616.61	2820.35
616.76	1858.39
616.92	1039.20
617.07	655.35
617.22	430.66
617.37	421.30
617.53	430.66
617.68	390.87
617.83	430.66
617.99	461.09
618.14	386.19
618.29	315.97
618.45	383.85
618.60	344.06
618.75	306.61
618.90	327.68
619.06	341.72
619.21	390.87
619.36	346.40
619.51	397.89
619.67	332.36
619.82	301.93
619.97	365.12
620.12	348.74
620.28	278.52
620.43	236.39
620.58	322.99
620.73	355.76
620.89	386.19
621.04	582.79
621.19	1561.14
621.34	3059.08
621.49	3911.04
621.65	3522.51
621.80	2560.55
621.95	1825.62
622.10	1362.19
622.25	777.06
622.41	496.19
622.56	386.19
622.71	243.42
622.86	353.42
623.01	381.51
623.16	341.72
623.32	264.48
623.47	379.17
623.62	320.65
623.77	327.68
623.92	271.50
624.07	311.29
624.23	292.57
624.38	217.67
624.53	325.33
624.68	407.25
624.83	400.23
624.98	304.27
625.13	414.27
625.29	395.55
625.44	353.42
625.59	400.23
625.74	393.21
625.89	524.28
626.04	2256.28
626.19	7063.74
626.34	11630.12
626.49	13411.27
626.65	9790.46
626.80	6560.52
626.95	4552.34
627.10	2780.56
627.25	1565.82
627.40	784.08
627.55	526.62
627.70	440.02
627.85	383.85
628.00	337.04
628.15	304.27
628.30	369.80
628.45	339.38
628.60	367.46
628.76	327.68
628.91	346.40
629.06	372.15
629.21	339.38
629.36	395.55
629.51	360.44
629.66	248.10
629.81	435.34
629.96	1348.15
630.11	2630.76
630.26	3496.76
630.41	3201.85
630.56	2373.30
630.71	1600.93
630.86	1221.76
631.01	840.25
631.16	571.09
631.31	465.77
631.46	395.55
631.61	339.38
631.76	245.76
631.91	372.15
632.06	301.93
632.21	320.65
632.36	358.10
632.51	425.98
632.66	433.00
632.81	1151.54
632.96	3845.50
633.10	7300.13
633.25	9207.67
633.40	7382.05
633.55	5207.69
633.70	3616.13
633.85	2399.05
634.00	1329.42
634.15	664.71
634.30	531.30
634.45	358.10
634.60	353.42
634.75	276.18
634.90	299.59
635.05	327.68
635.19	332.36
635.34	285.55
635.49	381.51
635.64	334.70
635.79	276.18
635.94	334.70
636.09	266.82
636.24	332.36
636.39	376.83
636.53	315.97
636.68	409.59
636.83	416.62
636.98	353.42
637.13	346.40
637.28	468.11
637.43	482.15
637.57	704.50
637.72	3201.85
637.87	9135.11
638.02	15419.45
638.17	17001.65
638.32	12428.24
638.46	8610.83
638.61	5820.91
638.76	3604.42
638.91	1741.36
639.06	889.40
639.20	699.82
639.35	704.50
639.50	968.98
639.65	4669.37
639.80	14136.84
639.94	23335.14
640.09	25900.37
640.24	19227.50
640.39	13025.08
640.54	8676.37
640.68	5156.20
640.83	2602.68
640.98	1153.88
641.13	683.44
641.27	409.59
641.42	372.15
641.57	390.87
641.72	390.87
641.86	332.36
642.01	262.14
642.16	276.18
642.31	294.91
642.45	374.49
642.60	301.93
642.75	241.08
642.90	299.59
643.04	252.78
643.19	283.20
643.34	278.52
643.48	220.01
643.63	257.46
643.78	241.08
643.93	315.97
644.07	243.42
644.22	290.23
644.37	152.13
644.51	285.55
644.66	276.18
644.81	224.69
644.95	257.46
645.10	255.12
645.25	304.27
645.39	245.76
645.54	248.10
645.69	290.23
645.83	231.71
645.98	278.52
646.13	257.46
646.27	215.33
646.42	276.18
646.57	168.52
646.71	252.78
646.86	238.73
647.00	266.82
647.15	294.91
647.30	255.12
647.44	287.89
647.59	269.16
647.74	264.48
647.88	224.69
648.03	259.80
648.17	259.80
648.32	252.78
648.47	285.55
648.61	220.01
648.76	248.10
648.90	297.25
649.05	278.52
649.20	262.14
649.34	351.08
649.49	257.46
649.63	334.70
649.78	301.93
649.92	404.91
650.07	1844.34
650.21	6040.92
650.36	10944.34
650.51	13600.85
650.65	10937.32
650.80	7775.26
650.94	5291.95
651.09	3246.32
651.23	1832.64
651.38	905.79
651.52	535.98
651.67	393.21
651.81	304.27
651.96	337.04
652.10	276.18
652.25	285.55
652.39	271.50
652.54	332.36
652.68	655.35
652.83	2019.88
652.97	3625.49
653.12	4795.76
653.26	4255.09
653.41	3258.03
653.55	2104.14
653.70	1441.77
653.84	880.04
653.99	528.96
654.13	351.08
654.27	269.16
654.42	280.86
654.56	273.84
654.71	215.33
654.85	198.95
655.00	259.80
655.14	248.10
655.29	259.80
655.43	205.97
655.57	180.22
655.72	227.03
655.86	215.33
656.01	252.78
656.15	227.03
656.30	243.42
656.44	117.03
656.58	231.71
656.73	248.10
656.87	212.99
657.01	252.78
657.16	266.82
657.30	227.03
657.45	248.10
657.59	276.18
657.73	266.82
657.88	276.18
658.02	304.27
658.16	294.91
658.31	271.50
658.45	283.20
658.60	257.46
658.74	269.16
658.88	222.35
659.03	264.48
659.17	362.78
659.31	870.68
659.46	2813.32
659.60	5109.39
659.74	6703.29
659.89	5891.13
660.03	4353.40
660.17	3124.62
660.32	1937.96
660.46	1130.48
660.60	596.84
660.74	397.89
660.89	280.86
661.03	271.50
661.17	215.33
661.32	264.48
661.46	262.14
661.60	191.92
661.74	227.03
661.89	173.20
662.03	266.82
662.17	189.58
662.31	297.25
662.46	276.18
662.60	220.01
662.74	191.92
662.88	304.27
663.03	278.52
663.17	156.82
663.31	215.33
663.45	292.57
663.60	241.08
663.74	231.71
663.88	168.52
664.02	252.78
664.17	262.14
664.31	231.71
664.45	285.55
664.59	280.86
664.73	222.35
664.88	280.86
665.02	191.92
665.16	241.08
665.30	212.99
665.44	210.65
665.59	220.01
665.73	271.50
665.87	287.89
666.01	276.18
666.15	217.67
666.29	250.44
666.44	250.44
666.58	280.86
666.72	266.82
666.86	257.46
667.00	353.42
667.14	514.92
667.28	1743.70
667.43	5350.46
667.57	9043.83
667.71	11604.38
667.85	10017.49
667.99	7295.45
668.13	4732.56
668.27	2825.03
668.41	1633.69
668.56	1020.47
668.70	653.01
668.84	458.74
668.98	374.49
669.12	294.91
669.26	337.04
669.40	325.33
669.54	231.71
669.68	311.29
669.82	241.08
669.96	292.57
670.10	231.71
670.25	182.56
670.39	238.73
670.53	210.65
670.67	332.36
670.81	269.16
670.95	294.91
671.09	491.51
671.23	1977.75
671.37	4475.10
671.51	6511.37
671.65	7133.95
671.79	5799.85
671.93	4065.51
672.07	2370.96
672.21	1413.68
672.35	837.91
672.49	531.30
672.63	486.83
672.77	341.72
672.91	248.10
673.05	278.52
673.19	180.22
673.33	194.26
673.47	320.65
673.61	234.05
673.75	234.05
673.89	236.39
674.03	241.08
674.17	248.10
674.31	257.46
674.45	236.39
674.59	245.76
674.73	152.13
674.87	234.05
675.01	325.33
675.15	287.89
675.29	287.89
675.43	318.31
675.56	330.02
675.70	227.03
675.84	168.52
675.98	198.95
676.12	205.97
676.26	222.35
676.40	203.63
676.54	222.35
676.68	175.54
676.82	212.99
676.96	184.90
677.10	248.10
677.23	189.58
677.37	252.78
677.51	159.16
677.65	262.14
677.79	191.92
677.93	166.18
678.07	196.60
678.21	168.52
678.34	156.82
678.48	112.35
678.62	187.24
678.76	105.32
678.90	142.77
679.04	287.89
679.18	250.44
679.31	210.65
679.45	149.79
679.59	208.31
679.73	245.76
679.87	170.86
680.00	297.25
680.14	154.48
680.28	257.46
680.42	140.43
680.56	191.92
680.70	182.56
680.83	210.65
680.97	220.01
681.11	229.37
681.25	177.88
681.39	189.58
681.52	205.97
681.66	238.73
681.80	173.20
681.94	121.71
682.07	203.63
682.21	156.82
682.35	180.22
682.49	128.73
682.62	198.95
682.76	135.75
682.90	198.95
683.04	203.63
683.17	147.45
683.31	210.65
683.45	182.56
683.59	191.92
683.72	163.84
683.86	177.88
684.00	149.79
684.13	234.05
684.27	133.41
684.41	175.54
684.55	189.58
684.68	138.09
684.82	173.20
684.96	166.18
685.09	166.18
685.23	205.97
685.37	121.71
685.50	163.84
685.64	248.10
685.78	154.48
685.91	264.48
686.05	198.95
686.19	182.56
686.32	255.12
686.46	203.63
686.60	159.16
686.73	236.39
686.87	259.80
687.01	257.46
687.14	238.73
687.28	201.29
687.42	264.48
687.55	259.80
687.69	283.20
687.82	203.63
687.96	269.16
688.10	201.29
688.23	177.88
688.37	168.52
688.50	177.88
688.64	114.69
688.78	229.37
688.91	196.60
689.05	243.42
689.18	180.22
689.32	159.16
689.46	161.50
689.59	194.26
689.73	154.48
689.86	133.41
690.00	170.86
690.13	147.45
690.27	145.11
690.41	208.31
690.54	173.20
690.68	140.43
690.81	175.54
690.95	84.26
691.08	187.24
691.22	131.07
691.35	119.37
691.49	140.43
691.62	128.73
691.76	212.99
691.89	168.52
692.03	198.95
692.16	224.69
692.30	229.37
692.43	603.86
692.57	2097.12
692.70	3866.56
692.84	4945.55
692.97	4748.95
693.11	3478.04
693.24	2553.52
693.38	1753.06
693.51	1149.20
693.65	809.83
693.78	580.45
693.92	404.91
694.05	301.93
694.19	203.63
694.32	236.39
694.45	170.86
694.59	184.90
694.72	208.31
694.86	215.33
694.99	161.50
695.13	191.92
695.26	175.54
695.39	177.88
695.53	297.25
695.66	248.10
695.80	234.05
695.93	177.88
696.07	234.05
696.20	313.63
696.33	353.42
696.47	472.79
696.60	395.55
696.73	418.96
696.87	390.87
697.00	264.48
697.14	243.42
697.27	152.13
697.40	222.35
697.54	250.44
697.67	194.26
697.80	135.75
697.94	203.63
698.07	271.50
698.21	145.11
698.34	124.05
698.47	205.97
698.61	184.90
698.74	140.43
698.87	175.54
699.01	173.20
699.14	154.48
699.27	177.88
699.40	278.52
699.54	227.03
699.67	191.92
699.80	156.82
699.94	163.84
700.07	184.90
700.20	161.50
700.34	147.45
700.47	227.03
700.60	182.56
700.73	196.60
700.87	170.86
701.00	217.67
701.13	170.86
701.26	208.31
701.40	194.26
701.53	177.88
701.66	194.26
701.79	224.69
701.93	217.67
702.06	327.68
702.19	348.74
702.32	447.04
702.46	418.96
702.59	550.03
702.72	877.70
702.85	2628.42
702.99	5895.81
703.12	8659.98
703.25	9554.07
703.38	8355.71
703.51	6623.72
703.65	5139.82
703.78	3545.91
703.91	2382.67
704.04	1554.12
704.17	959.62
704.31	664.71
704.44	376.83
704.57	318.31
704.70	344.06
704.83	234.05
704.96	147.45
705.10	236.39
705.23	182.56
>>>>>End Processed Spectral Data<<<<<
