SpectraSuite Data File
++++++++++++++++++++++++++++++++++++
Date: Fri Oct 04 11:34:03 GMT-05:00 2013
User: price-jones
Dark Spectrum Present: No
Reference Spectrum Present: No
Number of Sampled Component Spectra: 1
Spectrometers: USB2+H05261
Integration Time (usec): 100000 (USB2+H05261)
Spectra Averaged: 1 (USB2+H05261)
Boxcar Smoothing: 0 (USB2+H05261)
Correct for Electrical Dark: No (USB2+H05261)
Strobe/Lamp Enabled: No (USB2+H05261)
Correct for Detector Non-linearity: No (USB2+H05261)
Correct for Stray Light: No (USB2+H05261)
Number of Pixels in Processed Spectrum: 2048
>>>>>Begin Processed Spectral Data<<<<<
365.73	91.28
365.92	91.28
366.12	91.28
366.32	0.00
366.52	0.00
366.72	67.88
366.91	0.00
367.11	0.00
367.31	0.00
367.51	0.00
367.70	0.00
367.90	0.00
368.10	2.34
368.30	49.15
368.49	0.00
368.69	0.00
368.89	0.00
369.09	0.00
369.28	0.00
369.48	0.00
369.68	0.00
369.87	23.41
370.07	11.70
370.27	51.49
370.47	70.22
370.66	142.77
370.86	25.75
371.06	175.54
371.25	135.75
371.45	105.32
371.65	114.69
371.84	126.39
372.04	95.96
372.24	95.96
372.44	88.94
372.63	142.77
372.83	222.35
373.03	177.88
373.22	145.11
373.42	163.84
373.62	77.24
373.81	187.24
374.01	191.92
374.21	191.92
374.40	98.30
374.60	135.75
374.79	187.24
374.99	124.05
375.19	152.13
375.38	140.43
375.58	149.79
375.78	152.13
375.97	196.60
376.17	152.13
376.37	208.31
376.56	229.37
376.76	203.63
376.95	114.69
377.15	86.60
377.35	110.01
377.54	138.09
377.74	117.03
377.93	16.38
378.13	126.39
378.33	124.05
378.52	149.79
378.72	173.20
378.91	201.29
379.11	161.50
379.31	154.48
379.50	170.86
379.70	154.48
379.89	142.77
380.09	133.41
380.28	154.48
380.48	212.99
380.68	145.11
380.87	100.64
381.07	126.39
381.26	105.32
381.46	138.09
381.65	98.30
381.85	163.84
382.04	147.45
382.24	140.43
382.43	128.73
382.63	112.35
382.83	147.45
383.02	163.84
383.22	175.54
383.41	128.73
383.61	77.24
383.80	133.41
384.00	140.43
384.19	138.09
384.39	161.50
384.58	145.11
384.78	161.50
384.97	194.26
385.17	88.94
385.36	191.92
385.56	177.88
385.75	124.05
385.95	114.69
386.14	88.94
386.34	154.48
386.53	203.63
386.72	168.52
386.92	184.90
387.11	135.75
387.31	177.88
387.50	135.75
387.70	100.64
387.89	173.20
388.09	170.86
388.28	95.96
388.48	175.54
388.67	163.84
388.86	86.60
389.06	131.07
389.25	100.64
389.45	112.35
389.64	117.03
389.84	79.58
390.03	35.11
390.22	187.24
390.42	142.77
390.61	173.20
390.81	208.31
391.00	84.26
391.19	156.82
391.39	51.49
391.58	142.77
391.78	138.09
391.97	140.43
392.16	124.05
392.36	194.26
392.55	149.79
392.75	133.41
392.94	224.69
393.13	189.58
393.33	86.60
393.52	107.66
393.71	161.50
393.91	112.35
394.10	166.18
394.29	163.84
394.49	187.24
394.68	238.73
394.88	215.33
395.07	131.07
395.26	159.16
395.46	187.24
395.65	107.66
395.84	224.69
396.04	175.54
396.23	142.77
396.42	112.35
396.62	131.07
396.81	128.73
397.00	102.98
397.19	210.65
397.39	131.07
397.58	191.92
397.77	184.90
397.97	107.66
398.16	159.16
398.35	156.82
398.55	102.98
398.74	145.11
398.93	119.37
399.12	154.48
399.32	98.30
399.51	121.71
399.70	131.07
399.90	163.84
400.09	231.71
400.28	154.48
400.47	152.13
400.67	175.54
400.86	138.09
401.05	166.18
401.24	114.69
401.44	212.99
401.63	184.90
401.82	203.63
402.01	107.66
402.21	105.32
402.40	131.07
402.59	152.13
402.78	163.84
402.97	152.13
403.17	110.01
403.36	170.86
403.55	154.48
403.74	196.60
403.93	234.05
404.13	304.27
404.32	224.69
404.51	229.37
404.70	227.03
404.89	241.08
405.09	170.86
405.28	198.95
405.47	168.52
405.66	205.97
405.85	168.52
406.05	182.56
406.24	107.66
406.43	182.56
406.62	182.56
406.81	266.82
407.00	161.50
407.20	198.95
407.39	149.79
407.58	189.58
407.77	124.05
407.96	159.16
408.15	110.01
408.34	112.35
408.54	156.82
408.73	131.07
408.92	182.56
409.11	203.63
409.30	238.73
409.49	154.48
409.68	220.01
409.87	156.82
410.07	140.43
410.26	93.62
410.45	177.88
410.64	124.05
410.83	166.18
411.02	168.52
411.21	140.43
411.40	194.26
411.59	131.07
411.78	154.48
411.98	112.35
412.17	180.22
412.36	147.45
412.55	231.71
412.74	212.99
412.93	154.48
413.12	105.32
413.31	81.92
413.50	133.41
413.69	217.67
413.88	173.20
414.07	159.16
414.26	173.20
414.45	84.26
414.64	168.52
414.83	231.71
415.02	210.65
415.22	215.33
415.41	182.56
415.60	159.16
415.79	147.45
415.98	238.73
416.17	184.90
416.36	173.20
416.55	124.05
416.74	142.77
416.93	145.11
417.12	180.22
417.31	191.92
417.50	201.29
417.69	278.52
417.88	245.76
418.07	220.01
418.26	191.92
418.45	191.92
418.64	278.52
418.83	234.05
419.02	208.31
419.21	208.31
419.39	266.82
419.58	224.69
419.77	142.77
419.96	250.44
420.15	198.95
420.34	173.20
420.53	121.71
420.72	131.07
420.91	140.43
421.10	163.84
421.29	212.99
421.48	140.43
421.67	180.22
421.86	177.88
422.05	138.09
422.24	159.16
422.43	117.03
422.61	93.62
422.80	175.54
422.99	163.84
423.18	208.31
423.37	147.45
423.56	163.84
423.75	182.56
423.94	149.79
424.13	205.97
424.32	131.07
424.50	180.22
424.69	142.77
424.88	191.92
425.07	224.69
425.26	152.13
425.45	194.26
425.64	245.76
425.83	231.71
426.01	255.12
426.20	156.82
426.39	168.52
426.58	135.75
426.77	201.29
426.96	177.88
427.15	201.29
427.33	182.56
427.52	100.64
427.71	119.37
427.90	112.35
428.09	110.01
428.28	189.58
428.46	173.20
428.65	156.82
428.84	74.90
429.03	212.99
429.22	177.88
429.40	142.77
429.59	154.48
429.78	250.44
429.97	166.18
430.16	187.24
430.34	182.56
430.53	128.73
430.72	194.26
430.91	264.48
431.10	124.05
431.28	135.75
431.47	224.69
431.66	177.88
431.85	231.71
432.03	173.20
432.22	234.05
432.41	175.54
432.60	241.08
432.79	229.37
432.97	241.08
433.16	229.37
433.35	205.97
433.54	236.39
433.72	231.71
433.91	196.60
434.10	168.52
434.28	236.39
434.47	220.01
434.66	182.56
434.85	205.97
435.03	166.18
435.22	365.12
435.41	498.53
435.59	437.68
435.78	306.61
435.97	278.52
436.16	231.71
436.34	231.71
436.53	187.24
436.72	156.82
436.90	182.56
437.09	196.60
437.28	133.41
437.46	224.69
437.65	259.80
437.84	184.90
438.02	175.54
438.21	229.37
438.40	175.54
438.58	91.28
438.77	177.88
438.96	250.44
439.14	145.11
439.33	212.99
439.52	191.92
439.70	229.37
439.89	196.60
440.08	184.90
440.26	128.73
440.45	238.73
440.63	194.26
440.82	194.26
441.01	234.05
441.19	182.56
441.38	149.79
441.57	135.75
441.75	170.86
441.94	217.67
442.12	166.18
442.31	203.63
442.50	138.09
442.68	149.79
442.87	166.18
443.05	49.15
443.24	177.88
443.43	196.60
443.61	187.24
443.80	220.01
443.98	191.92
444.17	173.20
444.35	243.42
444.54	168.52
444.73	238.73
444.91	135.75
445.10	173.20
445.28	88.94
445.47	187.24
445.65	255.12
445.84	177.88
446.02	140.43
446.21	135.75
446.39	145.11
446.58	159.16
446.77	180.22
446.95	145.11
447.14	215.33
447.32	222.35
447.51	170.86
447.69	229.37
447.88	131.07
448.06	189.58
448.25	243.42
448.43	161.50
448.62	182.56
448.80	227.03
448.99	269.16
449.17	110.01
449.36	173.20
449.54	191.92
449.73	107.66
449.91	152.13
450.10	224.69
450.28	273.84
450.46	224.69
450.65	222.35
450.83	187.24
451.02	147.45
451.20	180.22
451.39	156.82
451.57	105.32
451.76	166.18
451.94	166.18
452.13	231.71
452.31	241.08
452.49	264.48
452.68	196.60
452.86	154.48
453.05	159.16
453.23	285.55
453.42	210.65
453.60	217.67
453.78	306.61
453.97	238.73
454.15	177.88
454.34	98.30
454.52	269.16
454.70	156.82
454.89	163.84
455.07	184.90
455.26	243.42
455.44	180.22
455.62	196.60
455.81	124.05
455.99	222.35
456.17	191.92
456.36	222.35
456.54	201.29
456.73	194.26
456.91	166.18
457.09	180.22
457.28	205.97
457.46	215.33
457.64	220.01
457.83	187.24
458.01	180.22
458.19	166.18
458.38	187.24
458.56	187.24
458.74	182.56
458.93	182.56
459.11	168.52
459.29	163.84
459.48	269.16
459.66	297.25
459.84	191.92
460.03	278.52
460.21	173.20
460.39	196.60
460.57	238.73
460.76	201.29
460.94	74.90
461.12	229.37
461.31	236.39
461.49	117.03
461.67	187.24
461.85	142.77
462.04	273.84
462.22	660.03
462.40	229.37
462.59	210.65
462.77	250.44
462.95	208.31
463.13	229.37
463.32	250.44
463.50	257.46
463.68	187.24
463.86	182.56
464.05	257.46
464.23	266.82
464.41	234.05
464.59	208.31
464.78	255.12
464.96	173.20
465.14	189.58
465.32	189.58
465.50	184.90
465.69	201.29
465.87	229.37
466.05	285.55
466.23	191.92
466.41	131.07
466.60	180.22
466.78	229.37
466.96	234.05
467.14	196.60
467.32	177.88
467.51	191.92
467.69	220.01
467.87	194.26
468.05	159.16
468.23	177.88
468.41	182.56
468.60	208.31
468.78	194.26
468.96	264.48
469.14	154.48
469.32	142.77
469.50	107.66
469.69	175.54
469.87	175.54
470.05	166.18
470.23	245.76
470.41	194.26
470.59	236.39
470.77	231.71
470.95	280.86
471.14	224.69
471.32	220.01
471.50	184.90
471.68	159.16
471.86	241.08
472.04	234.05
472.22	266.82
472.40	198.95
472.58	220.01
472.77	105.32
472.95	156.82
473.13	280.86
473.31	248.10
473.49	194.26
473.67	184.90
473.85	234.05
474.03	201.29
474.21	229.37
474.39	208.31
474.57	231.71
474.75	238.73
474.93	196.60
475.12	121.71
475.30	163.84
475.48	227.03
475.66	177.88
475.84	243.42
476.02	145.11
476.20	156.82
476.38	229.37
476.56	243.42
476.74	264.48
476.92	173.20
477.10	252.78
477.28	203.63
477.46	102.98
477.64	236.39
477.82	163.84
478.00	175.54
478.18	194.26
478.36	245.76
478.54	212.99
478.72	168.52
478.90	175.54
479.08	196.60
479.26	229.37
479.44	229.37
479.62	182.56
479.80	159.16
479.98	168.52
480.16	133.41
480.34	236.39
480.52	140.43
480.70	177.88
480.88	273.84
481.06	224.69
481.24	147.45
481.41	266.82
481.59	205.97
481.77	231.71
481.95	201.29
482.13	191.92
482.31	280.86
482.49	203.63
482.67	166.18
482.85	308.95
483.03	227.03
483.21	203.63
483.39	215.33
483.57	170.86
483.74	287.89
483.92	205.97
484.10	217.67
484.28	227.03
484.46	269.16
484.64	271.50
484.82	236.39
485.00	220.01
485.18	191.92
485.35	243.42
485.53	201.29
485.71	320.65
485.89	180.22
486.07	203.63
486.25	276.18
486.43	283.20
486.61	283.20
486.78	264.48
486.96	177.88
487.14	208.31
487.32	297.25
487.50	222.35
487.68	278.52
487.85	287.89
488.03	273.84
488.21	245.76
488.39	231.71
488.57	182.56
488.75	299.59
488.92	489.17
489.10	278.52
489.28	257.46
489.46	201.29
489.64	285.55
489.81	248.10
489.99	299.59
490.17	222.35
490.35	271.50
490.53	299.59
490.70	229.37
490.88	334.70
491.06	250.44
491.24	231.71
491.41	294.91
491.59	227.03
491.77	278.52
491.95	224.69
492.13	182.56
492.30	222.35
492.48	212.99
492.66	250.44
492.84	201.29
493.01	243.42
493.19	313.63
493.37	283.20
493.54	278.52
493.72	212.99
493.90	269.16
494.08	217.67
494.25	308.95
494.43	271.50
494.61	210.65
494.79	227.03
494.96	269.16
495.14	248.10
495.32	308.95
495.49	257.46
495.67	306.61
495.85	234.05
496.02	255.12
496.20	299.59
496.38	276.18
496.55	262.14
496.73	255.12
496.91	311.29
497.09	236.39
497.26	205.97
497.44	208.31
497.62	210.65
497.79	290.23
497.97	248.10
498.14	243.42
498.32	191.92
498.50	280.86
498.67	276.18
498.85	318.31
499.03	252.78
499.20	337.04
499.38	250.44
499.56	311.29
499.73	367.46
499.91	280.86
500.08	217.67
500.26	238.73
500.44	154.48
500.61	287.89
500.79	252.78
500.97	194.26
501.14	280.86
501.32	245.76
501.49	271.50
501.67	294.91
501.84	210.65
502.02	243.42
502.20	252.78
502.37	248.10
502.55	266.82
502.72	337.04
502.90	243.42
503.07	236.39
503.25	287.89
503.43	259.80
503.60	245.76
503.78	315.97
503.95	243.42
504.13	243.42
504.30	220.01
504.48	241.08
504.65	276.18
504.83	231.71
505.01	294.91
505.18	290.23
505.36	222.35
505.53	257.46
505.71	203.63
505.88	280.86
506.06	259.80
506.23	236.39
506.41	287.89
506.58	320.65
506.76	304.27
506.93	231.71
507.11	245.76
507.28	173.20
507.46	217.67
507.63	227.03
507.81	285.55
507.98	299.59
508.16	224.69
508.33	285.55
508.50	273.84
508.68	255.12
508.85	250.44
509.03	304.27
509.20	248.10
509.38	327.68
509.55	278.52
509.73	280.86
509.90	278.52
510.08	224.69
510.25	264.48
510.42	285.55
510.60	236.39
510.77	252.78
510.95	355.76
511.12	308.95
511.30	327.68
511.47	278.52
511.64	299.59
511.82	231.71
511.99	278.52
512.17	306.61
512.34	229.37
512.51	259.80
512.69	187.24
512.86	287.89
513.04	220.01
513.21	231.71
513.38	248.10
513.56	227.03
513.73	243.42
513.90	271.50
514.08	292.57
514.25	322.99
514.43	257.46
514.60	252.78
514.77	241.08
514.95	245.76
515.12	285.55
515.29	217.67
515.47	306.61
515.64	243.42
515.81	208.31
515.99	308.95
516.16	264.48
516.33	224.69
516.51	245.76
516.68	271.50
516.85	194.26
517.03	322.99
517.20	259.80
517.37	344.06
517.54	344.06
517.72	227.03
517.89	322.99
518.06	241.08
518.24	243.42
518.41	334.70
518.58	287.89
518.75	290.23
518.93	264.48
519.10	283.20
519.27	245.76
519.45	313.63
519.62	257.46
519.79	201.29
519.96	166.18
520.14	262.14
520.31	294.91
520.48	252.78
520.65	290.23
520.83	299.59
521.00	283.20
521.17	304.27
521.34	220.01
521.52	266.82
521.69	227.03
521.86	273.84
522.03	381.51
522.20	330.02
522.38	227.03
522.55	203.63
522.72	250.44
522.89	262.14
523.07	287.89
523.24	322.99
523.41	276.18
523.58	292.57
523.75	271.50
523.92	196.60
524.10	234.05
524.27	290.23
524.44	248.10
524.61	341.72
524.78	287.89
524.96	266.82
525.13	248.10
525.30	290.23
525.47	273.84
525.64	292.57
525.81	241.08
525.98	252.78
526.16	299.59
526.33	243.42
526.50	229.37
526.67	273.84
526.84	301.93
527.01	245.76
527.18	287.89
527.36	234.05
527.53	238.73
527.70	313.63
527.87	236.39
528.04	304.27
528.21	234.05
528.38	297.25
528.55	358.10
528.72	332.36
528.89	304.27
529.07	243.42
529.24	194.26
529.41	285.55
529.58	266.82
529.75	301.93
529.92	280.86
530.09	301.93
530.26	311.29
530.43	285.55
530.60	229.37
530.77	257.46
530.94	257.46
531.11	292.57
531.28	290.23
531.46	245.76
531.63	271.50
531.80	266.82
531.97	236.39
532.14	248.10
532.31	276.18
532.48	280.86
532.65	278.52
532.82	402.57
532.99	416.62
533.16	341.72
533.33	332.36
533.50	381.51
533.67	360.44
533.84	463.43
534.01	395.55
534.18	390.87
534.35	292.57
534.52	297.25
534.69	332.36
534.86	339.38
535.03	294.91
535.20	196.60
535.37	301.93
535.54	238.73
535.71	278.52
535.88	320.65
536.05	313.63
536.22	360.44
536.38	297.25
536.55	252.78
536.72	327.68
536.89	276.18
537.06	341.72
537.23	294.91
537.40	294.91
537.57	341.72
537.74	346.40
537.91	315.97
538.08	397.89
538.25	325.33
538.42	285.55
538.59	327.68
538.75	355.76
538.92	264.48
539.09	327.68
539.26	374.49
539.43	608.54
539.60	1001.75
539.77	1577.52
539.94	1565.82
540.11	1090.69
540.28	758.33
540.44	578.11
540.61	461.09
540.78	533.64
540.95	535.98
541.12	613.22
541.29	594.50
541.46	692.80
541.62	603.86
541.79	559.39
541.96	528.96
542.13	603.86
542.30	554.71
542.47	512.58
542.63	482.15
542.80	514.92
542.97	568.75
543.14	510.24
543.31	592.16
543.48	498.53
543.64	489.17
543.81	449.38
543.98	465.77
544.15	454.06
544.32	447.04
544.48	557.05
544.65	514.92
544.82	524.28
544.99	472.79
545.16	507.90
545.32	463.43
545.49	812.17
545.66	985.37
545.83	1048.56
546.00	933.87
546.16	718.54
546.33	631.94
546.50	491.51
546.67	545.34
546.83	444.70
547.00	454.06
547.17	430.66
547.34	369.80
547.50	411.93
547.67	451.72
547.84	313.63
548.00	491.51
548.17	372.15
548.34	407.25
548.51	402.57
548.67	447.04
548.84	365.12
549.01	411.93
549.18	397.89
549.34	461.09
549.51	315.97
549.68	334.70
549.84	301.93
550.01	327.68
550.18	390.87
550.34	444.70
550.51	365.12
550.68	461.09
550.84	271.50
551.01	358.10
551.18	330.02
551.34	311.29
551.51	290.23
551.68	304.27
551.84	334.70
552.01	304.27
552.18	299.59
552.34	318.31
552.51	315.97
552.68	297.25
552.84	372.15
553.01	353.42
553.18	306.61
553.34	280.86
553.51	269.16
553.67	344.06
553.84	337.04
554.01	358.10
554.17	306.61
554.34	245.76
554.51	294.91
554.67	322.99
554.84	297.25
555.00	325.33
555.17	276.18
555.33	234.05
555.50	351.08
555.67	198.95
555.83	212.99
556.00	283.20
556.16	444.70
556.33	290.23
556.50	318.31
556.66	318.31
556.83	283.20
556.99	262.14
557.16	184.90
557.32	234.05
557.49	271.50
557.65	262.14
557.82	205.97
557.98	257.46
558.15	229.37
558.32	327.68
558.48	360.44
558.65	255.12
558.81	332.36
558.98	208.31
559.14	304.27
559.31	250.44
559.47	308.95
559.64	262.14
559.80	278.52
559.97	292.57
560.13	269.16
560.30	320.65
560.46	238.73
560.63	276.18
560.79	243.42
560.96	313.63
561.12	252.78
561.29	250.44
561.45	330.02
561.61	259.80
561.78	325.33
561.94	215.33
562.11	273.84
562.27	304.27
562.44	276.18
562.60	234.05
562.77	276.18
562.93	355.76
563.10	271.50
563.26	308.95
563.42	360.44
563.59	306.61
563.75	241.08
563.92	217.67
564.08	245.76
564.24	299.59
564.41	330.02
564.57	276.18
564.74	264.48
564.90	229.37
565.07	276.18
565.23	264.48
565.39	262.14
565.56	313.63
565.72	273.84
565.88	222.35
566.05	245.76
566.21	304.27
566.38	294.91
566.54	227.03
566.70	292.57
566.87	313.63
567.03	252.78
567.19	280.86
567.36	283.20
567.52	278.52
567.68	245.76
567.85	278.52
568.01	259.80
568.17	278.52
568.34	292.57
568.50	334.70
568.66	278.52
568.83	330.02
568.99	386.19
569.15	257.46
569.32	238.73
569.48	191.92
569.64	224.69
569.81	259.80
569.97	236.39
570.13	245.76
570.30	229.37
570.46	255.12
570.62	273.84
570.78	292.57
570.95	182.56
571.11	330.02
571.27	308.95
571.43	301.93
571.60	315.97
571.76	212.99
571.92	297.25
572.09	287.89
572.25	259.80
572.41	182.56
572.57	184.90
572.74	322.99
572.90	285.55
573.06	285.55
573.22	294.91
573.38	269.16
573.55	315.97
573.71	285.55
573.87	252.78
574.03	231.71
574.20	229.37
574.36	369.80
574.52	315.97
574.68	365.12
574.84	334.70
575.01	330.02
575.17	306.61
575.33	252.78
575.49	238.73
575.65	290.23
575.82	346.40
575.98	538.32
576.14	702.16
576.30	711.52
576.46	638.97
576.62	620.24
576.79	547.69
576.95	404.91
577.11	353.42
577.27	339.38
577.43	369.80
577.59	386.19
577.75	271.50
577.92	287.89
578.08	280.86
578.24	212.99
578.40	444.70
578.56	409.59
578.72	465.77
578.88	430.66
579.04	383.85
579.21	425.98
579.37	355.76
579.53	334.70
579.69	337.04
579.85	362.78
580.01	360.44
580.17	493.85
580.33	444.70
580.49	360.44
580.65	402.57
580.82	425.98
580.98	269.16
581.14	416.62
581.30	437.68
581.46	470.45
581.62	662.37
581.78	664.71
581.94	671.73
582.10	533.64
582.26	496.19
582.42	433.00
582.58	510.24
582.74	475.13
582.90	521.94
583.06	496.19
583.22	538.32
583.38	550.03
583.54	561.73
583.70	636.63
583.86	664.71
584.02	685.78
584.18	826.21
584.34	1165.59
584.50	2752.47
584.66	18984.09
584.82	51746.90
584.98	62724.02
585.14	60104.96
585.30	44006.75
585.46	26408.26
585.62	16313.53
585.78	7742.49
585.94	3148.02
586.10	1533.05
586.26	1055.58
586.42	847.27
586.58	755.99
586.74	711.52
586.90	709.18
587.06	617.90
587.22	695.14
587.38	624.92
587.54	1160.91
587.70	2951.42
587.86	5320.04
588.02	5888.79
588.18	4182.54
588.34	2693.96
588.49	1769.44
588.65	1170.27
588.81	692.80
588.97	498.53
589.13	402.57
589.29	416.62
589.45	404.91
589.61	383.85
589.77	519.60
589.93	540.66
590.08	482.15
590.24	496.19
590.40	458.74
590.56	430.66
590.72	468.11
590.88	360.44
591.04	383.85
591.20	437.68
591.35	367.46
591.51	383.85
591.67	369.80
591.83	374.49
591.99	397.89
592.15	330.02
592.31	337.04
592.46	372.15
592.62	435.34
592.78	454.06
592.94	454.06
593.10	437.68
593.26	402.57
593.41	379.17
593.57	482.15
593.73	582.79
593.89	2333.51
594.05	6424.77
594.20	9921.53
594.36	9621.94
594.52	6319.45
594.68	3929.76
594.84	2708.00
594.99	1495.60
595.15	791.10
595.31	517.26
595.47	543.00
595.62	337.04
595.78	376.83
595.94	395.55
596.10	414.27
596.25	404.91
596.41	409.59
596.57	292.57
596.73	341.72
596.88	547.69
597.04	1249.85
597.20	2148.61
597.36	2469.27
597.51	2015.20
597.67	1366.87
597.83	903.45
597.99	676.41
598.14	566.41
598.30	430.66
598.46	358.10
598.61	435.34
598.77	463.43
598.93	411.93
599.09	348.74
599.24	430.66
599.40	304.27
599.56	332.36
599.71	344.06
599.87	280.86
600.03	355.76
600.18	304.27
600.34	334.70
600.50	292.57
600.65	285.55
600.81	304.27
600.97	355.76
601.12	339.38
601.28	381.51
601.44	271.50
601.59	294.91
601.75	276.18
601.91	220.01
602.06	299.59
602.22	414.27
602.37	664.71
602.53	1509.65
602.69	2485.65
602.84	2626.08
603.00	1935.62
603.16	1434.75
603.31	966.64
603.47	655.35
603.62	440.02
603.78	339.38
603.94	276.18
604.09	374.49
604.25	313.63
604.40	318.31
604.56	313.63
604.71	252.78
604.87	248.10
605.03	318.31
605.18	369.80
605.34	416.62
605.49	346.40
605.65	404.91
605.80	360.44
605.96	365.12
606.12	360.44
606.27	421.30
606.43	400.23
606.58	416.62
606.74	770.04
606.89	2871.84
607.05	6113.48
607.20	8339.33
607.36	7007.56
607.51	4655.33
607.67	3283.77
607.82	2225.85
607.98	1254.53
608.13	739.61
608.29	568.75
608.44	543.00
608.60	482.15
608.75	636.63
608.91	1048.56
609.06	4599.15
609.22	10691.57
609.37	14691.54
609.53	12999.34
609.68	8823.82
609.84	5792.83
609.99	3854.86
610.15	2232.87
610.30	1334.11
610.46	1015.79
610.61	1013.45
610.76	1095.37
610.92	1123.46
611.07	1219.42
611.23	1303.68
611.38	1226.44
611.54	1029.84
611.69	910.47
611.84	847.27
612.00	739.61
612.15	650.67
612.31	772.38
612.46	957.28
612.62	1027.50
612.77	936.21
612.92	844.93
613.08	737.27
613.23	683.44
613.39	716.20
613.54	1025.15
613.69	4163.81
613.85	12863.58
614.00	21809.11
614.15	23213.43
614.31	16313.53
614.46	10839.02
614.62	7405.46
614.77	4500.85
614.92	2066.69
615.08	1137.50
615.23	763.01
615.38	664.71
615.54	622.58
615.69	1029.84
615.84	2544.16
616.00	4830.87
616.15	6267.95
616.30	5036.83
616.46	3454.63
616.61	2352.24
616.76	1596.25
616.92	943.24
617.07	629.60
617.22	472.79
617.37	433.00
617.53	411.93
617.68	365.12
617.83	458.74
617.99	372.15
618.14	428.32
618.29	407.25
618.45	341.72
618.60	365.12
618.75	325.33
618.90	285.55
619.06	346.40
619.21	299.59
619.36	344.06
619.51	330.02
619.67	315.97
619.82	292.57
619.97	297.25
620.12	376.83
620.28	383.85
620.43	358.10
620.58	400.23
620.73	407.25
620.89	365.12
621.04	641.31
621.19	1472.20
621.34	2708.00
621.49	3576.34
621.65	3260.37
621.80	2321.81
621.95	1624.33
622.10	1167.93
622.25	760.67
622.41	510.24
622.56	369.80
622.71	315.97
622.86	381.51
623.01	353.42
623.16	367.46
623.32	346.40
623.47	259.80
623.62	294.91
623.77	294.91
623.92	278.52
624.07	304.27
624.23	241.08
624.38	341.72
624.53	271.50
624.68	341.72
624.83	390.87
624.98	306.61
625.13	285.55
625.29	358.10
625.44	381.51
625.59	381.51
625.74	423.64
625.89	463.43
626.04	2064.35
626.19	6113.48
626.34	10221.12
626.49	12147.38
626.65	8842.54
626.80	6132.20
626.95	4067.85
627.10	2574.59
627.25	1343.47
627.40	636.63
627.55	507.90
627.70	407.25
627.85	372.15
628.00	327.68
628.15	372.15
628.30	280.86
628.45	257.46
628.60	285.55
628.76	294.91
628.91	327.68
629.06	304.27
629.21	327.68
629.36	344.06
629.51	372.15
629.66	421.30
629.81	468.11
629.96	1217.08
630.11	2333.51
630.26	3033.33
630.41	2918.65
630.56	2024.56
630.71	1542.41
630.86	1165.59
631.01	819.19
631.16	491.51
631.31	437.68
631.46	393.21
631.61	318.31
631.76	348.74
631.91	360.44
632.06	308.95
632.21	411.93
632.36	337.04
632.51	374.49
632.66	411.93
632.81	1039.20
632.96	3435.91
633.10	6296.04
633.25	8070.17
633.40	6696.27
633.55	4751.29
633.70	3131.64
633.85	2174.36
634.00	1219.42
634.15	657.69
634.30	451.72
634.45	266.82
634.60	346.40
634.75	287.89
634.90	311.29
635.05	320.65
635.19	435.34
635.34	255.12
635.49	346.40
635.64	337.04
635.79	229.37
635.94	355.76
636.09	294.91
636.24	276.18
636.39	236.39
636.53	297.25
636.68	236.39
636.83	299.59
636.98	304.27
637.13	325.33
637.28	404.91
637.43	449.38
637.57	660.03
637.72	2715.02
637.87	7955.48
638.02	13469.78
638.17	15105.82
638.32	11492.03
638.46	7588.02
638.61	5184.29
638.76	3236.96
638.91	1624.33
639.06	851.96
639.20	685.78
639.35	660.03
639.50	873.02
639.65	3957.85
639.80	12128.66
639.94	20393.09
640.09	23087.04
640.24	17254.43
640.39	11531.82
640.54	8016.33
640.68	4786.40
640.83	2363.94
640.98	1181.97
641.13	674.07
641.27	395.55
641.42	477.47
641.57	479.81
641.72	407.25
641.86	339.38
642.01	315.97
642.16	318.31
642.31	308.95
642.45	304.27
642.60	306.61
642.75	278.52
642.90	264.48
643.04	220.01
643.19	262.14
643.34	299.59
643.48	241.08
643.63	308.95
643.78	255.12
643.93	320.65
644.07	299.59
644.22	220.01
644.37	166.18
644.51	266.82
644.66	208.31
644.81	332.36
644.95	294.91
645.10	248.10
645.25	259.80
645.39	222.35
645.54	154.48
645.69	332.36
645.83	248.10
645.98	276.18
646.13	184.90
646.27	243.42
646.42	194.26
646.57	224.69
646.71	287.89
646.86	222.35
647.00	224.69
647.15	278.52
647.30	269.16
647.44	234.05
647.59	227.03
647.74	273.84
647.88	248.10
648.03	276.18
648.17	250.44
648.32	301.93
648.47	224.69
648.61	222.35
648.76	173.20
648.90	278.52
649.05	292.57
649.20	215.33
649.34	287.89
649.49	287.89
649.63	276.18
649.78	341.72
649.92	477.47
650.07	1617.31
650.21	5493.24
650.36	9715.56
650.51	12278.45
650.65	10097.07
650.80	7005.22
650.94	4690.43
651.09	2984.18
651.23	1551.78
651.38	779.40
651.52	524.28
651.67	388.53
651.81	306.61
651.96	365.12
652.10	257.46
652.25	259.80
652.39	367.46
652.54	341.72
652.68	575.77
652.83	1736.68
652.97	3246.32
653.12	4250.41
653.26	3932.10
653.41	2860.13
653.55	2036.27
653.70	1385.60
653.84	791.10
653.99	465.77
654.13	341.72
654.27	273.84
654.42	222.35
654.56	241.08
654.71	355.76
654.85	217.67
655.00	255.12
655.14	234.05
655.29	210.65
655.43	166.18
655.57	238.73
655.72	196.60
655.86	259.80
656.01	173.20
656.15	180.22
656.30	313.63
656.44	269.16
656.58	255.12
656.73	184.90
656.87	224.69
657.01	203.63
657.16	276.18
657.30	287.89
657.45	264.48
657.59	229.37
657.73	255.12
657.88	227.03
658.02	372.15
658.16	229.37
658.31	255.12
658.45	252.78
658.60	227.03
658.74	187.24
658.88	257.46
659.03	259.80
659.17	346.40
659.31	770.04
659.46	2462.24
659.60	4418.93
659.74	6230.51
659.89	5542.39
660.03	4030.40
660.17	2878.86
660.32	1713.27
660.46	997.07
660.60	585.13
660.74	461.09
660.89	341.72
661.03	250.44
661.17	168.52
661.32	313.63
661.46	236.39
661.60	208.31
661.74	243.42
661.89	259.80
662.03	269.16
662.17	266.82
662.31	245.76
662.46	238.73
662.60	217.67
662.74	243.42
662.88	273.84
663.03	271.50
663.17	229.37
663.31	252.78
663.45	212.99
663.60	227.03
663.74	177.88
663.88	194.26
664.02	194.26
664.17	271.50
664.31	196.60
664.45	264.48
664.59	229.37
664.73	217.67
664.88	285.55
665.02	280.86
665.16	266.82
665.30	245.76
665.44	238.73
665.59	227.03
665.73	215.33
665.87	255.12
666.01	238.73
666.15	238.73
666.29	248.10
666.44	241.08
666.58	278.52
666.72	322.99
666.86	252.78
667.00	255.12
667.14	425.98
667.28	1514.33
667.43	4409.57
667.57	8035.06
667.71	10752.42
667.85	9205.33
667.99	6752.45
668.13	4259.78
668.27	2532.46
668.41	1509.65
668.56	873.02
668.70	596.84
668.84	379.17
668.98	372.15
669.12	318.31
669.26	320.65
669.40	322.99
669.54	322.99
669.68	278.52
669.82	217.67
669.96	266.82
670.10	299.59
670.25	362.78
670.39	287.89
670.53	259.80
670.67	330.02
670.81	306.61
670.95	381.51
671.09	512.58
671.23	1724.97
671.37	3754.22
671.51	5886.45
671.65	6509.03
671.79	5263.86
671.93	3623.15
672.07	2331.17
672.21	1343.47
672.35	840.25
672.49	477.47
672.63	416.62
672.77	337.04
672.91	271.50
673.05	220.01
673.19	191.92
673.33	156.82
673.47	287.89
673.61	166.18
673.75	250.44
673.89	152.13
674.03	191.92
674.17	208.31
674.31	215.33
674.45	184.90
674.59	238.73
674.73	205.97
674.87	238.73
675.01	346.40
675.15	182.56
675.29	259.80
675.43	241.08
675.56	252.78
675.70	205.97
675.84	217.67
675.98	173.20
676.12	163.84
676.26	156.82
676.40	229.37
676.54	166.18
676.68	201.29
676.82	198.95
676.96	201.29
677.10	255.12
677.23	245.76
677.37	173.20
677.51	241.08
677.65	318.31
677.79	187.24
677.93	201.29
678.07	236.39
678.21	215.33
678.34	224.69
678.48	241.08
678.62	177.88
678.76	198.95
678.90	236.39
679.04	203.63
679.18	217.67
679.31	201.29
679.45	194.26
679.59	147.45
679.73	166.18
679.87	147.45
680.00	212.99
680.14	184.90
680.28	177.88
680.42	173.20
680.56	201.29
680.70	222.35
680.83	283.20
680.97	234.05
681.11	131.07
681.25	138.09
681.39	241.08
681.52	142.77
681.66	147.45
681.80	215.33
681.94	180.22
682.07	140.43
682.21	194.26
682.35	203.63
682.49	203.63
682.62	203.63
682.76	191.92
682.90	203.63
683.04	241.08
683.17	205.97
683.31	159.16
683.45	140.43
683.59	184.90
683.72	182.56
683.86	250.44
684.00	201.29
684.13	189.58
684.27	231.71
684.41	159.16
684.55	229.37
684.68	152.13
684.82	168.52
684.96	156.82
685.09	140.43
685.23	121.71
685.37	180.22
685.50	142.77
685.64	264.48
685.78	229.37
685.91	212.99
686.05	210.65
686.19	173.20
686.32	93.62
686.46	297.25
686.60	154.48
686.73	198.95
686.87	294.91
687.01	248.10
687.14	250.44
687.28	220.01
687.42	182.56
687.55	182.56
687.69	259.80
687.82	173.20
687.96	191.92
688.10	175.54
688.23	191.92
688.37	194.26
688.50	93.62
688.64	175.54
688.78	131.07
688.91	168.52
689.05	138.09
689.18	156.82
689.32	222.35
689.46	184.90
689.59	163.84
689.73	191.92
689.86	170.86
690.00	212.99
690.13	156.82
690.27	234.05
690.41	175.54
690.54	184.90
690.68	205.97
690.81	229.37
690.95	227.03
691.08	152.13
691.22	170.86
691.35	168.52
691.49	170.86
691.62	163.84
691.76	189.58
691.89	187.24
692.03	215.33
692.16	210.65
692.30	257.46
692.43	622.58
692.57	1949.67
692.70	3513.14
692.84	4580.43
692.97	4241.05
693.11	3063.76
693.24	2256.28
693.38	1640.72
693.51	1069.62
693.65	791.10
693.78	531.30
693.92	358.10
694.05	337.04
694.19	227.03
694.32	241.08
694.45	210.65
694.59	182.56
694.72	159.16
694.86	215.33
694.99	154.48
695.13	184.90
695.26	184.90
695.39	280.86
695.53	224.69
695.66	194.26
695.80	149.79
695.93	231.71
696.07	229.37
696.20	386.19
696.33	444.70
696.47	578.11
696.60	514.92
696.73	470.45
696.87	346.40
697.00	330.02
697.14	285.55
697.27	227.03
697.40	341.72
697.54	166.18
697.67	189.58
697.80	227.03
697.94	161.50
698.07	128.73
698.21	189.58
698.34	191.92
698.47	189.58
698.61	217.67
698.74	149.79
698.87	168.52
699.01	128.73
699.14	152.13
699.27	189.58
699.40	292.57
699.54	255.12
699.67	187.24
699.80	142.77
699.94	166.18
700.07	180.22
700.20	145.11
700.34	201.29
700.47	159.16
700.60	252.78
700.73	212.99
700.87	119.37
701.00	177.88
701.13	196.60
701.26	140.43
701.40	154.48
701.53	191.92
701.66	173.20
701.79	198.95
701.93	175.54
702.06	365.12
702.19	315.97
702.32	477.47
702.46	437.68
702.59	447.04
702.72	763.01
702.85	2352.24
702.99	5495.58
703.12	8065.49
703.25	9062.55
703.38	7770.58
703.51	6270.30
703.65	4865.97
703.78	3478.04
703.91	2260.96
704.04	1509.65
704.17	938.55
704.31	533.64
704.44	538.32
704.57	374.49
704.70	201.29
704.83	238.73
704.96	210.65
705.10	271.50
705.23	248.10
>>>>>End Processed Spectral Data<<<<<
