SpectraSuite Data File
++++++++++++++++++++++++++++++++++++
Date: Fri Oct 04 11:33:58 GMT-05:00 2013
User: price-jones
Dark Spectrum Present: No
Reference Spectrum Present: No
Number of Sampled Component Spectra: 1
Spectrometers: USB2+H05261
Integration Time (usec): 100000 (USB2+H05261)
Spectra Averaged: 1 (USB2+H05261)
Boxcar Smoothing: 0 (USB2+H05261)
Correct for Electrical Dark: No (USB2+H05261)
Strobe/Lamp Enabled: No (USB2+H05261)
Correct for Detector Non-linearity: No (USB2+H05261)
Correct for Stray Light: No (USB2+H05261)
Number of Pixels in Processed Spectrum: 2048
>>>>>Begin Processed Spectral Data<<<<<
365.73	56.17
365.92	56.17
366.12	56.17
366.32	35.11
366.52	0.00
366.72	2.34
366.91	0.00
367.11	0.00
367.31	0.00
367.51	0.00
367.70	0.00
367.90	0.00
368.10	0.00
368.30	0.00
368.49	0.00
368.69	0.00
368.89	0.00
369.09	0.00
369.28	0.00
369.48	0.00
369.68	0.00
369.87	0.00
370.07	23.41
370.27	112.35
370.47	49.15
370.66	126.39
370.86	72.56
371.06	77.24
371.25	168.52
371.45	56.17
371.65	119.37
371.84	112.35
372.04	86.60
372.24	119.37
372.44	98.30
372.63	152.13
372.83	220.01
373.03	191.92
373.22	184.90
373.42	128.73
373.62	198.95
373.81	119.37
374.01	121.71
374.21	220.01
374.40	161.50
374.60	156.82
374.79	128.73
374.99	140.43
375.19	156.82
375.38	107.66
375.58	184.90
375.78	175.54
375.97	189.58
376.17	156.82
376.37	91.28
376.56	119.37
376.76	135.75
376.95	117.03
377.15	138.09
377.35	243.42
377.54	128.73
377.74	114.69
377.93	72.56
378.13	159.16
378.33	156.82
378.52	102.98
378.72	222.35
378.91	126.39
379.11	149.79
379.31	145.11
379.50	70.22
379.70	156.82
379.89	184.90
380.09	189.58
380.28	126.39
380.48	145.11
380.68	147.45
380.87	112.35
381.07	173.20
381.26	124.05
381.46	163.84
381.65	107.66
381.85	149.79
382.04	107.66
382.24	187.24
382.43	173.20
382.63	107.66
382.83	114.69
383.02	128.73
383.22	184.90
383.41	105.32
383.61	88.94
383.80	168.52
384.00	145.11
384.19	63.19
384.39	147.45
384.58	95.96
384.78	133.41
384.97	126.39
385.17	79.58
385.36	84.26
385.56	173.20
385.75	182.56
385.95	131.07
386.14	147.45
386.34	100.64
386.53	173.20
386.72	229.37
386.92	170.86
387.11	154.48
387.31	154.48
387.50	149.79
387.70	166.18
387.89	173.20
388.09	187.24
388.28	119.37
388.48	91.28
388.67	191.92
388.86	135.75
389.06	145.11
389.25	133.41
389.45	124.05
389.64	100.64
389.84	86.60
390.03	135.75
390.22	112.35
390.42	117.03
390.61	110.01
390.81	74.90
391.00	107.66
391.19	149.79
391.39	93.62
391.58	133.41
391.78	107.66
391.97	175.54
392.16	79.58
392.36	124.05
392.55	128.73
392.75	126.39
392.94	163.84
393.13	154.48
393.33	65.54
393.52	114.69
393.71	128.73
393.91	93.62
394.10	131.07
394.29	163.84
394.49	222.35
394.68	145.11
394.88	177.88
395.07	91.28
395.26	121.71
395.46	161.50
395.65	189.58
395.84	212.99
396.04	229.37
396.23	149.79
396.42	119.37
396.62	56.17
396.81	173.20
397.00	149.79
397.19	100.64
397.39	131.07
397.58	191.92
397.77	117.03
397.97	133.41
398.16	133.41
398.35	180.22
398.55	196.60
398.74	107.66
398.93	250.44
399.12	124.05
399.32	145.11
399.51	166.18
399.70	201.29
399.90	98.30
400.09	203.63
400.28	196.60
400.47	173.20
400.67	236.39
400.86	142.77
401.05	180.22
401.24	180.22
401.44	140.43
401.63	152.13
401.82	175.54
402.01	121.71
402.21	107.66
402.40	117.03
402.59	98.30
402.78	170.86
402.97	173.20
403.17	110.01
403.36	131.07
403.55	196.60
403.74	175.54
403.93	198.95
404.13	278.52
404.32	257.46
404.51	147.45
404.70	180.22
404.89	145.11
405.09	154.48
405.28	166.18
405.47	163.84
405.66	173.20
405.85	173.20
406.05	88.94
406.24	147.45
406.43	191.92
406.62	238.73
406.81	166.18
407.00	128.73
407.20	191.92
407.39	173.20
407.58	74.90
407.77	173.20
407.96	184.90
408.15	182.56
408.34	166.18
408.54	138.09
408.73	182.56
408.92	65.54
409.11	196.60
409.30	201.29
409.49	184.90
409.68	177.88
409.87	259.80
410.07	180.22
410.26	191.92
410.45	124.05
410.64	93.62
410.83	149.79
411.02	152.13
411.21	161.50
411.40	182.56
411.59	107.66
411.78	187.24
411.98	119.37
412.17	142.77
412.36	88.94
412.55	147.45
412.74	91.28
412.93	220.01
413.12	215.33
413.31	198.95
413.50	135.75
413.69	194.26
413.88	177.88
414.07	156.82
414.26	168.52
414.45	114.69
414.64	180.22
414.83	138.09
415.02	217.67
415.22	203.63
415.41	145.11
415.60	170.86
415.79	154.48
415.98	191.92
416.17	140.43
416.36	84.26
416.55	142.77
416.74	152.13
416.93	124.05
417.12	168.52
417.31	131.07
417.50	217.67
417.69	245.76
417.88	161.50
418.07	163.84
418.26	262.14
418.45	177.88
418.64	229.37
418.83	257.46
419.02	210.65
419.21	191.92
419.39	224.69
419.58	215.33
419.77	147.45
419.96	117.03
420.15	131.07
420.34	177.88
420.53	180.22
420.72	201.29
420.91	205.97
421.10	220.01
421.29	180.22
421.48	212.99
421.67	102.98
421.86	117.03
422.05	140.43
422.24	161.50
422.43	152.13
422.61	79.58
422.80	149.79
422.99	175.54
423.18	196.60
423.37	194.26
423.56	147.45
423.75	154.48
423.94	166.18
424.13	201.29
424.32	163.84
424.50	196.60
424.69	88.94
424.88	198.95
425.07	166.18
425.26	170.86
425.45	234.05
425.64	208.31
425.83	201.29
426.01	217.67
426.20	189.58
426.39	154.48
426.58	173.20
426.77	152.13
426.96	217.67
427.15	182.56
427.33	163.84
427.52	159.16
427.71	166.18
427.90	180.22
428.09	222.35
428.28	142.77
428.46	135.75
428.65	198.95
428.84	231.71
429.03	205.97
429.22	210.65
429.40	147.45
429.59	142.77
429.78	278.52
429.97	163.84
430.16	224.69
430.34	152.13
430.53	112.35
430.72	124.05
430.91	161.50
431.10	208.31
431.28	177.88
431.47	194.26
431.66	184.90
431.85	140.43
432.03	175.54
432.22	173.20
432.41	252.78
432.60	252.78
432.79	245.76
432.97	255.12
433.16	217.67
433.35	222.35
433.54	245.76
433.72	201.29
433.91	175.54
434.10	222.35
434.28	124.05
434.47	135.75
434.66	205.97
434.85	191.92
435.03	224.69
435.22	297.25
435.41	404.91
435.59	451.72
435.78	280.86
435.97	210.65
436.16	159.16
436.34	198.95
436.53	168.52
436.72	173.20
436.90	236.39
437.09	168.52
437.28	184.90
437.46	203.63
437.65	170.86
437.84	107.66
438.02	149.79
438.21	140.43
438.40	229.37
438.58	187.24
438.77	224.69
438.96	196.60
439.14	163.84
439.33	175.54
439.52	182.56
439.70	184.90
439.89	196.60
440.08	177.88
440.26	126.39
440.45	198.95
440.63	191.92
440.82	205.97
441.01	182.56
441.19	138.09
441.38	194.26
441.57	220.01
441.75	227.03
441.94	175.54
442.12	203.63
442.31	227.03
442.50	227.03
442.68	215.33
442.87	194.26
443.05	142.77
443.24	177.88
443.43	191.92
443.61	191.92
443.80	201.29
443.98	187.24
444.17	245.76
444.35	243.42
444.54	212.99
444.73	245.76
444.91	210.65
445.10	168.52
445.28	182.56
445.47	126.39
445.65	93.62
445.84	117.03
446.02	161.50
446.21	161.50
446.39	145.11
446.58	91.28
446.77	147.45
446.95	191.92
447.14	170.86
447.32	224.69
447.51	152.13
447.69	238.73
447.88	145.11
448.06	205.97
448.25	243.42
448.43	166.18
448.62	149.79
448.80	191.92
448.99	203.63
449.17	187.24
449.36	173.20
449.54	264.48
449.73	177.88
449.91	250.44
450.10	187.24
450.28	243.42
450.46	222.35
450.65	236.39
450.83	128.73
451.02	189.58
451.20	210.65
451.39	170.86
451.57	182.56
451.76	161.50
451.94	231.71
452.13	131.07
452.31	222.35
452.49	217.67
452.68	152.13
452.86	180.22
453.05	243.42
453.23	163.84
453.42	194.26
453.60	184.90
453.78	180.22
453.97	154.48
454.15	198.95
454.34	168.52
454.52	189.58
454.70	241.08
454.89	215.33
455.07	191.92
455.26	217.67
455.44	203.63
455.62	182.56
455.81	142.77
455.99	269.16
456.17	191.92
456.36	145.11
456.54	161.50
456.73	152.13
456.91	133.41
457.09	306.61
457.28	245.76
457.46	184.90
457.64	250.44
457.83	180.22
458.01	175.54
458.19	208.31
458.38	149.79
458.56	173.20
458.74	147.45
458.93	182.56
459.11	170.86
459.29	149.79
459.48	159.16
459.66	217.67
459.84	140.43
460.03	236.39
460.21	222.35
460.39	177.88
460.57	173.20
460.76	173.20
460.94	257.46
461.12	208.31
461.31	156.82
461.49	131.07
461.67	170.86
461.85	217.67
462.04	220.01
462.22	681.10
462.40	212.99
462.59	201.29
462.77	194.26
462.95	245.76
463.13	145.11
463.32	191.92
463.50	177.88
463.68	147.45
463.86	175.54
464.05	184.90
464.23	201.29
464.41	159.16
464.59	208.31
464.78	117.03
464.96	140.43
465.14	229.37
465.32	196.60
465.50	180.22
465.69	224.69
465.87	161.50
466.05	269.16
466.23	175.54
466.41	248.10
466.60	203.63
466.78	156.82
466.96	166.18
467.14	159.16
467.32	203.63
467.51	168.52
467.69	220.01
467.87	252.78
468.05	210.65
468.23	255.12
468.41	266.82
468.60	189.58
468.78	166.18
468.96	238.73
469.14	201.29
469.32	145.11
469.50	194.26
469.69	156.82
469.87	248.10
470.05	182.56
470.23	187.24
470.41	119.37
470.59	173.20
470.77	182.56
470.95	149.79
471.14	161.50
471.32	196.60
471.50	198.95
471.68	208.31
471.86	222.35
472.04	184.90
472.22	154.48
472.40	208.31
472.58	234.05
472.77	142.77
472.95	243.42
473.13	163.84
473.31	203.63
473.49	210.65
473.67	177.88
473.85	220.01
474.03	198.95
474.21	241.08
474.39	196.60
474.57	210.65
474.75	248.10
474.93	194.26
475.12	161.50
475.30	159.16
475.48	156.82
475.66	245.76
475.84	250.44
476.02	156.82
476.20	210.65
476.38	194.26
476.56	297.25
476.74	229.37
476.92	210.65
477.10	140.43
477.28	236.39
477.46	203.63
477.64	266.82
477.82	212.99
478.00	184.90
478.18	238.73
478.36	241.08
478.54	163.84
478.72	133.41
478.90	212.99
479.08	168.52
479.26	175.54
479.44	248.10
479.62	241.08
479.80	114.69
479.98	196.60
480.16	189.58
480.34	184.90
480.52	196.60
480.70	278.52
480.88	191.92
481.06	182.56
481.24	205.97
481.41	283.20
481.59	236.39
481.77	194.26
481.95	264.48
482.13	227.03
482.31	257.46
482.49	222.35
482.67	264.48
482.85	241.08
483.03	234.05
483.21	215.33
483.39	222.35
483.57	227.03
483.74	283.20
483.92	252.78
484.10	241.08
484.28	208.31
484.46	238.73
484.64	194.26
484.82	257.46
485.00	191.92
485.18	201.29
485.35	208.31
485.53	187.24
485.71	243.42
485.89	163.84
486.07	229.37
486.25	318.31
486.43	332.36
486.61	257.46
486.78	294.91
486.96	255.12
487.14	234.05
487.32	301.93
487.50	234.05
487.68	257.46
487.85	163.84
488.03	294.91
488.21	278.52
488.39	320.65
488.57	231.71
488.75	252.78
488.92	411.93
489.10	245.76
489.28	212.99
489.46	264.48
489.64	238.73
489.81	292.57
489.99	278.52
490.17	287.89
490.35	315.97
490.53	208.31
490.70	245.76
490.88	278.52
491.06	248.10
491.24	264.48
491.41	306.61
491.59	318.31
491.77	257.46
491.95	255.12
492.13	147.45
492.30	215.33
492.48	210.65
492.66	266.82
492.84	203.63
493.01	257.46
493.19	262.14
493.37	252.78
493.54	231.71
493.72	283.20
493.90	255.12
494.08	262.14
494.25	273.84
494.43	201.29
494.61	283.20
494.79	222.35
494.96	255.12
495.14	360.44
495.32	276.18
495.49	241.08
495.67	325.33
495.85	322.99
496.02	255.12
496.20	203.63
496.38	290.23
496.55	227.03
496.73	229.37
496.91	280.86
497.09	222.35
497.26	262.14
497.44	278.52
497.62	344.06
497.79	276.18
497.97	236.39
498.14	234.05
498.32	210.65
498.50	262.14
498.67	220.01
498.85	257.46
499.03	264.48
499.20	292.57
499.38	252.78
499.56	266.82
499.73	304.27
499.91	236.39
500.08	318.31
500.26	243.42
500.44	217.67
500.61	294.91
500.79	252.78
500.97	325.33
501.14	292.57
501.32	238.73
501.49	299.59
501.67	203.63
501.84	243.42
502.02	229.37
502.20	227.03
502.37	208.31
502.55	245.76
502.72	276.18
502.90	287.89
503.07	292.57
503.25	194.26
503.43	180.22
503.60	262.14
503.78	264.48
503.95	236.39
504.13	201.29
504.30	238.73
504.48	318.31
504.65	234.05
504.83	283.20
505.01	234.05
505.18	297.25
505.36	243.42
505.53	292.57
505.71	278.52
505.88	313.63
506.06	292.57
506.23	210.65
506.41	189.58
506.58	224.69
506.76	269.16
506.93	273.84
507.11	271.50
507.28	229.37
507.46	255.12
507.63	259.80
507.81	285.55
507.98	231.71
508.16	257.46
508.33	271.50
508.50	257.46
508.68	290.23
508.85	220.01
509.03	243.42
509.20	196.60
509.38	257.46
509.55	198.95
509.73	311.29
509.90	285.55
510.08	234.05
510.25	262.14
510.42	306.61
510.60	250.44
510.77	327.68
510.95	210.65
511.12	217.67
511.30	325.33
511.47	320.65
511.64	369.80
511.82	271.50
511.99	287.89
512.17	205.97
512.34	227.03
512.51	280.86
512.69	241.08
512.86	330.02
513.04	248.10
513.21	313.63
513.38	229.37
513.56	210.65
513.73	278.52
513.90	236.39
514.08	273.84
514.25	264.48
514.43	311.29
514.60	304.27
514.77	376.83
514.95	271.50
515.12	252.78
515.29	234.05
515.47	217.67
515.64	285.55
515.81	320.65
515.99	217.67
516.16	301.93
516.33	229.37
516.51	175.54
516.68	269.16
516.85	266.82
517.03	229.37
517.20	273.84
517.37	224.69
517.54	273.84
517.72	236.39
517.89	238.73
518.06	243.42
518.24	278.52
518.41	229.37
518.58	217.67
518.75	250.44
518.93	306.61
519.10	269.16
519.27	208.31
519.45	238.73
519.62	255.12
519.79	273.84
519.96	231.71
520.14	229.37
520.31	304.27
520.48	308.95
520.65	231.71
520.83	280.86
521.00	280.86
521.17	287.89
521.34	266.82
521.52	252.78
521.69	259.80
521.86	243.42
522.03	255.12
522.20	297.25
522.38	231.71
522.55	346.40
522.72	276.18
522.89	297.25
523.07	341.72
523.24	241.08
523.41	259.80
523.58	304.27
523.75	257.46
523.92	231.71
524.10	229.37
524.27	290.23
524.44	262.14
524.61	283.20
524.78	325.33
524.96	294.91
525.13	280.86
525.30	327.68
525.47	337.04
525.64	287.89
525.81	379.17
525.98	255.12
526.16	229.37
526.33	264.48
526.50	229.37
526.67	280.86
526.84	220.01
527.01	287.89
527.18	276.18
527.36	194.26
527.53	259.80
527.70	381.51
527.87	262.14
528.04	353.42
528.21	250.44
528.38	259.80
528.55	280.86
528.72	285.55
528.89	287.89
529.07	280.86
529.24	266.82
529.41	311.29
529.58	297.25
529.75	262.14
529.92	227.03
530.09	273.84
530.26	299.59
530.43	180.22
530.60	325.33
530.77	252.78
530.94	229.37
531.11	325.33
531.28	287.89
531.46	301.93
531.63	191.92
531.80	259.80
531.97	294.91
532.14	311.29
532.31	264.48
532.48	283.20
532.65	273.84
532.82	276.18
532.99	374.49
533.16	269.16
533.33	327.68
533.50	372.15
533.67	325.33
533.84	435.34
534.01	360.44
534.18	283.20
534.35	283.20
534.52	294.91
534.69	255.12
534.86	259.80
535.03	290.23
535.20	241.08
535.37	353.42
535.54	297.25
535.71	243.42
535.88	318.31
536.05	301.93
536.22	280.86
536.38	290.23
536.55	191.92
536.72	276.18
536.89	280.86
537.06	220.01
537.23	238.73
537.40	327.68
537.57	318.31
537.74	355.76
537.91	299.59
538.08	294.91
538.25	330.02
538.42	313.63
538.59	266.82
538.75	327.68
538.92	304.27
539.09	416.62
539.26	353.42
539.43	425.98
539.60	681.10
539.77	671.73
539.94	763.01
540.11	688.12
540.28	552.37
540.44	418.96
540.61	421.30
540.78	374.49
540.95	454.06
541.12	566.41
541.29	468.11
541.46	510.24
541.62	559.39
541.79	435.34
541.96	477.47
542.13	524.28
542.30	463.43
542.47	561.73
542.63	416.62
542.80	543.00
542.97	482.15
543.14	475.13
543.31	475.13
543.48	421.30
543.64	451.72
543.81	510.24
543.98	519.60
544.15	454.06
544.32	477.47
544.48	500.87
544.65	528.96
544.82	472.79
544.99	430.66
545.16	514.92
545.32	484.49
545.49	697.48
545.66	861.32
545.83	931.53
546.00	915.15
546.16	732.59
546.33	540.66
546.50	472.79
546.67	561.73
546.83	463.43
547.00	400.23
547.17	346.40
547.34	414.27
547.50	447.04
547.67	407.25
547.84	407.25
548.00	334.70
548.17	360.44
548.34	395.55
548.51	414.27
548.67	416.62
548.84	369.80
549.01	390.87
549.18	381.51
549.34	428.32
549.51	308.95
549.68	379.17
549.84	365.12
550.01	390.87
550.18	416.62
550.34	402.57
550.51	348.74
550.68	388.53
550.84	294.91
551.01	344.06
551.18	255.12
551.34	351.08
551.51	367.46
551.68	416.62
551.84	278.52
552.01	351.08
552.18	311.29
552.34	374.49
552.51	198.95
552.68	313.63
552.84	278.52
553.01	283.20
553.18	330.02
553.34	306.61
553.51	318.31
553.67	322.99
553.84	332.36
554.01	332.36
554.17	255.12
554.34	287.89
554.51	283.20
554.67	330.02
554.84	285.55
555.00	290.23
555.17	269.16
555.33	290.23
555.50	285.55
555.67	269.16
555.83	278.52
556.00	182.56
556.16	416.62
556.33	255.12
556.50	271.50
556.66	250.44
556.83	259.80
556.99	334.70
557.16	250.44
557.32	315.97
557.49	304.27
557.65	292.57
557.82	252.78
557.98	271.50
558.15	311.29
558.32	280.86
558.48	299.59
558.65	245.76
558.81	318.31
558.98	250.44
559.14	280.86
559.31	264.48
559.47	273.84
559.64	285.55
559.80	248.10
559.97	283.20
560.13	259.80
560.30	255.12
560.46	287.89
560.63	273.84
560.79	245.76
560.96	222.35
561.12	243.42
561.29	243.42
561.45	259.80
561.61	243.42
561.78	327.68
561.94	304.27
562.11	276.18
562.27	231.71
562.44	292.57
562.60	229.37
562.77	283.20
562.93	339.38
563.10	234.05
563.26	264.48
563.42	311.29
563.59	330.02
563.75	177.88
563.92	294.91
564.08	269.16
564.24	304.27
564.41	252.78
564.57	231.71
564.74	248.10
564.90	280.86
565.07	353.42
565.23	290.23
565.39	337.04
565.56	332.36
565.72	311.29
565.88	229.37
566.05	252.78
566.21	198.95
566.38	262.14
566.54	224.69
566.70	217.67
566.87	227.03
567.03	285.55
567.19	264.48
567.36	334.70
567.52	334.70
567.68	250.44
567.85	290.23
568.01	203.63
568.17	234.05
568.34	241.08
568.50	250.44
568.66	212.99
568.83	330.02
568.99	198.95
569.15	245.76
569.32	220.01
569.48	238.73
569.64	222.35
569.81	220.01
569.97	273.84
570.13	250.44
570.30	245.76
570.46	327.68
570.62	210.65
570.78	304.27
570.95	215.33
571.11	231.71
571.27	276.18
571.43	220.01
571.60	264.48
571.76	196.60
571.92	276.18
572.09	269.16
572.25	294.91
572.41	255.12
572.57	264.48
572.74	273.84
572.90	259.80
573.06	231.71
573.22	264.48
573.38	327.68
573.55	227.03
573.71	252.78
573.87	294.91
574.03	241.08
574.20	255.12
574.36	294.91
574.52	273.84
574.68	229.37
574.84	262.14
575.01	234.05
575.17	304.27
575.33	212.99
575.49	250.44
575.65	212.99
575.82	266.82
575.98	346.40
576.14	395.55
576.30	407.25
576.46	376.83
576.62	390.87
576.79	379.17
576.95	454.06
577.11	301.93
577.27	299.59
577.43	337.04
577.59	374.49
577.75	236.39
577.92	287.89
578.08	266.82
578.24	313.63
578.40	369.80
578.56	376.83
578.72	358.10
578.88	388.53
579.04	313.63
579.21	348.74
579.37	285.55
579.53	273.84
579.69	367.46
579.85	337.04
580.01	327.68
580.17	276.18
580.33	322.99
580.49	339.38
580.65	285.55
580.82	353.42
580.98	383.85
581.14	245.76
581.30	320.65
581.46	390.87
581.62	437.68
581.78	416.62
581.94	447.04
582.10	327.68
582.26	351.08
582.42	411.93
582.58	313.63
582.74	337.04
582.90	341.72
583.06	372.15
583.22	346.40
583.38	344.06
583.54	369.80
583.70	458.74
583.86	454.06
584.02	442.36
584.18	550.03
584.34	622.58
584.50	1380.92
584.66	8908.08
584.82	21200.57
584.98	27520.02
585.14	23517.70
585.30	14679.84
585.46	9069.58
585.62	5572.82
585.78	2813.32
585.94	1280.27
586.10	685.78
586.26	573.43
586.42	545.34
586.58	498.53
586.74	491.51
586.90	428.32
587.06	435.34
587.22	428.32
587.38	437.68
587.54	763.01
587.70	1472.20
587.86	2003.50
588.02	2115.84
588.18	1603.27
588.34	1158.57
588.49	702.16
588.65	608.54
588.81	332.36
588.97	341.72
589.13	238.73
589.29	313.63
589.45	332.36
589.61	271.50
589.77	407.25
589.93	358.10
590.08	337.04
590.24	308.95
590.40	376.83
590.56	322.99
590.72	285.55
590.88	360.44
591.04	287.89
591.20	311.29
591.35	332.36
591.51	327.68
591.67	287.89
591.83	269.16
591.99	322.99
592.15	297.25
592.31	341.72
592.46	311.29
592.62	376.83
592.78	369.80
592.94	315.97
593.10	348.74
593.26	325.33
593.41	306.61
593.57	313.63
593.73	386.19
593.89	1275.59
594.05	2665.87
594.20	3606.77
594.36	3461.65
594.52	2188.40
594.68	1444.11
594.84	1090.69
594.99	713.86
595.15	468.11
595.31	397.89
595.47	433.00
595.62	290.23
595.78	276.18
595.94	346.40
596.10	280.86
596.25	278.52
596.41	264.48
596.57	238.73
596.73	339.38
596.88	411.93
597.04	671.73
597.20	947.92
597.36	1046.22
597.51	800.46
597.67	543.00
597.83	447.04
597.99	358.10
598.14	346.40
598.30	383.85
598.46	393.21
598.61	341.72
598.77	414.27
598.93	238.73
599.09	299.59
599.24	372.15
599.40	353.42
599.56	334.70
599.71	390.87
599.87	301.93
600.03	313.63
600.18	241.08
600.34	273.84
600.50	243.42
600.65	245.76
600.81	205.97
600.97	255.12
601.12	264.48
601.28	294.91
601.44	198.95
601.59	257.46
601.75	294.91
601.91	283.20
602.06	227.03
602.22	390.87
602.37	468.11
602.53	842.59
602.69	1062.60
602.84	1034.52
603.00	805.14
603.16	580.45
603.31	489.17
603.47	451.72
603.62	306.61
603.78	313.63
603.94	322.99
604.09	301.93
604.25	285.55
604.40	318.31
604.56	301.93
604.71	278.52
604.87	262.14
605.03	243.42
605.18	280.86
605.34	304.27
605.49	320.65
605.65	383.85
605.80	264.48
605.96	269.16
606.12	287.89
606.27	344.06
606.43	325.33
606.58	271.50
606.74	437.68
606.89	1437.09
607.05	2619.06
607.20	3030.99
607.36	2429.48
607.51	1806.89
607.67	1273.25
607.82	971.32
607.98	636.63
608.13	414.27
608.29	418.96
608.44	353.42
608.60	271.50
608.75	332.36
608.91	667.05
609.06	2249.25
609.22	4065.51
609.37	5032.15
609.53	4367.44
609.68	3054.40
609.84	2155.63
609.99	1444.11
610.15	1041.54
610.30	734.93
610.46	739.61
610.61	828.55
610.76	837.91
610.92	922.17
611.07	999.41
611.23	994.73
611.38	884.72
611.54	856.64
611.69	772.38
611.84	660.03
612.00	596.84
612.15	526.62
612.31	557.05
612.46	709.18
612.62	594.50
612.77	664.71
612.92	514.92
613.08	461.09
613.23	528.96
613.39	554.71
613.54	512.58
613.69	2193.08
613.85	5284.93
614.00	7466.31
614.15	7620.78
614.31	5554.09
614.46	3721.45
614.62	2670.55
614.77	1760.08
614.92	889.40
615.08	653.01
615.23	526.62
615.38	442.36
615.54	409.59
615.69	627.26
615.84	1177.29
616.00	1940.30
616.15	2251.60
616.30	1774.13
616.46	1329.42
616.61	978.34
616.76	758.33
616.92	463.43
617.07	320.65
617.22	407.25
617.37	290.23
617.53	259.80
617.68	243.42
617.83	283.20
617.99	346.40
618.14	337.04
618.29	346.40
618.45	311.29
618.60	301.93
618.75	299.59
618.90	294.91
619.06	325.33
619.21	346.40
619.36	381.51
619.51	243.42
619.67	252.78
619.82	234.05
619.97	269.16
620.12	285.55
620.28	294.91
620.43	311.29
620.58	369.80
620.73	327.68
620.89	311.29
621.04	442.36
621.19	791.10
621.34	1170.27
621.49	1348.15
621.65	1249.85
621.80	919.83
621.95	807.48
622.10	582.79
622.25	465.77
622.41	243.42
622.56	285.55
622.71	348.74
622.86	330.02
623.01	259.80
623.16	264.48
623.32	292.57
623.47	212.99
623.62	348.74
623.77	292.57
623.92	301.93
624.07	245.76
624.23	271.50
624.38	287.89
624.53	327.68
624.68	283.20
624.83	337.04
624.98	252.78
625.13	292.57
625.29	238.73
625.44	243.42
625.59	301.93
625.74	320.65
625.89	250.44
626.04	1048.56
626.19	2628.42
626.34	3815.07
626.49	4098.28
626.65	3091.85
626.80	2230.53
626.95	1540.07
627.10	987.71
627.25	629.60
627.40	360.44
627.55	308.95
627.70	285.55
627.85	322.99
628.00	278.52
628.15	217.67
628.30	224.69
628.45	306.61
628.60	334.70
628.76	271.50
628.91	229.37
629.06	280.86
629.21	276.18
629.36	341.72
629.51	271.50
629.66	297.25
629.81	367.46
629.96	711.52
630.11	1086.01
630.26	1224.10
630.41	1100.05
630.56	868.34
630.71	667.05
630.86	596.84
631.01	423.64
631.16	332.36
631.31	353.42
631.46	407.25
631.61	374.49
631.76	290.23
631.91	266.82
632.06	285.55
632.21	215.33
632.36	224.69
632.51	287.89
632.66	306.61
632.81	521.94
632.96	1640.72
633.10	2363.94
633.25	2864.82
633.40	2331.17
633.55	1654.76
633.70	1238.14
633.85	847.27
634.00	578.11
634.15	332.36
634.30	271.50
634.45	266.82
634.60	224.69
634.75	227.03
634.90	273.84
635.05	313.63
635.19	259.80
635.34	156.82
635.49	220.01
635.64	248.10
635.79	222.35
635.94	266.82
636.09	276.18
636.24	198.95
636.39	262.14
636.53	280.86
636.68	229.37
636.83	306.61
636.98	332.36
637.13	231.71
637.28	285.55
637.43	294.91
637.57	402.57
637.72	1411.34
637.87	3295.47
638.02	4716.18
638.17	4983.00
638.32	3770.60
638.46	2675.23
638.61	1930.94
638.76	1240.48
638.91	660.03
639.06	423.64
639.20	374.49
639.35	327.68
639.50	447.04
639.65	2043.29
639.80	5034.49
639.94	6904.58
640.09	7569.29
640.24	5685.16
640.39	4077.21
640.54	2757.15
640.68	1720.29
640.83	985.37
640.98	535.98
641.13	369.80
641.27	313.63
641.42	339.38
641.57	229.37
641.72	238.73
641.86	315.97
642.01	266.82
642.16	227.03
642.31	262.14
642.45	257.46
642.60	241.08
642.75	205.97
642.90	215.33
643.04	269.16
643.19	271.50
643.34	250.44
643.48	252.78
643.63	280.86
643.78	234.05
643.93	339.38
644.07	203.63
644.22	224.69
644.37	217.67
644.51	231.71
644.66	238.73
644.81	198.95
644.95	271.50
645.10	222.35
645.25	210.65
645.39	264.48
645.54	194.26
645.69	184.90
645.83	205.97
645.98	313.63
646.13	163.84
646.27	283.20
646.42	184.90
646.57	215.33
646.71	245.76
646.86	248.10
647.00	255.12
647.15	236.39
647.30	182.56
647.44	290.23
647.59	208.31
647.74	210.65
647.88	280.86
648.03	168.52
648.17	280.86
648.32	276.18
648.47	255.12
648.61	203.63
648.76	278.52
648.90	227.03
649.05	285.55
649.20	238.73
649.34	231.71
649.49	175.54
649.63	243.42
649.78	332.36
649.92	397.89
650.07	858.98
650.21	2153.29
650.36	3358.67
650.51	3920.40
650.65	3236.96
650.80	2497.35
650.94	1638.38
651.09	1149.20
651.23	657.69
651.38	484.49
651.52	304.27
651.67	269.16
651.81	339.38
651.96	255.12
652.10	208.31
652.25	203.63
652.39	252.78
652.54	266.82
652.68	451.72
652.83	840.25
652.97	1221.76
653.12	1544.75
653.26	1430.07
653.41	1076.65
653.55	788.76
653.70	585.13
653.84	395.55
653.99	315.97
654.13	166.18
654.27	236.39
654.42	166.18
654.56	191.92
654.71	159.16
654.85	212.99
655.00	187.24
655.14	205.97
655.29	203.63
655.43	255.12
655.57	224.69
655.72	159.16
655.86	255.12
656.01	215.33
656.15	227.03
656.30	252.78
656.44	205.97
656.58	196.60
656.73	245.76
656.87	182.56
657.01	217.67
657.16	236.39
657.30	201.29
657.45	229.37
657.59	149.79
657.73	177.88
657.88	278.52
658.02	301.93
658.16	161.50
658.31	227.03
658.45	236.39
658.60	248.10
658.74	159.16
658.88	259.80
659.03	201.29
659.17	224.69
659.31	451.72
659.46	1100.05
659.60	1799.87
659.74	2099.46
659.89	1886.47
660.03	1366.87
660.17	1006.43
660.32	716.20
660.46	447.04
660.60	381.51
660.74	294.91
660.89	245.76
661.03	194.26
661.17	220.01
661.32	212.99
661.46	205.97
661.60	145.11
661.74	248.10
661.89	241.08
662.03	222.35
662.17	210.65
662.31	236.39
662.46	229.37
662.60	290.23
662.74	245.76
662.88	182.56
663.03	248.10
663.17	243.42
663.31	177.88
663.45	191.92
663.60	259.80
663.74	220.01
663.88	205.97
664.02	180.22
664.17	238.73
664.31	154.48
664.45	177.88
664.59	161.50
664.73	259.80
664.88	212.99
665.02	210.65
665.16	166.18
665.30	198.95
665.44	170.86
665.59	231.71
665.73	210.65
665.87	224.69
666.01	243.42
666.15	182.56
666.29	210.65
666.44	220.01
666.58	290.23
666.72	187.24
666.86	224.69
667.00	271.50
667.14	390.87
667.28	798.12
667.43	1802.21
667.57	2895.24
667.71	3435.91
667.85	2935.03
667.99	2239.89
668.13	1439.43
668.27	983.02
668.41	599.18
668.56	355.76
668.70	262.14
668.84	243.42
668.98	318.31
669.12	248.10
669.26	180.22
669.40	266.82
669.54	285.55
669.68	205.97
669.82	180.22
669.96	238.73
670.10	262.14
670.25	124.05
670.39	304.27
670.53	273.84
670.67	208.31
670.81	201.29
670.95	313.63
671.09	297.25
671.23	889.40
671.37	1558.80
671.51	2204.78
671.65	2361.60
671.79	1767.10
671.93	1149.20
672.07	861.32
672.21	603.86
672.35	346.40
672.49	241.08
672.63	278.52
672.77	222.35
672.91	208.31
673.05	220.01
673.19	259.80
673.33	154.48
673.47	227.03
673.61	208.31
673.75	196.60
673.89	203.63
674.03	245.76
674.17	203.63
674.31	173.20
674.45	145.11
674.59	128.73
674.73	255.12
674.87	140.43
675.01	184.90
675.15	271.50
675.29	297.25
675.43	287.89
675.56	217.67
675.70	297.25
675.84	203.63
675.98	166.18
676.12	170.86
676.26	159.16
676.40	191.92
676.54	140.43
676.68	205.97
676.82	227.03
676.96	210.65
677.10	180.22
677.23	182.56
677.37	177.88
677.51	138.09
677.65	198.95
677.79	196.60
677.93	126.39
678.07	205.97
678.21	180.22
678.34	203.63
678.48	161.50
678.62	215.33
678.76	163.84
678.90	138.09
679.04	126.39
679.18	133.41
679.31	217.67
679.45	145.11
679.59	215.33
679.73	98.30
679.87	208.31
680.00	217.67
680.14	142.77
680.28	133.41
680.42	152.13
680.56	215.33
680.70	217.67
680.83	196.60
680.97	133.41
681.11	184.90
681.25	187.24
681.39	170.86
681.52	105.32
681.66	149.79
681.80	173.20
681.94	177.88
682.07	184.90
682.21	220.01
682.35	194.26
682.49	189.58
682.62	217.67
682.76	119.37
682.90	262.14
683.04	201.29
683.17	210.65
683.31	170.86
683.45	236.39
683.59	311.29
683.72	152.13
683.86	142.77
684.00	170.86
684.13	212.99
684.27	208.31
684.41	203.63
684.55	131.07
684.68	177.88
684.82	168.52
684.96	203.63
685.09	152.13
685.23	128.73
685.37	182.56
685.50	229.37
685.64	208.31
685.78	175.54
685.91	145.11
686.05	175.54
686.19	203.63
686.32	210.65
686.46	168.52
686.60	210.65
686.73	140.43
686.87	255.12
687.01	198.95
687.14	220.01
687.28	231.71
687.42	177.88
687.55	189.58
687.69	182.56
687.82	175.54
687.96	152.13
688.10	234.05
688.23	191.92
688.37	227.03
688.50	177.88
688.64	173.20
688.78	135.75
688.91	198.95
689.05	135.75
689.18	177.88
689.32	147.45
689.46	191.92
689.59	220.01
689.73	215.33
689.86	203.63
690.00	170.86
690.13	156.82
690.27	93.62
690.41	205.97
690.54	128.73
690.68	196.60
690.81	140.43
690.95	182.56
691.08	194.26
691.22	147.45
691.35	184.90
691.49	119.37
691.62	119.37
691.76	117.03
691.89	227.03
692.03	196.60
692.16	159.16
692.30	236.39
692.43	320.65
692.57	763.01
692.70	1160.91
692.84	1521.35
692.97	1444.11
693.11	1053.24
693.24	753.65
693.38	566.41
693.51	510.24
693.65	386.19
693.78	313.63
693.92	224.69
694.05	208.31
694.19	250.44
694.32	184.90
694.45	88.94
694.59	166.18
694.72	147.45
694.86	126.39
694.99	189.58
695.13	145.11
695.26	138.09
695.39	205.97
695.53	231.71
695.66	163.84
695.80	222.35
695.93	163.84
696.07	236.39
696.20	198.95
696.33	276.18
696.47	280.86
696.60	264.48
696.73	215.33
696.87	175.54
697.00	304.27
697.14	161.50
697.27	259.80
697.40	245.76
697.54	191.92
697.67	278.52
697.80	177.88
697.94	191.92
698.07	152.13
698.21	140.43
698.34	215.33
698.47	187.24
698.61	131.07
698.74	168.52
698.87	203.63
699.01	102.98
699.14	156.82
699.27	208.31
699.40	255.12
699.54	145.11
699.67	201.29
699.80	189.58
699.94	159.16
700.07	161.50
700.20	72.56
700.34	241.08
700.47	79.58
700.60	196.60
700.73	145.11
700.87	93.62
701.00	135.75
701.13	145.11
701.26	194.26
701.40	203.63
701.53	215.33
701.66	175.54
701.79	154.48
701.93	140.43
702.06	299.59
702.19	243.42
702.32	315.97
702.46	248.10
702.59	320.65
702.72	414.27
702.85	1032.18
702.99	1959.03
703.12	2654.17
703.25	2839.07
703.38	2431.82
703.51	1994.14
703.65	1699.23
703.78	1088.35
703.91	814.51
704.04	524.28
704.17	475.13
704.31	222.35
704.44	287.89
704.57	205.97
704.70	159.16
704.83	147.45
704.96	189.58
705.10	196.60
705.23	170.86
>>>>>End Processed Spectral Data<<<<<
