SpectraSuite Data File
++++++++++++++++++++++++++++++++++++
Date: Fri Oct 04 11:34:10 GMT-05:00 2013
User: price-jones
Dark Spectrum Present: No
Reference Spectrum Present: No
Number of Sampled Component Spectra: 1
Spectrometers: USB2+H05261
Integration Time (usec): 100000 (USB2+H05261)
Spectra Averaged: 1 (USB2+H05261)
Boxcar Smoothing: 0 (USB2+H05261)
Correct for Electrical Dark: No (USB2+H05261)
Strobe/Lamp Enabled: No (USB2+H05261)
Correct for Detector Non-linearity: No (USB2+H05261)
Correct for Stray Light: No (USB2+H05261)
Number of Pixels in Processed Spectrum: 2048
>>>>>Begin Processed Spectral Data<<<<<
365.73	110.01
365.92	110.01
366.12	110.01
366.32	0.00
366.52	0.00
366.72	0.00
366.91	0.00
367.11	0.00
367.31	0.00
367.51	0.00
367.70	0.00
367.90	0.00
368.10	11.70
368.30	0.00
368.49	0.00
368.69	30.43
368.89	0.00
369.09	0.00
369.28	88.94
369.48	0.00
369.68	42.13
369.87	39.79
370.07	7.02
370.27	70.22
370.47	0.00
370.66	35.11
370.86	53.83
371.06	86.60
371.25	180.22
371.45	159.16
371.65	58.51
371.84	145.11
372.04	112.35
372.24	60.85
372.44	133.41
372.63	145.11
372.83	147.45
373.03	138.09
373.22	203.63
373.42	154.48
373.62	117.03
373.81	107.66
374.01	196.60
374.21	100.64
374.40	177.88
374.60	72.56
374.79	168.52
374.99	65.54
375.19	98.30
375.38	145.11
375.58	173.20
375.78	191.92
375.97	114.69
376.17	189.58
376.37	133.41
376.56	245.76
376.76	119.37
376.95	156.82
377.15	138.09
377.35	201.29
377.54	133.41
377.74	133.41
377.93	117.03
378.13	93.62
378.33	194.26
378.52	187.24
378.72	159.16
378.91	156.82
379.11	124.05
379.31	173.20
379.50	105.32
379.70	98.30
379.89	191.92
380.09	149.79
380.28	166.18
380.48	114.69
380.68	88.94
380.87	168.52
381.07	110.01
381.26	156.82
381.46	149.79
381.65	161.50
381.85	86.60
382.04	81.92
382.24	168.52
382.43	154.48
382.63	107.66
382.83	128.73
383.02	142.77
383.22	166.18
383.41	70.22
383.61	159.16
383.80	163.84
384.00	140.43
384.19	131.07
384.39	187.24
384.58	147.45
384.78	180.22
384.97	63.19
385.17	95.96
385.36	95.96
385.56	93.62
385.75	112.35
385.95	121.71
386.14	128.73
386.34	154.48
386.53	105.32
386.72	147.45
386.92	210.65
387.11	154.48
387.31	147.45
387.50	119.37
387.70	177.88
387.89	142.77
388.09	110.01
388.28	180.22
388.48	102.98
388.67	152.13
388.86	142.77
389.06	177.88
389.25	114.69
389.45	180.22
389.64	189.58
389.84	149.79
390.03	112.35
390.22	149.79
390.42	142.77
390.61	100.64
390.81	95.96
391.00	234.05
391.19	168.52
391.39	161.50
391.58	140.43
391.78	168.52
391.97	159.16
392.16	86.60
392.36	175.54
392.55	196.60
392.75	215.33
392.94	196.60
393.13	173.20
393.33	152.13
393.52	161.50
393.71	152.13
393.91	184.90
394.10	138.09
394.29	133.41
394.49	147.45
394.68	182.56
394.88	245.76
395.07	194.26
395.26	145.11
395.46	100.64
395.65	133.41
395.84	180.22
396.04	248.10
396.23	168.52
396.42	117.03
396.62	175.54
396.81	182.56
397.00	168.52
397.19	194.26
397.39	166.18
397.58	163.84
397.77	35.11
397.97	156.82
398.16	142.77
398.35	163.84
398.55	117.03
398.74	152.13
398.93	161.50
399.12	142.77
399.32	138.09
399.51	189.58
399.70	133.41
399.90	138.09
400.09	173.20
400.28	56.17
400.47	156.82
400.67	166.18
400.86	133.41
401.05	166.18
401.24	201.29
401.44	198.95
401.63	91.28
401.82	229.37
402.01	107.66
402.21	182.56
402.40	159.16
402.59	126.39
402.78	173.20
402.97	124.05
403.17	184.90
403.36	198.95
403.55	163.84
403.74	189.58
403.93	191.92
404.13	259.80
404.32	238.73
404.51	182.56
404.70	189.58
404.89	91.28
405.09	201.29
405.28	191.92
405.47	191.92
405.66	234.05
405.85	168.52
406.05	175.54
406.24	93.62
406.43	198.95
406.62	145.11
406.81	170.86
407.00	168.52
407.20	222.35
407.39	138.09
407.58	180.22
407.77	156.82
407.96	227.03
408.15	177.88
408.34	142.77
408.54	88.94
408.73	145.11
408.92	105.32
409.11	175.54
409.30	145.11
409.49	140.43
409.68	107.66
409.87	147.45
410.07	227.03
410.26	117.03
410.45	170.86
410.64	182.56
410.83	147.45
411.02	173.20
411.21	135.75
411.40	159.16
411.59	175.54
411.78	117.03
411.98	182.56
412.17	84.26
412.36	201.29
412.55	138.09
412.74	161.50
412.93	147.45
413.12	168.52
413.31	161.50
413.50	212.99
413.69	142.77
413.88	241.08
414.07	180.22
414.26	170.86
414.45	173.20
414.64	203.63
414.83	166.18
415.02	203.63
415.22	170.86
415.41	177.88
415.60	149.79
415.79	208.31
415.98	196.60
416.17	220.01
416.36	102.98
416.55	133.41
416.74	175.54
416.93	208.31
417.12	135.75
417.31	161.50
417.50	173.20
417.69	135.75
417.88	163.84
418.07	205.97
418.26	135.75
418.45	168.52
418.64	182.56
418.83	156.82
419.02	189.58
419.21	255.12
419.39	255.12
419.58	201.29
419.77	180.22
419.96	201.29
420.15	212.99
420.34	184.90
420.53	238.73
420.72	203.63
420.91	126.39
421.10	63.19
421.29	168.52
421.48	100.64
421.67	196.60
421.86	131.07
422.05	161.50
422.24	163.84
422.43	149.79
422.61	175.54
422.80	124.05
422.99	170.86
423.18	194.26
423.37	163.84
423.56	112.35
423.75	149.79
423.94	126.39
424.13	170.86
424.32	161.50
424.50	182.56
424.69	212.99
424.88	152.13
425.07	154.48
425.26	175.54
425.45	196.60
425.64	210.65
425.83	278.52
426.01	273.84
426.20	131.07
426.39	126.39
426.58	154.48
426.77	159.16
426.96	147.45
427.15	173.20
427.33	194.26
427.52	170.86
427.71	250.44
427.90	224.69
428.09	166.18
428.28	156.82
428.46	138.09
428.65	175.54
428.84	170.86
429.03	271.50
429.22	152.13
429.40	110.01
429.59	112.35
429.78	224.69
429.97	229.37
430.16	114.69
430.34	210.65
430.53	168.52
430.72	175.54
430.91	145.11
431.10	51.49
431.28	112.35
431.47	180.22
431.66	170.86
431.85	156.82
432.03	124.05
432.22	271.50
432.41	234.05
432.60	203.63
432.79	212.99
432.97	269.16
433.16	276.18
433.35	177.88
433.54	173.20
433.72	222.35
433.91	222.35
434.10	259.80
434.28	168.52
434.47	217.67
434.66	241.08
434.85	215.33
435.03	224.69
435.22	402.57
435.41	510.24
435.59	585.13
435.78	337.04
435.97	304.27
436.16	227.03
436.34	124.05
436.53	152.13
436.72	173.20
436.90	262.14
437.09	107.66
437.28	182.56
437.46	117.03
437.65	182.56
437.84	227.03
438.02	212.99
438.21	187.24
438.40	182.56
438.58	217.67
438.77	184.90
438.96	156.82
439.14	201.29
439.33	330.02
439.52	168.52
439.70	215.33
439.89	234.05
440.08	224.69
440.26	177.88
440.45	152.13
440.63	210.65
440.82	196.60
441.01	177.88
441.19	215.33
441.38	194.26
441.57	210.65
441.75	124.05
441.94	220.01
442.12	210.65
442.31	159.16
442.50	166.18
442.68	149.79
442.87	145.11
443.05	156.82
443.24	168.52
443.43	173.20
443.61	271.50
443.80	201.29
443.98	241.08
444.17	131.07
444.35	124.05
444.54	168.52
444.73	177.88
444.91	264.48
445.10	227.03
445.28	189.58
445.47	205.97
445.65	205.97
445.84	145.11
446.02	227.03
446.21	154.48
446.39	294.91
446.58	166.18
446.77	145.11
446.95	121.71
447.14	191.92
447.32	301.93
447.51	189.58
447.69	229.37
447.88	173.20
448.06	182.56
448.25	177.88
448.43	231.71
448.62	227.03
448.80	210.65
448.99	283.20
449.17	257.46
449.36	196.60
449.54	203.63
449.73	126.39
449.91	241.08
450.10	238.73
450.28	264.48
450.46	212.99
450.65	161.50
450.83	229.37
451.02	201.29
451.20	231.71
451.39	236.39
451.57	222.35
451.76	180.22
451.94	180.22
452.13	81.92
452.31	170.86
452.49	222.35
452.68	154.48
452.86	201.29
453.05	128.73
453.23	220.01
453.42	140.43
453.60	156.82
453.78	215.33
453.97	222.35
454.15	114.69
454.34	191.92
454.52	224.69
454.70	229.37
454.89	229.37
455.07	196.60
455.26	215.33
455.44	145.11
455.62	180.22
455.81	208.31
455.99	187.24
456.17	180.22
456.36	166.18
456.54	147.45
456.73	201.29
456.91	198.95
457.09	208.31
457.28	273.84
457.46	189.58
457.64	238.73
457.83	140.43
458.01	156.82
458.19	191.92
458.38	133.41
458.56	210.65
458.74	191.92
458.93	276.18
459.11	255.12
459.29	231.71
459.48	238.73
459.66	238.73
459.84	177.88
460.03	203.63
460.21	177.88
460.39	168.52
460.57	173.20
460.76	168.52
460.94	210.65
461.12	229.37
461.31	210.65
461.49	194.26
461.67	182.56
461.85	210.65
462.04	241.08
462.22	339.38
462.40	245.76
462.59	238.73
462.77	152.13
462.95	229.37
463.13	201.29
463.32	189.58
463.50	227.03
463.68	283.20
463.86	234.05
464.05	131.07
464.23	210.65
464.41	248.10
464.59	194.26
464.78	196.60
464.96	163.84
465.14	159.16
465.32	208.31
465.50	184.90
465.69	205.97
465.87	140.43
466.05	224.69
466.23	234.05
466.41	201.29
466.60	161.50
466.78	224.69
466.96	194.26
467.14	201.29
467.32	231.71
467.51	177.88
467.69	196.60
467.87	212.99
468.05	135.75
468.23	241.08
468.41	215.33
468.60	208.31
468.78	184.90
468.96	182.56
469.14	173.20
469.32	173.20
469.50	128.73
469.69	210.65
469.87	210.65
470.05	163.84
470.23	262.14
470.41	135.75
470.59	159.16
470.77	161.50
470.95	238.73
471.14	259.80
471.32	102.98
471.50	250.44
471.68	205.97
471.86	182.56
472.04	203.63
472.22	259.80
472.40	182.56
472.58	264.48
472.77	182.56
472.95	222.35
473.13	266.82
473.31	234.05
473.49	177.88
473.67	117.03
473.85	166.18
474.03	196.60
474.21	220.01
474.39	205.97
474.57	222.35
474.75	147.45
474.93	128.73
475.12	182.56
475.30	231.71
475.48	152.13
475.66	205.97
475.84	227.03
476.02	161.50
476.20	222.35
476.38	177.88
476.56	255.12
476.74	245.76
476.92	98.30
477.10	227.03
477.28	196.60
477.46	198.95
477.64	259.80
477.82	215.33
478.00	220.01
478.18	138.09
478.36	201.29
478.54	180.22
478.72	154.48
478.90	229.37
479.08	269.16
479.26	163.84
479.44	245.76
479.62	166.18
479.80	184.90
479.98	184.90
480.16	212.99
480.34	236.39
480.52	212.99
480.70	170.86
480.88	168.52
481.06	250.44
481.24	236.39
481.41	306.61
481.59	231.71
481.77	241.08
481.95	243.42
482.13	301.93
482.31	271.50
482.49	245.76
482.67	278.52
482.85	248.10
483.03	276.18
483.21	234.05
483.39	234.05
483.57	227.03
483.74	266.82
483.92	234.05
484.10	243.42
484.28	241.08
484.46	311.29
484.64	238.73
484.82	231.71
485.00	234.05
485.18	215.33
485.35	264.48
485.53	248.10
485.71	255.12
485.89	245.76
486.07	301.93
486.25	306.61
486.43	297.25
486.61	250.44
486.78	259.80
486.96	234.05
487.14	278.52
487.32	238.73
487.50	145.11
487.68	290.23
487.85	327.68
488.03	250.44
488.21	243.42
488.39	315.97
488.57	365.12
488.75	231.71
488.92	472.79
489.10	313.63
489.28	374.49
489.46	313.63
489.64	322.99
489.81	212.99
489.99	245.76
490.17	224.69
490.35	271.50
490.53	245.76
490.70	301.93
490.88	184.90
491.06	220.01
491.24	220.01
491.41	259.80
491.59	238.73
491.77	227.03
491.95	276.18
492.13	299.59
492.30	234.05
492.48	227.03
492.66	177.88
492.84	208.31
493.01	234.05
493.19	236.39
493.37	231.71
493.54	276.18
493.72	243.42
493.90	220.01
494.08	243.42
494.25	222.35
494.43	297.25
494.61	278.52
494.79	194.26
494.96	222.35
495.14	215.33
495.32	212.99
495.49	194.26
495.67	278.52
495.85	203.63
496.02	205.97
496.20	238.73
496.38	292.57
496.55	294.91
496.73	271.50
496.91	250.44
497.09	304.27
497.26	250.44
497.44	264.48
497.62	292.57
497.79	220.01
497.97	245.76
498.14	243.42
498.32	299.59
498.50	234.05
498.67	234.05
498.85	166.18
499.03	271.50
499.20	227.03
499.38	266.82
499.56	262.14
499.73	292.57
499.91	243.42
500.08	238.73
500.26	285.55
500.44	236.39
500.61	313.63
500.79	229.37
500.97	234.05
501.14	311.29
501.32	212.99
501.49	257.46
501.67	205.97
501.84	327.68
502.02	196.60
502.20	322.99
502.37	266.82
502.55	280.86
502.72	250.44
502.90	334.70
503.07	285.55
503.25	285.55
503.43	196.60
503.60	222.35
503.78	210.65
503.95	283.20
504.13	243.42
504.30	255.12
504.48	351.08
504.65	287.89
504.83	322.99
505.01	292.57
505.18	245.76
505.36	266.82
505.53	187.24
505.71	243.42
505.88	320.65
506.06	301.93
506.23	231.71
506.41	234.05
506.58	255.12
506.76	257.46
506.93	290.23
507.11	138.09
507.28	234.05
507.46	255.12
507.63	210.65
507.81	217.67
507.98	276.18
508.16	217.67
508.33	262.14
508.50	227.03
508.68	269.16
508.85	322.99
509.03	231.71
509.20	210.65
509.38	243.42
509.55	280.86
509.73	168.52
509.90	234.05
510.08	255.12
510.25	245.76
510.42	220.01
510.60	280.86
510.77	255.12
510.95	304.27
511.12	292.57
511.30	306.61
511.47	311.29
511.64	365.12
511.82	276.18
511.99	250.44
512.17	278.52
512.34	278.52
512.51	308.95
512.69	306.61
512.86	322.99
513.04	175.54
513.21	269.16
513.38	264.48
513.56	184.90
513.73	287.89
513.90	266.82
514.08	224.69
514.25	355.76
514.43	292.57
514.60	318.31
514.77	259.80
514.95	229.37
515.12	234.05
515.29	264.48
515.47	306.61
515.64	198.95
515.81	290.23
515.99	292.57
516.16	311.29
516.33	229.37
516.51	290.23
516.68	222.35
516.85	217.67
517.03	215.33
517.20	234.05
517.37	280.86
517.54	320.65
517.72	304.27
517.89	322.99
518.06	243.42
518.24	355.76
518.41	365.12
518.58	299.59
518.75	262.14
518.93	224.69
519.10	252.78
519.27	290.23
519.45	252.78
519.62	304.27
519.79	245.76
519.96	301.93
520.14	252.78
520.31	325.33
520.48	327.68
520.65	318.31
520.83	271.50
521.00	285.55
521.17	320.65
521.34	231.71
521.52	283.20
521.69	177.88
521.86	337.04
522.03	208.31
522.20	285.55
522.38	308.95
522.55	238.73
522.72	245.76
522.89	358.10
523.07	388.53
523.24	315.97
523.41	243.42
523.58	234.05
523.75	273.84
523.92	250.44
524.10	217.67
524.27	313.63
524.44	231.71
524.61	327.68
524.78	217.67
524.96	299.59
525.13	264.48
525.30	379.17
525.47	297.25
525.64	290.23
525.81	259.80
525.98	294.91
526.16	278.52
526.33	220.01
526.50	241.08
526.67	208.31
526.84	276.18
527.01	252.78
527.18	330.02
527.36	196.60
527.53	250.44
527.70	308.95
527.87	264.48
528.04	320.65
528.21	243.42
528.38	252.78
528.55	304.27
528.72	390.87
528.89	308.95
529.07	262.14
529.24	278.52
529.41	322.99
529.58	304.27
529.75	292.57
529.92	250.44
530.09	280.86
530.26	280.86
530.43	327.68
530.60	332.36
530.77	269.16
530.94	330.02
531.11	262.14
531.28	198.95
531.46	269.16
531.63	264.48
531.80	337.04
531.97	241.08
532.14	294.91
532.31	283.20
532.48	304.27
532.65	330.02
532.82	332.36
532.99	318.31
533.16	332.36
533.33	351.08
533.50	322.99
533.67	365.12
533.84	404.91
534.01	435.34
534.18	348.74
534.35	315.97
534.52	266.82
534.69	332.36
534.86	269.16
535.03	287.89
535.20	372.15
535.37	290.23
535.54	290.23
535.71	313.63
535.88	320.65
536.05	353.42
536.22	390.87
536.38	299.59
536.55	250.44
536.72	355.76
536.89	341.72
537.06	367.46
537.23	273.84
537.40	297.25
537.57	285.55
537.74	327.68
537.91	301.93
538.08	308.95
538.25	334.70
538.42	355.76
538.59	339.38
538.75	297.25
538.92	334.70
539.09	416.62
539.26	362.78
539.43	561.73
539.60	1095.37
539.77	1472.20
539.94	1397.30
540.11	1060.26
540.28	788.76
540.44	648.33
540.61	475.13
540.78	409.59
540.95	514.92
541.12	582.79
541.29	561.73
541.46	704.50
541.62	624.92
541.79	557.05
541.96	657.69
542.13	622.58
542.30	580.45
542.47	587.47
542.63	566.41
542.80	524.28
542.97	423.64
543.14	486.83
543.31	521.94
543.48	512.58
543.64	566.41
543.81	496.19
543.98	479.81
544.15	547.69
544.32	566.41
544.48	568.75
544.65	526.62
544.82	484.49
544.99	528.96
545.16	561.73
545.32	592.16
545.49	837.91
545.66	1097.71
545.83	1128.14
546.00	1034.52
546.16	767.70
546.33	655.35
546.50	547.69
546.67	482.15
546.83	491.51
547.00	433.00
547.17	430.66
547.34	423.64
547.50	444.70
547.67	433.00
547.84	330.02
548.00	379.17
548.17	367.46
548.34	411.93
548.51	479.81
548.67	486.83
548.84	421.30
549.01	386.19
549.18	327.68
549.34	482.15
549.51	418.96
549.68	372.15
549.84	365.12
550.01	395.55
550.18	409.59
550.34	409.59
550.51	339.38
550.68	404.91
550.84	294.91
551.01	327.68
551.18	292.57
551.34	269.16
551.51	287.89
551.68	404.91
551.84	393.21
552.01	287.89
552.18	365.12
552.34	313.63
552.51	315.97
552.68	308.95
552.84	353.42
553.01	322.99
553.18	278.52
553.34	276.18
553.51	266.82
553.67	313.63
553.84	299.59
554.01	231.71
554.17	306.61
554.34	287.89
554.51	297.25
554.67	369.80
554.84	339.38
555.00	294.91
555.17	283.20
555.33	294.91
555.50	341.72
555.67	287.89
555.83	369.80
556.00	348.74
556.16	458.74
556.33	304.27
556.50	280.86
556.66	236.39
556.83	252.78
556.99	353.42
557.16	308.95
557.32	285.55
557.49	215.33
557.65	266.82
557.82	252.78
557.98	290.23
558.15	227.03
558.32	231.71
558.48	280.86
558.65	327.68
558.81	297.25
558.98	294.91
559.14	255.12
559.31	222.35
559.47	257.46
559.64	189.58
559.80	325.33
559.97	229.37
560.13	304.27
560.30	290.23
560.46	266.82
560.63	344.06
560.79	294.91
560.96	257.46
561.12	189.58
561.29	280.86
561.45	177.88
561.61	255.12
561.78	337.04
561.94	241.08
562.11	269.16
562.27	250.44
562.44	248.10
562.60	308.95
562.77	241.08
562.93	341.72
563.10	252.78
563.26	245.76
563.42	236.39
563.59	330.02
563.75	238.73
563.92	306.61
564.08	271.50
564.24	269.16
564.41	341.72
564.57	231.71
564.74	220.01
564.90	191.92
565.07	360.44
565.23	285.55
565.39	297.25
565.56	241.08
565.72	308.95
565.88	355.76
566.05	224.69
566.21	227.03
566.38	243.42
566.54	301.93
566.70	212.99
566.87	245.76
567.03	231.71
567.19	243.42
567.36	266.82
567.52	283.20
567.68	257.46
567.85	264.48
568.01	264.48
568.17	280.86
568.34	238.73
568.50	332.36
568.66	294.91
568.83	397.89
568.99	332.36
569.15	299.59
569.32	259.80
569.48	222.35
569.64	241.08
569.81	311.29
569.97	273.84
570.13	198.95
570.30	238.73
570.46	271.50
570.62	177.88
570.78	304.27
570.95	177.88
571.11	255.12
571.27	222.35
571.43	271.50
571.60	290.23
571.76	243.42
571.92	318.31
572.09	339.38
572.25	278.52
572.41	278.52
572.57	224.69
572.74	301.93
572.90	285.55
573.06	259.80
573.22	266.82
573.38	339.38
573.55	250.44
573.71	299.59
573.87	337.04
574.03	259.80
574.20	346.40
574.36	409.59
574.52	327.68
574.68	334.70
574.84	334.70
575.01	271.50
575.17	276.18
575.33	248.10
575.49	280.86
575.65	351.08
575.82	369.80
575.98	543.00
576.14	615.56
576.30	653.01
576.46	603.86
576.62	580.45
576.79	550.03
576.95	437.68
577.11	416.62
577.27	308.95
577.43	285.55
577.59	315.97
577.75	381.51
577.92	320.65
578.08	262.14
578.24	278.52
578.40	360.44
578.56	369.80
578.72	456.40
578.88	461.09
579.04	388.53
579.21	416.62
579.37	344.06
579.53	325.33
579.69	341.72
579.85	435.34
580.01	435.34
580.17	423.64
580.33	390.87
580.49	330.02
580.65	407.25
580.82	425.98
580.98	423.64
581.14	397.89
581.30	463.43
581.46	482.15
581.62	568.75
581.78	538.32
581.94	660.03
582.10	533.64
582.26	435.34
582.42	386.19
582.58	472.79
582.74	465.77
582.90	491.51
583.06	528.96
583.22	601.52
583.38	578.11
583.54	575.77
583.70	657.69
583.86	692.80
584.02	751.31
584.18	933.87
584.34	1083.67
584.50	2785.24
584.66	20535.86
584.82	50632.81
584.98	60093.25
585.14	56528.62
585.30	39459.09
585.46	23658.14
585.62	14572.18
585.78	6918.62
585.94	2806.30
586.10	1394.96
586.26	1036.86
586.42	898.77
586.58	807.48
586.74	615.56
586.90	702.16
587.06	669.39
587.22	564.07
587.38	615.56
587.54	1191.33
587.70	3075.46
587.86	4814.48
588.02	5242.80
588.18	3698.05
588.34	2431.82
588.49	1703.91
588.65	1125.80
588.81	622.58
588.97	479.81
589.13	372.15
589.29	304.27
589.45	285.55
589.61	358.10
589.77	397.89
589.93	479.81
590.08	470.45
590.24	449.38
590.40	543.00
590.56	402.57
590.72	425.98
590.88	428.32
591.04	421.30
591.20	386.19
591.35	425.98
591.51	397.89
591.67	365.12
591.83	407.25
591.99	374.49
592.15	407.25
592.31	351.08
592.46	404.91
592.62	365.12
592.78	372.15
592.94	395.55
593.10	358.10
593.26	428.32
593.41	468.11
593.57	400.23
593.73	535.98
593.89	2754.81
594.05	6427.11
594.20	9130.43
594.36	8344.01
594.52	5483.88
594.68	3620.81
594.84	2473.95
594.99	1411.34
595.15	788.76
595.31	470.45
595.47	458.74
595.62	390.87
595.78	365.12
595.94	369.80
596.10	388.53
596.25	351.08
596.41	376.83
596.57	383.85
596.73	388.53
596.88	552.37
597.04	1217.08
597.20	2113.50
597.36	2359.26
597.51	1699.23
597.67	1254.53
597.83	910.47
597.99	706.84
598.14	528.96
598.30	430.66
598.46	346.40
598.61	433.00
598.77	383.85
598.93	404.91
599.09	341.72
599.24	301.93
599.40	390.87
599.56	308.95
599.71	299.59
599.87	308.95
600.03	299.59
600.18	337.04
600.34	376.83
600.50	259.80
600.65	322.99
600.81	297.25
600.97	264.48
601.12	372.15
601.28	358.10
601.44	332.36
601.59	299.59
601.75	301.93
601.91	304.27
602.06	330.02
602.22	390.87
602.37	669.39
602.53	1460.49
602.69	2338.20
602.84	2321.81
603.00	1750.72
603.16	1322.40
603.31	936.21
603.47	645.99
603.62	442.36
603.78	351.08
603.94	290.23
604.09	327.68
604.25	339.38
604.40	358.10
604.56	271.50
604.71	248.10
604.87	170.86
605.03	297.25
605.18	320.65
605.34	327.68
605.49	388.53
605.65	369.80
605.80	344.06
605.96	351.08
606.12	283.20
606.27	437.68
606.43	397.89
606.58	383.85
606.74	781.74
606.89	2993.55
607.05	5799.85
607.20	7524.82
607.36	6225.82
607.51	4411.91
607.67	3047.38
607.82	1975.41
607.98	1167.93
608.13	716.20
608.29	533.64
608.44	484.49
608.60	510.24
608.75	617.90
608.91	1224.10
609.06	4945.55
609.22	10122.82
609.37	12875.29
609.53	11040.31
609.68	7719.09
609.84	5263.86
609.99	3513.14
610.15	2094.78
610.30	1203.04
610.46	971.32
610.61	917.49
610.76	1069.62
610.92	1142.18
611.07	1259.21
611.23	1263.89
611.38	1273.25
611.54	1074.31
611.69	877.70
611.84	903.45
612.00	706.84
612.15	685.78
612.31	737.27
612.46	866.00
612.62	889.40
612.77	856.64
612.92	777.06
613.08	723.23
613.23	737.27
613.39	709.18
613.54	1018.13
613.69	4475.10
613.85	12669.32
614.00	19775.19
614.15	20629.48
614.31	14406.00
614.46	9699.18
614.62	6532.44
614.77	4023.38
614.92	1886.47
615.08	1050.90
615.23	746.63
615.38	638.97
615.54	528.96
615.69	976.00
615.84	2644.81
616.00	4479.79
616.15	5514.30
616.30	4369.78
616.46	3119.93
616.61	2186.06
616.76	1675.82
616.92	964.30
617.07	582.79
617.22	355.76
617.37	360.44
617.53	374.49
617.68	376.83
617.83	388.53
617.99	404.91
618.14	407.25
618.29	433.00
618.45	283.20
618.60	355.76
618.75	308.95
618.90	283.20
619.06	334.70
619.21	409.59
619.36	337.04
619.51	325.33
619.67	297.25
619.82	304.27
619.97	290.23
620.12	341.72
620.28	313.63
620.43	341.72
620.58	341.72
620.73	318.31
620.89	374.49
621.04	599.18
621.19	1467.52
621.34	2569.91
621.49	3124.62
621.65	2958.44
621.80	2085.42
621.95	1430.07
622.10	1135.16
622.25	697.48
622.41	496.19
622.56	379.17
622.71	402.57
622.86	402.57
623.01	393.21
623.16	367.46
623.32	362.78
623.47	271.50
623.62	245.76
623.77	259.80
623.92	313.63
624.07	334.70
624.23	374.49
624.38	341.72
624.53	381.51
624.68	369.80
624.83	374.49
624.98	299.59
625.13	299.59
625.29	339.38
625.44	290.23
625.59	381.51
625.74	381.51
625.89	561.73
626.04	2211.81
626.19	6209.44
626.34	9418.32
626.49	10736.04
626.65	7520.14
626.80	5317.70
626.95	3674.64
627.10	2202.44
627.25	1240.48
627.40	622.58
627.55	404.91
627.70	407.25
627.85	383.85
628.00	278.52
628.15	341.72
628.30	285.55
628.45	374.49
628.60	241.08
628.76	374.49
628.91	376.83
629.06	348.74
629.21	365.12
629.36	351.08
629.51	283.20
629.66	372.15
629.81	538.32
629.96	1266.23
630.11	2230.53
630.26	2822.69
630.41	2593.31
630.56	1963.71
630.71	1446.45
630.86	1074.31
631.01	741.95
631.16	440.02
631.31	461.09
631.46	374.49
631.61	304.27
631.76	383.85
631.91	430.66
632.06	252.78
632.21	365.12
632.36	280.86
632.51	353.42
632.66	372.15
632.81	1153.88
632.96	3475.70
633.10	5968.37
633.25	7206.51
633.40	5820.91
633.55	4337.01
633.70	2867.16
633.85	1949.67
634.00	1116.44
634.15	566.41
634.30	454.06
634.45	346.40
634.60	334.70
634.75	301.93
634.90	365.12
635.05	348.74
635.19	313.63
635.34	315.97
635.49	313.63
635.64	245.76
635.79	264.48
635.94	280.86
636.09	325.33
636.24	285.55
636.39	332.36
636.53	283.20
636.68	248.10
636.83	248.10
636.98	351.08
637.13	299.59
637.28	360.44
637.43	451.72
637.57	620.24
637.72	3016.95
637.87	7960.16
638.02	12446.97
638.17	13109.34
638.32	9748.33
638.46	6705.63
638.61	4636.60
638.76	2700.98
638.91	1439.43
639.06	774.72
639.20	662.37
639.35	571.09
639.50	833.23
639.65	4376.80
639.80	12477.40
639.94	19276.65
640.09	20325.21
640.24	15325.83
640.39	10382.62
640.54	6885.86
640.68	4126.36
640.83	2045.63
640.98	1018.13
641.13	627.26
641.27	484.49
641.42	341.72
641.57	395.55
641.72	386.19
641.86	386.19
642.01	271.50
642.16	304.27
642.31	262.14
642.45	355.76
642.60	248.10
642.75	203.63
642.90	217.67
643.04	273.84
643.19	259.80
643.34	285.55
643.48	271.50
643.63	266.82
643.78	241.08
643.93	245.76
644.07	217.67
644.22	210.65
644.37	210.65
644.51	297.25
644.66	325.33
644.81	313.63
644.95	217.67
645.10	280.86
645.25	238.73
645.39	269.16
645.54	217.67
645.69	283.20
645.83	236.39
645.98	285.55
646.13	208.31
646.27	264.48
646.42	231.71
646.57	224.69
646.71	182.56
646.86	290.23
647.00	294.91
647.15	224.69
647.30	201.29
647.44	229.37
647.59	269.16
647.74	297.25
647.88	315.97
648.03	227.03
648.17	238.73
648.32	203.63
648.47	234.05
648.61	212.99
648.76	198.95
648.90	248.10
649.05	276.18
649.20	252.78
649.34	304.27
649.49	283.20
649.63	250.44
649.78	388.53
649.92	486.83
650.07	1776.47
650.21	5317.70
650.36	8725.52
650.51	10684.55
650.65	8704.45
650.80	6136.88
650.94	4147.43
651.09	2551.18
651.23	1451.13
651.38	805.14
651.52	568.75
651.67	306.61
651.81	318.31
651.96	257.46
652.10	332.36
652.25	320.65
652.39	271.50
652.54	325.33
652.68	613.22
652.83	1799.87
652.97	2963.12
653.12	3864.22
653.26	3215.90
653.41	2546.50
653.55	1762.42
653.70	1095.37
653.84	723.23
653.99	407.25
654.13	236.39
654.27	255.12
654.42	227.03
654.56	325.33
654.71	273.84
654.85	189.58
655.00	154.48
655.14	231.71
655.29	210.65
655.43	217.67
655.57	248.10
655.72	217.67
655.86	159.16
656.01	212.99
656.15	208.31
656.30	241.08
656.44	187.24
656.58	248.10
656.73	220.01
656.87	301.93
657.01	238.73
657.16	269.16
657.30	194.26
657.45	259.80
657.59	208.31
657.73	248.10
657.88	227.03
658.02	252.78
658.16	255.12
658.31	248.10
658.45	257.46
658.60	231.71
658.74	236.39
658.88	292.57
659.03	266.82
659.17	325.33
659.31	812.17
659.46	2492.67
659.60	4379.14
659.74	5219.39
659.89	4545.32
660.03	3566.98
660.17	2452.88
660.32	1514.33
660.46	933.87
660.60	636.63
660.74	304.27
660.89	379.17
661.03	248.10
661.17	227.03
661.32	231.71
661.46	257.46
661.60	243.42
661.74	182.56
661.89	166.18
662.03	255.12
662.17	287.89
662.31	259.80
662.46	222.35
662.60	236.39
662.74	210.65
662.88	203.63
663.03	215.33
663.17	245.76
663.31	196.60
663.45	243.42
663.60	205.97
663.74	217.67
663.88	135.75
664.02	212.99
664.17	252.78
664.31	147.45
664.45	229.37
664.59	259.80
664.73	238.73
664.88	273.84
665.02	243.42
665.16	269.16
665.30	273.84
665.44	224.69
665.59	311.29
665.73	241.08
665.87	212.99
666.01	245.76
666.15	231.71
666.29	271.50
666.44	229.37
666.58	325.33
666.72	271.50
666.86	379.17
667.00	294.91
667.14	404.91
667.28	1509.65
667.43	4676.39
667.57	7576.31
667.71	9296.61
667.85	7969.52
667.99	5778.78
668.13	3702.73
668.27	2157.97
668.41	1310.70
668.56	716.20
668.70	545.34
668.84	372.15
668.98	308.95
669.12	262.14
669.26	236.39
669.40	241.08
669.54	196.60
669.68	241.08
669.82	236.39
669.96	266.82
670.10	250.44
670.25	212.99
670.39	250.44
670.53	220.01
670.67	271.50
670.81	299.59
670.95	337.04
671.09	512.58
671.23	1834.98
671.37	3801.03
671.51	5427.70
671.65	5593.88
671.79	4470.42
671.93	3073.12
672.07	2085.42
672.21	1167.93
672.35	692.80
672.49	484.49
672.63	374.49
672.77	299.59
672.91	252.78
673.05	182.56
673.19	259.80
673.33	231.71
673.47	280.86
673.61	236.39
673.75	208.31
673.89	170.86
674.03	222.35
674.17	212.99
674.31	210.65
674.45	224.69
674.59	152.13
674.73	182.56
674.87	262.14
675.01	273.84
675.15	227.03
675.29	231.71
675.43	236.39
675.56	278.52
675.70	318.31
675.84	222.35
675.98	124.05
676.12	152.13
676.26	205.97
676.40	205.97
676.54	208.31
676.68	156.82
676.82	346.40
676.96	208.31
677.10	238.73
677.23	203.63
677.37	184.90
677.51	191.92
677.65	255.12
677.79	241.08
677.93	138.09
678.07	208.31
678.21	194.26
678.34	168.52
678.48	217.67
678.62	229.37
678.76	168.52
678.90	271.50
679.04	250.44
679.18	189.58
679.31	145.11
679.45	234.05
679.59	278.52
679.73	191.92
679.87	163.84
680.00	152.13
680.14	159.16
680.28	154.48
680.42	187.24
680.56	234.05
680.70	154.48
680.83	191.92
680.97	163.84
681.11	220.01
681.25	161.50
681.39	145.11
681.52	194.26
681.66	227.03
681.80	196.60
681.94	152.13
682.07	163.84
682.21	191.92
682.35	189.58
682.49	220.01
682.62	257.46
682.76	203.63
682.90	173.20
683.04	173.20
683.17	161.50
683.31	126.39
683.45	196.60
683.59	238.73
683.72	276.18
683.86	126.39
684.00	128.73
684.13	201.29
684.27	231.71
684.41	227.03
684.55	252.78
684.68	236.39
684.82	140.43
684.96	229.37
685.09	126.39
685.23	182.56
685.37	126.39
685.50	217.67
685.64	196.60
685.78	149.79
685.91	210.65
686.05	210.65
686.19	121.71
686.32	163.84
686.46	184.90
686.60	159.16
686.73	236.39
686.87	250.44
687.01	255.12
687.14	203.63
687.28	210.65
687.42	114.69
687.55	198.95
687.69	184.90
687.82	168.52
687.96	229.37
688.10	224.69
688.23	184.90
688.37	212.99
688.50	142.77
688.64	205.97
688.78	156.82
688.91	140.43
689.05	159.16
689.18	128.73
689.32	210.65
689.46	159.16
689.59	196.60
689.73	245.76
689.86	105.32
690.00	154.48
690.13	205.97
690.27	189.58
690.41	255.12
690.54	220.01
690.68	161.50
690.81	168.52
690.95	217.67
691.08	175.54
691.22	161.50
691.35	189.58
691.49	231.71
691.62	196.60
691.76	168.52
691.89	140.43
692.03	177.88
692.16	208.31
692.30	236.39
692.43	578.11
692.57	1923.92
692.70	3255.69
692.84	4063.17
692.97	3695.71
693.11	2715.02
693.24	1973.07
693.38	1383.26
693.51	945.58
693.65	645.99
693.78	435.34
693.92	339.38
694.05	266.82
694.19	191.92
694.32	177.88
694.45	217.67
694.59	133.41
694.72	133.41
694.86	194.26
694.99	187.24
695.13	187.24
695.26	234.05
695.39	187.24
695.53	262.14
695.66	201.29
695.80	175.54
695.93	142.77
696.07	203.63
696.20	276.18
696.33	421.30
696.47	423.64
696.60	306.61
696.73	339.38
696.87	290.23
697.00	255.12
697.14	243.42
697.27	236.39
697.40	297.25
697.54	257.46
697.67	222.35
697.80	182.56
697.94	182.56
698.07	159.16
698.21	152.13
698.34	215.33
698.47	184.90
698.61	159.16
698.74	124.05
698.87	182.56
699.01	163.84
699.14	117.03
699.27	147.45
699.40	285.55
699.54	154.48
699.67	138.09
699.80	175.54
699.94	145.11
700.07	168.52
700.20	121.71
700.34	208.31
700.47	79.58
700.60	187.24
700.73	187.24
700.87	140.43
701.00	142.77
701.13	231.71
701.26	182.56
701.40	177.88
701.53	194.26
701.66	170.86
701.79	107.66
701.93	257.46
702.06	308.95
702.19	407.25
702.32	327.68
702.46	454.06
702.59	372.15
702.72	734.93
702.85	2466.92
702.99	4980.66
703.12	7126.93
703.25	7541.21
703.38	6499.67
703.51	5352.81
703.65	4032.74
703.78	2729.06
703.91	2001.16
704.04	1336.45
704.17	788.76
704.31	552.37
704.44	362.78
704.57	271.50
704.70	297.25
704.83	280.86
704.96	217.67
705.10	184.90
705.23	173.20
>>>>>End Processed Spectral Data<<<<<
