SpectraSuite Data File
++++++++++++++++++++++++++++++++++++
Date: Fri Oct 04 11:33:50 GMT-05:00 2013
User: price-jones
Dark Spectrum Present: No
Reference Spectrum Present: No
Number of Sampled Component Spectra: 1
Spectrometers: USB2+H05261
Integration Time (usec): 100000 (USB2+H05261)
Spectra Averaged: 1 (USB2+H05261)
Boxcar Smoothing: 0 (USB2+H05261)
Correct for Electrical Dark: No (USB2+H05261)
Strobe/Lamp Enabled: No (USB2+H05261)
Correct for Detector Non-linearity: No (USB2+H05261)
Correct for Stray Light: No (USB2+H05261)
Number of Pixels in Processed Spectrum: 2048
>>>>>Begin Processed Spectral Data<<<<<
365.73	112.35
365.92	112.35
366.12	112.35
366.32	9.36
366.52	0.00
366.72	0.00
366.91	0.00
367.11	0.00
367.31	0.00
367.51	14.04
367.70	0.00
367.90	0.00
368.10	0.00
368.30	14.04
368.49	0.00
368.69	7.02
368.89	0.00
369.09	58.51
369.28	0.00
369.48	0.00
369.68	0.00
369.87	42.13
370.07	9.36
370.27	53.83
370.47	49.15
370.66	102.98
370.86	72.56
371.06	140.43
371.25	79.58
371.45	81.92
371.65	79.58
371.84	128.73
372.04	124.05
372.24	205.97
372.44	124.05
372.63	180.22
372.83	180.22
373.03	145.11
373.22	100.64
373.42	135.75
373.62	142.77
373.81	42.13
374.01	184.90
374.21	147.45
374.40	119.37
374.60	224.69
374.79	105.32
374.99	126.39
375.19	128.73
375.38	196.60
375.58	180.22
375.78	217.67
375.97	175.54
376.17	231.71
376.37	163.84
376.56	173.20
376.76	53.83
376.95	95.96
377.15	112.35
377.35	133.41
377.54	163.84
377.74	168.52
377.93	147.45
378.13	60.85
378.33	145.11
378.52	138.09
378.72	135.75
378.91	107.66
379.11	105.32
379.31	100.64
379.50	156.82
379.70	175.54
379.89	126.39
380.09	140.43
380.28	100.64
380.48	128.73
380.68	93.62
380.87	44.47
381.07	74.90
381.26	191.92
381.46	142.77
381.65	133.41
381.85	86.60
382.04	166.18
382.24	135.75
382.43	182.56
382.63	128.73
382.83	124.05
383.02	205.97
383.22	198.95
383.41	138.09
383.61	156.82
383.80	156.82
384.00	112.35
384.19	138.09
384.39	114.69
384.58	91.28
384.78	112.35
384.97	142.77
385.17	152.13
385.36	128.73
385.56	194.26
385.75	49.15
385.95	126.39
386.14	198.95
386.34	149.79
386.53	107.66
386.72	124.05
386.92	208.31
387.11	128.73
387.31	126.39
387.50	124.05
387.70	138.09
387.89	154.48
388.09	140.43
388.28	56.17
388.48	63.19
388.67	163.84
388.86	84.26
389.06	131.07
389.25	166.18
389.45	166.18
389.64	187.24
389.84	156.82
390.03	124.05
390.22	133.41
390.42	166.18
390.61	95.96
390.81	72.56
391.00	187.24
391.19	168.52
391.39	180.22
391.58	149.79
391.78	91.28
391.97	168.52
392.16	60.85
392.36	145.11
392.55	276.18
392.75	184.90
392.94	102.98
393.13	154.48
393.33	121.71
393.52	161.50
393.71	205.97
393.91	147.45
394.10	95.96
394.29	112.35
394.49	152.13
394.68	156.82
394.88	161.50
395.07	128.73
395.26	184.90
395.46	98.30
395.65	131.07
395.84	152.13
396.04	229.37
396.23	124.05
396.42	147.45
396.62	74.90
396.81	121.71
397.00	131.07
397.19	126.39
397.39	117.03
397.58	161.50
397.77	95.96
397.97	201.29
398.16	184.90
398.35	154.48
398.55	177.88
398.74	180.22
398.93	110.01
399.12	154.48
399.32	222.35
399.51	84.26
399.70	112.35
399.90	252.78
400.09	140.43
400.28	203.63
400.47	161.50
400.67	156.82
400.86	170.86
401.05	173.20
401.24	138.09
401.44	147.45
401.63	133.41
401.82	173.20
402.01	220.01
402.21	194.26
402.40	191.92
402.59	58.51
402.78	159.16
402.97	154.48
403.17	175.54
403.36	175.54
403.55	170.86
403.74	88.94
403.93	114.69
404.13	231.71
404.32	210.65
404.51	250.44
404.70	175.54
404.89	149.79
405.09	212.99
405.28	168.52
405.47	86.60
405.66	175.54
405.85	138.09
406.05	131.07
406.24	159.16
406.43	220.01
406.62	191.92
406.81	236.39
407.00	180.22
407.20	187.24
407.39	191.92
407.58	88.94
407.77	152.13
407.96	173.20
408.15	187.24
408.34	217.67
408.54	205.97
408.73	159.16
408.92	168.52
409.11	229.37
409.30	112.35
409.49	149.79
409.68	175.54
409.87	161.50
410.07	131.07
410.26	135.75
410.45	119.37
410.64	81.92
410.83	147.45
411.02	191.92
411.21	126.39
411.40	175.54
411.59	156.82
411.78	105.32
411.98	145.11
412.17	170.86
412.36	173.20
412.55	217.67
412.74	140.43
412.93	177.88
413.12	91.28
413.31	163.84
413.50	194.26
413.69	184.90
413.88	149.79
414.07	159.16
414.26	203.63
414.45	138.09
414.64	168.52
414.83	222.35
415.02	212.99
415.22	224.69
415.41	224.69
415.60	205.97
415.79	234.05
415.98	100.64
416.17	180.22
416.36	161.50
416.55	121.71
416.74	170.86
416.93	194.26
417.12	102.98
417.31	187.24
417.50	177.88
417.69	173.20
417.88	234.05
418.07	161.50
418.26	177.88
418.45	210.65
418.64	248.10
418.83	248.10
419.02	215.33
419.21	212.99
419.39	205.97
419.58	201.29
419.77	217.67
419.96	231.71
420.15	212.99
420.34	175.54
420.53	170.86
420.72	259.80
420.91	170.86
421.10	210.65
421.29	124.05
421.48	189.58
421.67	191.92
421.86	110.01
422.05	133.41
422.24	182.56
422.43	177.88
422.61	124.05
422.80	163.84
422.99	105.32
423.18	154.48
423.37	248.10
423.56	227.03
423.75	142.77
423.94	168.52
424.13	234.05
424.32	220.01
424.50	175.54
424.69	184.90
424.88	227.03
425.07	105.32
425.26	203.63
425.45	259.80
425.64	133.41
425.83	234.05
426.01	201.29
426.20	180.22
426.39	105.32
426.58	177.88
426.77	140.43
426.96	212.99
427.15	180.22
427.33	198.95
427.52	189.58
427.71	205.97
427.90	163.84
428.09	222.35
428.28	147.45
428.46	210.65
428.65	196.60
428.84	133.41
429.03	159.16
429.22	231.71
429.40	184.90
429.59	177.88
429.78	252.78
429.97	102.98
430.16	147.45
430.34	117.03
430.53	135.75
430.72	133.41
430.91	177.88
431.10	72.56
431.28	222.35
431.47	245.76
431.66	255.12
431.85	215.33
432.03	131.07
432.22	215.33
432.41	180.22
432.60	290.23
432.79	210.65
432.97	278.52
433.16	292.57
433.35	175.54
433.54	194.26
433.72	177.88
433.91	189.58
434.10	168.52
434.28	182.56
434.47	196.60
434.66	201.29
434.85	234.05
435.03	238.73
435.22	271.50
435.41	404.91
435.59	341.72
435.78	337.04
435.97	301.93
436.16	201.29
436.34	180.22
436.53	222.35
436.72	140.43
436.90	175.54
437.09	126.39
437.28	215.33
437.46	170.86
437.65	198.95
437.84	156.82
438.02	142.77
438.21	191.92
438.40	198.95
438.58	194.26
438.77	138.09
438.96	138.09
439.14	184.90
439.33	273.84
439.52	196.60
439.70	163.84
439.89	98.30
440.08	170.86
440.26	161.50
440.45	212.99
440.63	145.11
440.82	229.37
441.01	252.78
441.19	196.60
441.38	196.60
441.57	201.29
441.75	255.12
441.94	227.03
442.12	145.11
442.31	222.35
442.50	131.07
442.68	220.01
442.87	222.35
443.05	140.43
443.24	266.82
443.43	163.84
443.61	234.05
443.80	126.39
443.98	154.48
444.17	93.62
444.35	271.50
444.54	154.48
444.73	208.31
444.91	224.69
445.10	189.58
445.28	175.54
445.47	102.98
445.65	177.88
445.84	245.76
446.02	168.52
446.21	131.07
446.39	189.58
446.58	264.48
446.77	124.05
446.95	184.90
447.14	210.65
447.32	191.92
447.51	220.01
447.69	215.33
447.88	184.90
448.06	196.60
448.25	201.29
448.43	217.67
448.62	194.26
448.80	248.10
448.99	107.66
449.17	175.54
449.36	210.65
449.54	194.26
449.73	168.52
449.91	273.84
450.10	245.76
450.28	241.08
450.46	280.86
450.65	229.37
450.83	215.33
451.02	124.05
451.20	201.29
451.39	203.63
451.57	208.31
451.76	177.88
451.94	191.92
452.13	180.22
452.31	248.10
452.49	149.79
452.68	222.35
452.86	156.82
453.05	229.37
453.23	168.52
453.42	184.90
453.60	212.99
453.78	110.01
453.97	152.13
454.15	168.52
454.34	252.78
454.52	126.39
454.70	250.44
454.89	210.65
455.07	180.22
455.26	276.18
455.44	182.56
455.62	238.73
455.81	189.58
455.99	189.58
456.17	191.92
456.36	175.54
456.54	159.16
456.73	163.84
456.91	187.24
457.09	241.08
457.28	189.58
457.46	152.13
457.64	182.56
457.83	241.08
458.01	124.05
458.19	215.33
458.38	175.54
458.56	182.56
458.74	205.97
458.93	210.65
459.11	135.75
459.29	182.56
459.48	166.18
459.66	250.44
459.84	170.86
460.03	290.23
460.21	163.84
460.39	159.16
460.57	201.29
460.76	184.90
460.94	217.67
461.12	259.80
461.31	229.37
461.49	173.20
461.67	217.67
461.85	182.56
462.04	175.54
462.22	650.67
462.40	238.73
462.59	189.58
462.77	210.65
462.95	201.29
463.13	170.86
463.32	215.33
463.50	173.20
463.68	224.69
463.86	236.39
464.05	156.82
464.23	259.80
464.41	224.69
464.59	262.14
464.78	177.88
464.96	177.88
465.14	234.05
465.32	269.16
465.50	203.63
465.69	215.33
465.87	117.03
466.05	170.86
466.23	191.92
466.41	177.88
466.60	252.78
466.78	257.46
466.96	262.14
467.14	208.31
467.32	217.67
467.51	177.88
467.69	194.26
467.87	205.97
468.05	180.22
468.23	203.63
468.41	220.01
468.60	184.90
468.78	147.45
468.96	203.63
469.14	234.05
469.32	79.58
469.50	201.29
469.69	133.41
469.87	173.20
470.05	191.92
470.23	208.31
470.41	187.24
470.59	168.52
470.77	220.01
470.95	229.37
471.14	262.14
471.32	273.84
471.50	238.73
471.68	196.60
471.86	147.45
472.04	205.97
472.22	224.69
472.40	117.03
472.58	175.54
472.77	180.22
472.95	175.54
473.13	308.95
473.31	201.29
473.49	234.05
473.67	177.88
473.85	229.37
474.03	182.56
474.21	236.39
474.39	224.69
474.57	252.78
474.75	222.35
474.93	234.05
475.12	166.18
475.30	234.05
475.48	196.60
475.66	107.66
475.84	166.18
476.02	196.60
476.20	191.92
476.38	149.79
476.56	180.22
476.74	191.92
476.92	191.92
477.10	238.73
477.28	290.23
477.46	236.39
477.64	229.37
477.82	180.22
478.00	229.37
478.18	234.05
478.36	184.90
478.54	266.82
478.72	196.60
478.90	212.99
479.08	266.82
479.26	170.86
479.44	210.65
479.62	201.29
479.80	191.92
479.98	205.97
480.16	175.54
480.34	280.86
480.52	215.33
480.70	248.10
480.88	224.69
481.06	245.76
481.24	266.82
481.41	259.80
481.59	236.39
481.77	217.67
481.95	250.44
482.13	205.97
482.31	215.33
482.49	191.92
482.67	243.42
482.85	257.46
483.03	189.58
483.21	187.24
483.39	238.73
483.57	217.67
483.74	273.84
483.92	177.88
484.10	245.76
484.28	276.18
484.46	257.46
484.64	297.25
484.82	322.99
485.00	227.03
485.18	276.18
485.35	215.33
485.53	145.11
485.71	264.48
485.89	255.12
486.07	255.12
486.25	365.12
486.43	273.84
486.61	287.89
486.78	262.14
486.96	205.97
487.14	126.39
487.32	252.78
487.50	217.67
487.68	257.46
487.85	236.39
488.03	280.86
488.21	341.72
488.39	262.14
488.57	332.36
488.75	203.63
488.92	535.98
489.10	297.25
489.28	280.86
489.46	208.31
489.64	241.08
489.81	266.82
489.99	259.80
490.17	236.39
490.35	259.80
490.53	245.76
490.70	245.76
490.88	198.95
491.06	220.01
491.24	241.08
491.41	287.89
491.59	264.48
491.77	259.80
491.95	149.79
492.13	217.67
492.30	245.76
492.48	212.99
492.66	227.03
492.84	212.99
493.01	259.80
493.19	198.95
493.37	259.80
493.54	283.20
493.72	234.05
493.90	252.78
494.08	259.80
494.25	266.82
494.43	318.31
494.61	248.10
494.79	248.10
494.96	304.27
495.14	198.95
495.32	224.69
495.49	234.05
495.67	222.35
495.85	255.12
496.02	245.76
496.20	259.80
496.38	337.04
496.55	290.23
496.73	330.02
496.91	194.26
497.09	315.97
497.26	308.95
497.44	205.97
497.62	208.31
497.79	283.20
497.97	248.10
498.14	231.71
498.32	283.20
498.50	227.03
498.67	191.92
498.85	271.50
499.03	273.84
499.20	257.46
499.38	245.76
499.56	264.48
499.73	220.01
499.91	285.55
500.08	271.50
500.26	327.68
500.44	255.12
500.61	252.78
500.79	353.42
500.97	304.27
501.14	287.89
501.32	203.63
501.49	250.44
501.67	222.35
501.84	203.63
502.02	278.52
502.20	252.78
502.37	290.23
502.55	238.73
502.72	248.10
502.90	273.84
503.07	210.65
503.25	301.93
503.43	245.76
503.60	191.92
503.78	259.80
503.95	182.56
504.13	283.20
504.30	285.55
504.48	290.23
504.65	299.59
504.83	301.93
505.01	292.57
505.18	283.20
505.36	280.86
505.53	217.67
505.71	198.95
505.88	266.82
506.06	285.55
506.23	252.78
506.41	266.82
506.58	250.44
506.76	220.01
506.93	325.33
507.11	301.93
507.28	196.60
507.46	212.99
507.63	229.37
507.81	269.16
507.98	269.16
508.16	224.69
508.33	259.80
508.50	341.72
508.68	271.50
508.85	248.10
509.03	257.46
509.20	250.44
509.38	229.37
509.55	292.57
509.73	262.14
509.90	294.91
510.08	252.78
510.25	189.58
510.42	304.27
510.60	210.65
510.77	255.12
510.95	332.36
511.12	264.48
511.30	285.55
511.47	369.80
511.64	362.78
511.82	348.74
511.99	182.56
512.17	252.78
512.34	194.26
512.51	173.20
512.69	283.20
512.86	269.16
513.04	187.24
513.21	327.68
513.38	241.08
513.56	271.50
513.73	220.01
513.90	234.05
514.08	210.65
514.25	292.57
514.43	252.78
514.60	280.86
514.77	212.99
514.95	294.91
515.12	234.05
515.29	229.37
515.47	271.50
515.64	294.91
515.81	203.63
515.99	292.57
516.16	220.01
516.33	245.76
516.51	234.05
516.68	259.80
516.85	252.78
517.03	287.89
517.20	273.84
517.37	229.37
517.54	191.92
517.72	304.27
517.89	257.46
518.06	280.86
518.24	208.31
518.41	292.57
518.58	280.86
518.75	257.46
518.93	313.63
519.10	320.65
519.27	259.80
519.45	322.99
519.62	248.10
519.79	313.63
519.96	175.54
520.14	306.61
520.31	402.57
520.48	259.80
520.65	280.86
520.83	273.84
521.00	341.72
521.17	322.99
521.34	257.46
521.52	273.84
521.69	311.29
521.86	395.55
522.03	278.52
522.20	351.08
522.38	271.50
522.55	250.44
522.72	311.29
522.89	290.23
523.07	320.65
523.24	297.25
523.41	304.27
523.58	248.10
523.75	241.08
523.92	241.08
524.10	243.42
524.27	337.04
524.44	273.84
524.61	320.65
524.78	229.37
524.96	308.95
525.13	280.86
525.30	311.29
525.47	276.18
525.64	269.16
525.81	252.78
525.98	315.97
526.16	360.44
526.33	264.48
526.50	175.54
526.67	238.73
526.84	220.01
527.01	208.31
527.18	332.36
527.36	266.82
527.53	168.52
527.70	259.80
527.87	255.12
528.04	341.72
528.21	297.25
528.38	330.02
528.55	306.61
528.72	290.23
528.89	276.18
529.07	252.78
529.24	262.14
529.41	262.14
529.58	278.52
529.75	245.76
529.92	304.27
530.09	306.61
530.26	346.40
530.43	313.63
530.60	334.70
530.77	278.52
530.94	315.97
531.11	346.40
531.28	271.50
531.46	299.59
531.63	285.55
531.80	311.29
531.97	245.76
532.14	280.86
532.31	341.72
532.48	320.65
532.65	322.99
532.82	381.51
532.99	358.10
533.16	353.42
533.33	330.02
533.50	355.76
533.67	372.15
533.84	440.02
534.01	339.38
534.18	407.25
534.35	304.27
534.52	278.52
534.69	280.86
534.86	290.23
535.03	252.78
535.20	299.59
535.37	304.27
535.54	355.76
535.71	301.93
535.88	327.68
536.05	327.68
536.22	383.85
536.38	315.97
536.55	287.89
536.72	315.97
536.89	311.29
537.06	287.89
537.23	353.42
537.40	308.95
537.57	292.57
537.74	250.44
537.91	290.23
538.08	313.63
538.25	355.76
538.42	318.31
538.59	353.42
538.75	341.72
538.92	290.23
539.09	404.91
539.26	318.31
539.43	461.09
539.60	704.50
539.77	1275.59
539.94	1275.59
540.11	966.64
540.28	648.33
540.44	528.96
540.61	463.43
540.78	461.09
540.95	386.19
541.12	561.73
541.29	514.92
541.46	592.16
541.62	451.72
541.79	463.43
541.96	489.17
542.13	454.06
542.30	472.79
542.47	489.17
542.63	456.40
542.80	390.87
542.97	503.22
543.14	535.98
543.31	500.87
543.48	454.06
543.64	535.98
543.81	475.13
543.98	514.92
544.15	437.68
544.32	423.64
544.48	505.56
544.65	362.78
544.82	463.43
544.99	383.85
545.16	524.28
545.32	514.92
545.49	634.29
545.66	748.97
545.83	837.91
546.00	758.33
546.16	676.41
546.33	526.62
546.50	461.09
546.67	437.68
546.83	404.91
547.00	433.00
547.17	400.23
547.34	351.08
547.50	395.55
547.67	386.19
547.84	308.95
548.00	344.06
548.17	388.53
548.34	369.80
548.51	395.55
548.67	395.55
548.84	334.70
549.01	381.51
549.18	465.77
549.34	376.83
549.51	362.78
549.68	337.04
549.84	360.44
550.01	259.80
550.18	454.06
550.34	376.83
550.51	341.72
550.68	283.20
550.84	393.21
551.01	280.86
551.18	210.65
551.34	255.12
551.51	390.87
551.68	248.10
551.84	395.55
552.01	327.68
552.18	299.59
552.34	266.82
552.51	297.25
552.68	332.36
552.84	292.57
553.01	311.29
553.18	238.73
553.34	358.10
553.51	358.10
553.67	294.91
553.84	306.61
554.01	264.48
554.17	337.04
554.34	397.89
554.51	358.10
554.67	360.44
554.84	273.84
555.00	224.69
555.17	234.05
555.33	315.97
555.50	301.93
555.67	266.82
555.83	320.65
556.00	325.33
556.16	463.43
556.33	250.44
556.50	278.52
556.66	222.35
556.83	318.31
556.99	250.44
557.16	273.84
557.32	304.27
557.49	252.78
557.65	269.16
557.82	304.27
557.98	250.44
558.15	229.37
558.32	264.48
558.48	227.03
558.65	243.42
558.81	322.99
558.98	276.18
559.14	287.89
559.31	311.29
559.47	262.14
559.64	271.50
559.80	273.84
559.97	236.39
560.13	215.33
560.30	280.86
560.46	259.80
560.63	250.44
560.79	191.92
560.96	292.57
561.12	257.46
561.29	456.40
561.45	245.76
561.61	327.68
561.78	388.53
561.94	301.93
562.11	283.20
562.27	194.26
562.44	203.63
562.60	259.80
562.77	276.18
562.93	400.23
563.10	318.31
563.26	285.55
563.42	320.65
563.59	241.08
563.75	234.05
563.92	332.36
564.08	292.57
564.24	285.55
564.41	299.59
564.57	262.14
564.74	285.55
564.90	262.14
565.07	299.59
565.23	276.18
565.39	337.04
565.56	255.12
565.72	311.29
565.88	262.14
566.05	318.31
566.21	262.14
566.38	269.16
566.54	278.52
566.70	257.46
566.87	271.50
567.03	262.14
567.19	320.65
567.36	252.78
567.52	264.48
567.68	402.57
567.85	238.73
568.01	278.52
568.17	241.08
568.34	362.78
568.50	269.16
568.66	353.42
568.83	344.06
568.99	292.57
569.15	341.72
569.32	264.48
569.48	269.16
569.64	259.80
569.81	252.78
569.97	255.12
570.13	236.39
570.30	311.29
570.46	252.78
570.62	250.44
570.78	231.71
570.95	180.22
571.11	292.57
571.27	318.31
571.43	215.33
571.60	292.57
571.76	311.29
571.92	236.39
572.09	269.16
572.25	217.67
572.41	301.93
572.57	290.23
572.74	294.91
572.90	315.97
573.06	224.69
573.22	271.50
573.38	320.65
573.55	271.50
573.71	327.68
573.87	299.59
574.03	311.29
574.20	355.76
574.36	327.68
574.52	308.95
574.68	301.93
574.84	376.83
575.01	313.63
575.17	257.46
575.33	266.82
575.49	320.65
575.65	285.55
575.82	341.72
575.98	510.24
576.14	580.45
576.30	699.82
576.46	606.20
576.62	587.47
576.79	458.74
576.95	444.70
577.11	346.40
577.27	248.10
577.43	339.38
577.59	320.65
577.75	255.12
577.92	325.33
578.08	269.16
578.24	205.97
578.40	299.59
578.56	337.04
578.72	372.15
578.88	463.43
579.04	440.02
579.21	339.38
579.37	372.15
579.53	220.01
579.69	365.12
579.85	376.83
580.01	447.04
580.17	376.83
580.33	337.04
580.49	367.46
580.65	390.87
580.82	344.06
580.98	348.74
581.14	416.62
581.30	433.00
581.46	510.24
581.62	475.13
581.78	554.71
581.94	500.87
582.10	428.32
582.26	383.85
582.42	414.27
582.58	447.04
582.74	381.51
582.90	463.43
583.06	468.11
583.22	475.13
583.38	381.51
583.54	458.74
583.70	603.86
583.86	638.97
584.02	615.56
584.18	800.46
584.34	971.32
584.50	2005.84
584.66	13200.62
584.82	38401.17
584.98	56992.04
585.14	56123.71
585.30	37275.37
585.46	21025.03
585.62	13036.78
585.78	6155.61
585.94	2525.44
586.10	1275.59
586.26	854.30
586.42	723.23
586.58	660.03
586.74	702.16
586.90	627.26
587.06	615.56
587.22	526.62
587.38	521.94
587.54	819.19
587.70	2375.64
587.86	4140.41
588.02	5071.94
588.18	3655.92
588.34	2176.70
588.49	1385.60
588.65	971.32
588.81	594.50
588.97	379.17
589.13	397.89
589.29	376.83
589.45	425.98
589.61	369.80
589.77	388.53
589.93	416.62
590.08	407.25
590.24	425.98
590.40	421.30
590.56	358.10
590.72	409.59
590.88	327.68
591.04	395.55
591.20	409.59
591.35	372.15
591.51	332.36
591.67	322.99
591.83	332.36
591.99	339.38
592.15	341.72
592.31	315.97
592.46	374.49
592.62	393.21
592.78	355.76
592.94	411.93
593.10	360.44
593.26	337.04
593.41	330.02
593.57	444.70
593.73	470.45
593.89	1743.70
594.05	4624.90
594.20	7999.95
594.36	8142.72
594.52	5329.40
594.68	3227.60
594.84	2153.29
594.99	1207.72
595.15	676.41
595.31	447.04
595.47	299.59
595.62	337.04
595.78	337.04
595.94	301.93
596.10	418.96
596.25	383.85
596.41	367.46
596.57	351.08
596.73	280.86
596.88	428.32
597.04	980.68
597.20	1626.67
597.36	2267.98
597.51	1827.96
597.67	1170.27
597.83	889.40
597.99	580.45
598.14	379.17
598.30	322.99
598.46	346.40
598.61	451.72
598.77	367.46
598.93	348.74
599.09	297.25
599.24	379.17
599.40	297.25
599.56	418.96
599.71	294.91
599.87	337.04
600.03	313.63
600.18	334.70
600.34	276.18
600.50	234.05
600.65	273.84
600.81	351.08
600.97	304.27
601.12	304.27
601.28	393.21
601.44	301.93
601.59	315.97
601.75	325.33
601.91	278.52
602.06	374.49
602.22	388.53
602.37	606.20
602.53	1139.84
602.69	1982.43
602.84	2347.56
603.00	1724.97
603.16	1277.93
603.31	887.06
603.47	603.86
603.62	383.85
603.78	276.18
603.94	271.50
604.09	315.97
604.25	257.46
604.40	372.15
604.56	285.55
604.71	320.65
604.87	304.27
605.03	325.33
605.18	294.91
605.34	320.65
605.49	320.65
605.65	318.31
605.80	306.61
605.96	266.82
606.12	351.08
606.27	489.17
606.43	397.89
606.58	360.44
606.74	641.31
606.89	2090.10
607.05	4793.42
607.20	7145.66
607.36	6136.88
607.51	4021.04
607.67	2567.57
607.82	1757.74
607.98	1170.27
608.13	660.03
608.29	479.81
608.44	489.17
608.60	442.36
608.75	554.71
608.91	856.64
609.06	3302.50
609.22	7620.78
609.37	12023.33
609.53	10855.40
609.68	7250.98
609.84	4601.49
609.99	3187.81
610.15	1912.22
610.30	1137.50
610.46	863.66
610.61	788.76
610.76	809.83
610.92	947.92
611.07	973.66
611.23	1100.05
611.38	952.60
611.54	793.44
611.69	753.65
611.84	699.82
612.00	650.67
612.15	655.35
612.31	580.45
612.46	697.48
612.62	823.87
612.77	751.31
612.92	704.50
613.08	725.57
613.23	606.20
613.39	620.24
613.54	774.72
613.69	2993.55
613.85	8982.98
614.00	16479.71
614.15	19623.05
614.31	13472.12
614.46	8418.91
614.62	5748.36
614.77	3508.46
614.92	1638.38
615.08	929.19
615.23	688.12
615.38	535.98
615.54	498.53
615.69	732.59
615.84	1940.30
616.00	3571.66
616.15	5217.05
616.30	4341.69
616.46	3021.63
616.61	1949.67
616.76	1401.98
616.92	821.53
617.07	484.49
617.22	325.33
617.37	315.97
617.53	353.42
617.68	339.38
617.83	292.57
617.99	348.74
618.14	330.02
618.29	337.04
618.45	351.08
618.60	358.10
618.75	334.70
618.90	299.59
619.06	313.63
619.21	379.17
619.36	318.31
619.51	280.86
619.67	299.59
619.82	290.23
619.97	320.65
620.12	297.25
620.28	383.85
620.43	294.91
620.58	308.95
620.73	339.38
620.89	346.40
621.04	442.36
621.19	1057.92
621.34	2001.16
621.49	3115.25
621.65	2906.95
621.80	2054.99
621.95	1409.00
622.10	990.05
622.25	603.86
622.41	411.93
622.56	308.95
622.71	283.20
622.86	264.48
623.01	283.20
623.16	348.74
623.32	280.86
623.47	334.70
623.62	285.55
623.77	294.91
623.92	294.91
624.07	234.05
624.23	346.40
624.38	266.82
624.53	313.63
624.68	292.57
624.83	304.27
624.98	306.61
625.13	301.93
625.29	290.23
625.44	283.20
625.59	358.10
625.74	379.17
625.89	538.32
626.04	1563.48
626.19	4444.68
626.34	8276.13
626.49	10450.49
626.65	7705.04
626.80	4966.62
626.95	3325.90
627.10	2155.63
627.25	1137.50
627.40	528.96
627.55	444.70
627.70	306.61
627.85	292.57
628.00	227.03
628.15	283.20
628.30	259.80
628.45	301.93
628.60	278.52
628.76	248.10
628.91	248.10
629.06	308.95
629.21	311.29
629.36	353.42
629.51	271.50
629.66	322.99
629.81	425.98
629.96	968.98
630.11	1783.49
630.26	2581.61
630.41	2600.34
630.56	1736.68
630.71	1231.12
630.86	985.37
631.01	620.24
631.16	578.11
631.31	376.83
631.46	341.72
631.61	315.97
631.76	374.49
631.91	351.08
632.06	334.70
632.21	287.89
632.36	334.70
632.51	276.18
632.66	315.97
632.81	823.87
632.96	2499.69
633.10	4835.55
633.25	7101.19
633.40	5767.08
633.55	3948.48
633.70	2555.86
633.85	1776.47
634.00	912.81
634.15	482.15
634.30	379.17
634.45	330.02
634.60	285.55
634.75	299.59
634.90	332.36
635.05	320.65
635.19	374.49
635.34	287.89
635.49	292.57
635.64	257.46
635.79	250.44
635.94	304.27
636.09	243.42
636.24	245.76
636.39	311.29
636.53	353.42
636.68	255.12
636.83	248.10
636.98	278.52
637.13	278.52
637.28	301.93
637.43	397.89
637.57	470.45
637.72	1996.48
637.87	6122.84
638.02	10459.85
638.17	12931.46
638.32	9699.18
638.46	6204.76
638.61	4149.77
638.76	2626.08
638.91	1334.11
639.06	720.88
639.20	559.39
639.35	538.32
639.50	718.54
639.65	2867.16
639.80	8573.38
639.94	15756.49
640.09	19482.62
640.24	14017.47
640.39	9111.71
640.54	6148.59
640.68	3728.47
640.83	1952.01
640.98	898.77
641.13	484.49
641.27	510.24
641.42	383.85
641.57	395.55
641.72	341.72
641.86	276.18
642.01	287.89
642.16	330.02
642.31	231.71
642.45	311.29
642.60	273.84
642.75	184.90
642.90	250.44
643.04	273.84
643.19	217.67
643.34	152.13
643.48	308.95
643.63	205.97
643.78	330.02
643.93	222.35
644.07	250.44
644.22	332.36
644.37	283.20
644.51	212.99
644.66	245.76
644.81	266.82
644.95	315.97
645.10	285.55
645.25	257.46
645.39	264.48
645.54	187.24
645.69	330.02
645.83	182.56
645.98	271.50
646.13	337.04
646.27	234.05
646.42	238.73
646.57	227.03
646.71	248.10
646.86	208.31
647.00	245.76
647.15	173.20
647.30	252.78
647.44	273.84
647.59	191.92
647.74	208.31
647.88	201.29
648.03	187.24
648.17	215.33
648.32	220.01
648.47	271.50
648.61	215.33
648.76	128.73
648.90	241.08
649.05	201.29
649.20	217.67
649.34	241.08
649.49	196.60
649.63	353.42
649.78	322.99
649.92	339.38
650.07	1235.80
650.21	3880.61
650.36	7428.86
650.51	10164.95
650.65	8446.99
650.80	5846.66
650.94	3854.86
651.09	2473.95
651.23	1418.36
651.38	774.72
651.52	461.09
651.67	355.76
651.81	248.10
651.96	297.25
652.10	205.97
652.25	163.84
652.39	243.42
652.54	353.42
652.68	489.17
652.83	1369.21
652.97	2497.35
653.12	3665.28
653.26	3236.96
653.41	2553.52
653.55	1708.59
653.70	1104.73
653.84	685.78
653.99	430.66
654.13	271.50
654.27	250.44
654.42	210.65
654.56	191.92
654.71	241.08
654.85	217.67
655.00	198.95
655.14	201.29
655.29	248.10
655.43	212.99
655.57	236.39
655.72	236.39
655.86	215.33
656.01	191.92
656.15	175.54
656.30	236.39
656.44	280.86
656.58	210.65
656.73	201.29
656.87	269.16
657.01	229.37
657.16	220.01
657.30	212.99
657.45	304.27
657.59	238.73
657.73	248.10
657.88	257.46
658.02	322.99
658.16	198.95
658.31	220.01
658.45	224.69
658.60	168.52
658.74	285.55
658.88	248.10
659.03	220.01
659.17	227.03
659.31	568.75
659.46	1895.83
659.60	3707.41
659.74	5027.47
659.89	4585.11
660.03	3318.88
660.17	2251.60
660.32	1444.11
660.46	880.04
660.60	512.58
660.74	400.23
660.89	332.36
661.03	245.76
661.17	222.35
661.32	234.05
661.46	229.37
661.60	301.93
661.74	280.86
661.89	266.82
662.03	224.69
662.17	212.99
662.31	250.44
662.46	351.08
662.60	201.29
662.74	187.24
662.88	234.05
663.03	220.01
663.17	203.63
663.31	292.57
663.45	236.39
663.60	184.90
663.74	196.60
663.88	196.60
664.02	175.54
664.17	159.16
664.31	236.39
664.45	205.97
664.59	189.58
664.73	189.58
664.88	318.31
665.02	255.12
665.16	220.01
665.30	297.25
665.44	245.76
665.59	248.10
665.73	243.42
665.87	224.69
666.01	259.80
666.15	201.29
666.29	191.92
666.44	262.14
666.58	243.42
666.72	297.25
666.86	348.74
667.00	332.36
667.14	430.66
667.28	1179.63
667.43	3361.01
667.57	6232.85
667.71	8922.12
667.85	7871.22
667.99	5720.27
668.13	3758.90
668.27	2251.60
668.41	1280.27
668.56	709.18
668.70	543.00
668.84	397.89
668.98	306.61
669.12	313.63
669.26	234.05
669.40	344.06
669.54	271.50
669.68	271.50
669.82	264.48
669.96	222.35
670.10	243.42
670.25	259.80
670.39	297.25
670.53	198.95
670.67	264.48
670.81	173.20
670.95	224.69
671.09	423.64
671.23	1380.92
671.37	3075.46
671.51	4908.10
671.65	5799.85
671.79	4503.19
671.93	3101.21
672.07	1984.77
672.21	1093.03
672.35	702.16
672.49	482.15
672.63	395.55
672.77	252.78
672.91	227.03
673.05	292.57
673.19	276.18
673.33	231.71
673.47	304.27
673.61	231.71
673.75	177.88
673.89	163.84
674.03	203.63
674.17	231.71
674.31	238.73
674.45	252.78
674.59	194.26
674.73	198.95
674.87	266.82
675.01	304.27
675.15	273.84
675.29	344.06
675.43	224.69
675.56	234.05
675.70	271.50
675.84	147.45
675.98	149.79
676.12	149.79
676.26	194.26
676.40	177.88
676.54	220.01
676.68	191.92
676.82	217.67
676.96	222.35
677.10	166.18
677.23	203.63
677.37	184.90
677.51	238.73
677.65	196.60
677.79	201.29
677.93	161.50
678.07	220.01
678.21	182.56
678.34	187.24
678.48	140.43
678.62	187.24
678.76	135.75
678.90	180.22
679.04	248.10
679.18	234.05
679.31	180.22
679.45	168.52
679.59	149.79
679.73	177.88
679.87	159.16
680.00	212.99
680.14	156.82
680.28	166.18
680.42	201.29
680.56	175.54
680.70	147.45
680.83	180.22
680.97	227.03
681.11	159.16
681.25	154.48
681.39	175.54
681.52	187.24
681.66	231.71
681.80	220.01
681.94	184.90
682.07	252.78
682.21	161.50
682.35	201.29
682.49	236.39
682.62	238.73
682.76	217.67
682.90	163.84
683.04	229.37
683.17	161.50
683.31	234.05
683.45	224.69
683.59	220.01
683.72	215.33
683.86	198.95
684.00	128.73
684.13	229.37
684.27	236.39
684.41	110.01
684.55	212.99
684.68	175.54
684.82	170.86
684.96	177.88
685.09	131.07
685.23	227.03
685.37	229.37
685.50	194.26
685.64	276.18
685.78	145.11
685.91	259.80
686.05	222.35
686.19	198.95
686.32	161.50
686.46	175.54
686.60	114.69
686.73	234.05
686.87	245.76
687.01	250.44
687.14	322.99
687.28	222.35
687.42	220.01
687.55	191.92
687.69	184.90
687.82	283.20
687.96	154.48
688.10	215.33
688.23	147.45
688.37	276.18
688.50	152.13
688.64	210.65
688.78	156.82
688.91	77.24
689.05	147.45
689.18	220.01
689.32	175.54
689.46	177.88
689.59	180.22
689.73	166.18
689.86	124.05
690.00	187.24
690.13	163.84
690.27	112.35
690.41	285.55
690.54	224.69
690.68	149.79
690.81	182.56
690.95	170.86
691.08	180.22
691.22	191.92
691.35	140.43
691.49	156.82
691.62	145.11
691.76	173.20
691.89	166.18
692.03	175.54
692.16	154.48
692.30	234.05
692.43	477.47
692.57	1572.84
692.70	2689.28
692.84	4079.55
692.97	3887.63
693.11	2708.00
693.24	2033.93
693.38	1418.36
693.51	1074.31
693.65	631.94
693.78	514.92
693.92	353.42
694.05	320.65
694.19	299.59
694.32	215.33
694.45	163.84
694.59	142.77
694.72	135.75
694.86	194.26
694.99	187.24
695.13	182.56
695.26	236.39
695.39	177.88
695.53	287.89
695.66	201.29
695.80	180.22
695.93	163.84
696.07	248.10
696.20	381.51
696.33	346.40
696.47	428.32
696.60	517.26
696.73	306.61
696.87	243.42
697.00	346.40
697.14	273.84
697.27	170.86
697.40	234.05
697.54	149.79
697.67	180.22
697.80	220.01
697.94	133.41
698.07	196.60
698.21	159.16
698.34	280.86
698.47	140.43
698.61	184.90
698.74	156.82
698.87	166.18
699.01	168.52
699.14	166.18
699.27	191.92
699.40	222.35
699.54	168.52
699.67	203.63
699.80	173.20
699.94	180.22
700.07	182.56
700.20	234.05
700.34	205.97
700.47	126.39
700.60	138.09
700.73	173.20
700.87	215.33
701.00	180.22
701.13	163.84
701.26	208.31
701.40	224.69
701.53	173.20
701.66	191.92
701.79	248.10
701.93	177.88
702.06	304.27
702.19	332.36
702.32	496.19
702.46	421.30
702.59	388.53
702.72	582.79
702.85	1870.09
702.99	3988.27
703.12	6588.61
703.25	7878.24
703.38	6878.83
703.51	5568.13
703.65	4189.56
703.78	3066.10
703.91	1994.14
704.04	1299.00
704.17	795.78
704.31	573.43
704.44	376.83
704.57	332.36
704.70	273.84
704.83	180.22
704.96	184.90
705.10	182.56
705.23	180.22
>>>>>End Processed Spectral Data<<<<<
