SpectraSuite Data File
++++++++++++++++++++++++++++++++++++
Date: Fri Oct 04 11:33:48 GMT-05:00 2013
User: price-jones
Dark Spectrum Present: No
Reference Spectrum Present: No
Number of Sampled Component Spectra: 1
Spectrometers: USB2+H05261
Integration Time (usec): 100000 (USB2+H05261)
Spectra Averaged: 1 (USB2+H05261)
Boxcar Smoothing: 0 (USB2+H05261)
Correct for Electrical Dark: No (USB2+H05261)
Strobe/Lamp Enabled: No (USB2+H05261)
Correct for Detector Non-linearity: No (USB2+H05261)
Correct for Stray Light: No (USB2+H05261)
Number of Pixels in Processed Spectrum: 2048
>>>>>Begin Processed Spectral Data<<<<<
365.73	56.17
365.92	56.17
366.12	56.17
366.32	0.00
366.52	0.00
366.72	0.00
366.91	0.00
367.11	4.68
367.31	0.00
367.51	0.00
367.70	0.00
367.90	21.06
368.10	0.00
368.30	0.00
368.49	0.00
368.69	0.00
368.89	0.00
369.09	0.00
369.28	28.09
369.48	0.00
369.68	0.00
369.87	21.06
370.07	42.13
370.27	72.56
370.47	60.85
370.66	30.43
370.86	60.85
371.06	74.90
371.25	142.77
371.45	117.03
371.65	112.35
371.84	110.01
372.04	51.49
372.24	229.37
372.44	128.73
372.63	154.48
372.83	140.43
373.03	86.60
373.22	189.58
373.42	112.35
373.62	159.16
373.81	140.43
374.01	105.32
374.21	220.01
374.40	110.01
374.60	161.50
374.79	196.60
374.99	135.75
375.19	163.84
375.38	140.43
375.58	161.50
375.78	149.79
375.97	168.52
376.17	227.03
376.37	112.35
376.56	170.86
376.76	166.18
376.95	98.30
377.15	191.92
377.35	170.86
377.54	98.30
377.74	49.15
377.93	145.11
378.13	194.26
378.33	98.30
378.52	210.65
378.72	117.03
378.91	170.86
379.11	124.05
379.31	175.54
379.50	16.38
379.70	180.22
379.89	173.20
380.09	135.75
380.28	131.07
380.48	149.79
380.68	72.56
380.87	100.64
381.07	175.54
381.26	205.97
381.46	142.77
381.65	170.86
381.85	110.01
382.04	74.90
382.24	112.35
382.43	182.56
382.63	135.75
382.83	110.01
383.02	238.73
383.22	154.48
383.41	107.66
383.61	166.18
383.80	145.11
384.00	166.18
384.19	208.31
384.39	147.45
384.58	135.75
384.78	128.73
384.97	180.22
385.17	117.03
385.36	91.28
385.56	117.03
385.75	63.19
385.95	112.35
386.14	201.29
386.34	182.56
386.53	173.20
386.72	131.07
386.92	215.33
387.11	180.22
387.31	196.60
387.50	100.64
387.70	112.35
387.89	105.32
388.09	140.43
388.28	166.18
388.48	147.45
388.67	170.86
388.86	105.32
389.06	131.07
389.25	140.43
389.45	95.96
389.64	156.82
389.84	156.82
390.03	98.30
390.22	79.58
390.42	147.45
390.61	168.52
390.81	135.75
391.00	107.66
391.19	133.41
391.39	147.45
391.58	166.18
391.78	161.50
391.97	98.30
392.16	173.20
392.36	252.78
392.55	128.73
392.75	168.52
392.94	117.03
393.13	224.69
393.33	131.07
393.52	117.03
393.71	98.30
393.91	124.05
394.10	184.90
394.29	81.92
394.49	227.03
394.68	184.90
394.88	161.50
395.07	119.37
395.26	107.66
395.46	149.79
395.65	93.62
395.84	194.26
396.04	243.42
396.23	117.03
396.42	114.69
396.62	180.22
396.81	156.82
397.00	161.50
397.19	180.22
397.39	102.98
397.58	154.48
397.77	81.92
397.97	140.43
398.16	166.18
398.35	173.20
398.55	84.26
398.74	81.92
398.93	124.05
399.12	142.77
399.32	220.01
399.51	84.26
399.70	149.79
399.90	159.16
400.09	182.56
400.28	170.86
400.47	81.92
400.67	154.48
400.86	163.84
401.05	156.82
401.24	133.41
401.44	189.58
401.63	173.20
401.82	156.82
402.01	145.11
402.21	159.16
402.40	217.67
402.59	154.48
402.78	142.77
402.97	191.92
403.17	135.75
403.36	152.13
403.55	159.16
403.74	149.79
403.93	159.16
404.13	297.25
404.32	231.71
404.51	217.67
404.70	166.18
404.89	175.54
405.09	175.54
405.28	128.73
405.47	156.82
405.66	166.18
405.85	98.30
406.05	121.71
406.24	140.43
406.43	210.65
406.62	180.22
406.81	220.01
407.00	180.22
407.20	184.90
407.39	163.84
407.58	135.75
407.77	168.52
407.96	203.63
408.15	98.30
408.34	159.16
408.54	121.71
408.73	189.58
408.92	203.63
409.11	156.82
409.30	187.24
409.49	140.43
409.68	105.32
409.87	79.58
410.07	86.60
410.26	112.35
410.45	175.54
410.64	138.09
410.83	135.75
411.02	170.86
411.21	180.22
411.40	210.65
411.59	177.88
411.78	163.84
411.98	149.79
412.17	201.29
412.36	238.73
412.55	112.35
412.74	98.30
412.93	222.35
413.12	100.64
413.31	205.97
413.50	121.71
413.69	119.37
413.88	166.18
414.07	177.88
414.26	191.92
414.45	166.18
414.64	102.98
414.83	159.16
415.02	191.92
415.22	215.33
415.41	140.43
415.60	98.30
415.79	60.85
415.98	138.09
416.17	124.05
416.36	142.77
416.55	177.88
416.74	161.50
416.93	238.73
417.12	86.60
417.31	201.29
417.50	147.45
417.69	184.90
417.88	210.65
418.07	229.37
418.26	191.92
418.45	255.12
418.64	292.57
418.83	187.24
419.02	287.89
419.21	212.99
419.39	163.84
419.58	145.11
419.77	194.26
419.96	177.88
420.15	273.84
420.34	152.13
420.53	147.45
420.72	166.18
420.91	170.86
421.10	196.60
421.29	166.18
421.48	205.97
421.67	147.45
421.86	81.92
422.05	114.69
422.24	152.13
422.43	184.90
422.61	210.65
422.80	166.18
422.99	184.90
423.18	201.29
423.37	262.14
423.56	175.54
423.75	201.29
423.94	161.50
424.13	119.37
424.32	156.82
424.50	175.54
424.69	217.67
424.88	173.20
425.07	168.52
425.26	159.16
425.45	241.08
425.64	306.61
425.83	287.89
426.01	236.39
426.20	205.97
426.39	138.09
426.58	154.48
426.77	98.30
426.96	168.52
427.15	177.88
427.33	149.79
427.52	138.09
427.71	189.58
427.90	292.57
428.09	189.58
428.28	170.86
428.46	191.92
428.65	238.73
428.84	173.20
429.03	201.29
429.22	215.33
429.40	140.43
429.59	107.66
429.78	208.31
429.97	217.67
430.16	212.99
430.34	133.41
430.53	149.79
430.72	175.54
430.91	180.22
431.10	215.33
431.28	191.92
431.47	191.92
431.66	180.22
431.85	229.37
432.03	112.35
432.22	173.20
432.41	168.52
432.60	229.37
432.79	212.99
432.97	283.20
433.16	290.23
433.35	224.69
433.54	283.20
433.72	201.29
433.91	220.01
434.10	203.63
434.28	238.73
434.47	135.75
434.66	201.29
434.85	196.60
435.03	250.44
435.22	308.95
435.41	393.21
435.59	402.57
435.78	353.42
435.97	229.37
436.16	236.39
436.34	163.84
436.53	145.11
436.72	182.56
436.90	255.12
437.09	166.18
437.28	110.01
437.46	173.20
437.65	147.45
437.84	126.39
438.02	121.71
438.21	227.03
438.40	208.31
438.58	114.69
438.77	170.86
438.96	222.35
439.14	170.86
439.33	191.92
439.52	196.60
439.70	154.48
439.89	117.03
440.08	194.26
440.26	142.77
440.45	250.44
440.63	175.54
440.82	292.57
441.01	222.35
441.19	175.54
441.38	187.24
441.57	163.84
441.75	243.42
441.94	147.45
442.12	224.69
442.31	194.26
442.50	159.16
442.68	112.35
442.87	107.66
443.05	105.32
443.24	173.20
443.43	180.22
443.61	175.54
443.80	236.39
443.98	224.69
444.17	259.80
444.35	189.58
444.54	173.20
444.73	173.20
444.91	161.50
445.10	177.88
445.28	166.18
445.47	117.03
445.65	147.45
445.84	180.22
446.02	177.88
446.21	173.20
446.39	170.86
446.58	156.82
446.77	187.24
446.95	152.13
447.14	194.26
447.32	205.97
447.51	175.54
447.69	201.29
447.88	189.58
448.06	224.69
448.25	124.05
448.43	205.97
448.62	161.50
448.80	234.05
448.99	154.48
449.17	105.32
449.36	168.52
449.54	215.33
449.73	126.39
449.91	229.37
450.10	140.43
450.28	194.26
450.46	198.95
450.65	187.24
450.83	220.01
451.02	203.63
451.20	243.42
451.39	238.73
451.57	203.63
451.76	208.31
451.94	163.84
452.13	215.33
452.31	212.99
452.49	126.39
452.68	133.41
452.86	184.90
453.05	191.92
453.23	180.22
453.42	166.18
453.60	135.75
453.78	189.58
453.97	173.20
454.15	152.13
454.34	166.18
454.52	203.63
454.70	210.65
454.89	189.58
455.07	114.69
455.26	241.08
455.44	168.52
455.62	128.73
455.81	184.90
455.99	224.69
456.17	208.31
456.36	156.82
456.54	138.09
456.73	152.13
456.91	163.84
457.09	187.24
457.28	170.86
457.46	133.41
457.64	156.82
457.83	222.35
458.01	177.88
458.19	238.73
458.38	262.14
458.56	245.76
458.74	147.45
458.93	236.39
459.11	210.65
459.29	114.69
459.48	159.16
459.66	259.80
459.84	205.97
460.03	250.44
460.21	189.58
460.39	203.63
460.57	227.03
460.76	234.05
460.94	152.13
461.12	280.86
461.31	229.37
461.49	135.75
461.67	208.31
461.85	205.97
462.04	243.42
462.22	631.94
462.40	173.20
462.59	182.56
462.77	212.99
462.95	208.31
463.13	191.92
463.32	250.44
463.50	159.16
463.68	198.95
463.86	173.20
464.05	238.73
464.23	224.69
464.41	203.63
464.59	170.86
464.78	198.95
464.96	238.73
465.14	182.56
465.32	168.52
465.50	170.86
465.69	154.48
465.87	191.92
466.05	166.18
466.23	180.22
466.41	196.60
466.60	264.48
466.78	184.90
466.96	210.65
467.14	126.39
467.32	114.69
467.51	154.48
467.69	201.29
467.87	264.48
468.05	170.86
468.23	248.10
468.41	205.97
468.60	194.26
468.78	173.20
468.96	271.50
469.14	170.86
469.32	194.26
469.50	168.52
469.69	198.95
469.87	215.33
470.05	238.73
470.23	161.50
470.41	208.31
470.59	184.90
470.77	231.71
470.95	133.41
471.14	224.69
471.32	220.01
471.50	222.35
471.68	163.84
471.86	180.22
472.04	255.12
472.22	257.46
472.40	215.33
472.58	177.88
472.77	259.80
472.95	243.42
473.13	241.08
473.31	187.24
473.49	156.82
473.67	161.50
473.85	198.95
474.03	299.59
474.21	156.82
474.39	250.44
474.57	210.65
474.75	257.46
474.93	182.56
475.12	224.69
475.30	208.31
475.48	222.35
475.66	229.37
475.84	187.24
476.02	241.08
476.20	234.05
476.38	147.45
476.56	203.63
476.74	180.22
476.92	205.97
477.10	220.01
477.28	210.65
477.46	187.24
477.64	243.42
477.82	196.60
478.00	187.24
478.18	227.03
478.36	257.46
478.54	205.97
478.72	208.31
478.90	194.26
479.08	147.45
479.26	243.42
479.44	257.46
479.62	198.95
479.80	262.14
479.98	229.37
480.16	161.50
480.34	276.18
480.52	201.29
480.70	203.63
480.88	238.73
481.06	119.37
481.24	152.13
481.41	210.65
481.59	220.01
481.77	208.31
481.95	276.18
482.13	208.31
482.31	266.82
482.49	168.52
482.67	243.42
482.85	252.78
483.03	187.24
483.21	154.48
483.39	194.26
483.57	229.37
483.74	290.23
483.92	252.78
484.10	201.29
484.28	217.67
484.46	271.50
484.64	245.76
484.82	248.10
485.00	278.52
485.18	297.25
485.35	236.39
485.53	271.50
485.71	227.03
485.89	205.97
486.07	231.71
486.25	278.52
486.43	231.71
486.61	252.78
486.78	229.37
486.96	191.92
487.14	198.95
487.32	266.82
487.50	266.82
487.68	224.69
487.85	255.12
488.03	280.86
488.21	238.73
488.39	241.08
488.57	250.44
488.75	245.76
488.92	543.00
489.10	234.05
489.28	229.37
489.46	182.56
489.64	212.99
489.81	290.23
489.99	224.69
490.17	276.18
490.35	304.27
490.53	259.80
490.70	227.03
490.88	264.48
491.06	245.76
491.24	308.95
491.41	299.59
491.59	255.12
491.77	245.76
491.95	177.88
492.13	294.91
492.30	304.27
492.48	255.12
492.66	217.67
492.84	255.12
493.01	259.80
493.19	175.54
493.37	283.20
493.54	259.80
493.72	210.65
493.90	149.79
494.08	243.42
494.25	170.86
494.43	269.16
494.61	243.42
494.79	208.31
494.96	163.84
495.14	262.14
495.32	299.59
495.49	306.61
495.67	278.52
495.85	301.93
496.02	257.46
496.20	212.99
496.38	330.02
496.55	315.97
496.73	334.70
496.91	269.16
497.09	248.10
497.26	222.35
497.44	262.14
497.62	203.63
497.79	196.60
497.97	341.72
498.14	241.08
498.32	348.74
498.50	327.68
498.67	194.26
498.85	306.61
499.03	259.80
499.20	278.52
499.38	337.04
499.56	245.76
499.73	334.70
499.91	222.35
500.08	299.59
500.26	287.89
500.44	231.71
500.61	245.76
500.79	290.23
500.97	280.86
501.14	257.46
501.32	294.91
501.49	210.65
501.67	196.60
501.84	297.25
502.02	276.18
502.20	318.31
502.37	262.14
502.55	290.23
502.72	266.82
502.90	212.99
503.07	287.89
503.25	276.18
503.43	318.31
503.60	337.04
503.78	229.37
503.95	266.82
504.13	210.65
504.30	330.02
504.48	278.52
504.65	278.52
504.83	315.97
505.01	271.50
505.18	285.55
505.36	257.46
505.53	203.63
505.71	294.91
505.88	245.76
506.06	177.88
506.23	299.59
506.41	248.10
506.58	210.65
506.76	273.84
506.93	250.44
507.11	311.29
507.28	212.99
507.46	325.33
507.63	285.55
507.81	238.73
507.98	262.14
508.16	280.86
508.33	187.24
508.50	327.68
508.68	280.86
508.85	238.73
509.03	294.91
509.20	334.70
509.38	252.78
509.55	290.23
509.73	243.42
509.90	287.89
510.08	243.42
510.25	287.89
510.42	327.68
510.60	236.39
510.77	238.73
510.95	280.86
511.12	301.93
511.30	278.52
511.47	332.36
511.64	337.04
511.82	222.35
511.99	248.10
512.17	259.80
512.34	177.88
512.51	285.55
512.69	315.97
512.86	283.20
513.04	205.97
513.21	285.55
513.38	273.84
513.56	224.69
513.73	311.29
513.90	264.48
514.08	287.89
514.25	315.97
514.43	313.63
514.60	236.39
514.77	278.52
514.95	229.37
515.12	290.23
515.29	285.55
515.47	229.37
515.64	290.23
515.81	285.55
515.99	287.89
516.16	255.12
516.33	341.72
516.51	287.89
516.68	215.33
516.85	250.44
517.03	215.33
517.20	262.14
517.37	311.29
517.54	245.76
517.72	304.27
517.89	203.63
518.06	198.95
518.24	248.10
518.41	315.97
518.58	301.93
518.75	273.84
518.93	252.78
519.10	248.10
519.27	285.55
519.45	273.84
519.62	287.89
519.79	297.25
519.96	220.01
520.14	313.63
520.31	271.50
520.48	236.39
520.65	248.10
520.83	276.18
521.00	264.48
521.17	294.91
521.34	358.10
521.52	271.50
521.69	184.90
521.86	276.18
522.03	299.59
522.20	332.36
522.38	269.16
522.55	266.82
522.72	264.48
522.89	315.97
523.07	341.72
523.24	320.65
523.41	236.39
523.58	297.25
523.75	238.73
523.92	227.03
524.10	283.20
524.27	339.38
524.44	259.80
524.61	301.93
524.78	318.31
524.96	337.04
525.13	229.37
525.30	285.55
525.47	259.80
525.64	332.36
525.81	341.72
525.98	311.29
526.16	234.05
526.33	187.24
526.50	177.88
526.67	191.92
526.84	231.71
527.01	229.37
527.18	271.50
527.36	250.44
527.53	278.52
527.70	313.63
527.87	301.93
528.04	271.50
528.21	236.39
528.38	287.89
528.55	301.93
528.72	269.16
528.89	344.06
529.07	259.80
529.24	297.25
529.41	224.69
529.58	339.38
529.75	301.93
529.92	259.80
530.09	266.82
530.26	285.55
530.43	362.78
530.60	283.20
530.77	238.73
530.94	259.80
531.11	280.86
531.28	271.50
531.46	222.35
531.63	367.46
531.80	259.80
531.97	212.99
532.14	292.57
532.31	262.14
532.48	315.97
532.65	402.57
532.82	386.19
532.99	400.23
533.16	381.51
533.33	320.65
533.50	358.10
533.67	348.74
533.84	447.04
534.01	526.62
534.18	381.51
534.35	318.31
534.52	325.33
534.69	290.23
534.86	327.68
535.03	273.84
535.20	320.65
535.37	320.65
535.54	301.93
535.71	299.59
535.88	306.61
536.05	264.48
536.22	257.46
536.38	283.20
536.55	330.02
536.72	397.89
536.89	259.80
537.06	367.46
537.23	311.29
537.40	299.59
537.57	276.18
537.74	301.93
537.91	386.19
538.08	313.63
538.25	379.17
538.42	276.18
538.59	315.97
538.75	215.33
538.92	360.44
539.09	318.31
539.26	358.10
539.43	547.69
539.60	1081.33
539.77	1633.69
539.94	1717.95
540.11	1273.25
540.28	882.38
540.44	653.01
540.61	514.92
540.78	447.04
540.95	484.49
541.12	566.41
541.29	376.83
541.46	571.09
541.62	538.32
541.79	561.73
541.96	524.28
542.13	493.85
542.30	451.72
542.47	449.38
542.63	449.38
542.80	517.26
542.97	514.92
543.14	458.74
543.31	472.79
543.48	472.79
543.64	409.59
543.81	447.04
543.98	435.34
544.15	489.17
544.32	468.11
544.48	477.47
544.65	496.19
544.82	449.38
544.99	381.51
545.16	456.40
545.32	461.09
545.49	674.07
545.66	837.91
545.83	847.27
546.00	809.83
546.16	575.77
546.33	528.96
546.50	465.77
546.67	402.57
546.83	440.02
547.00	374.49
547.17	409.59
547.34	365.12
547.50	334.70
547.67	400.23
547.84	290.23
548.00	388.53
548.17	294.91
548.34	327.68
548.51	346.40
548.67	379.17
548.84	362.78
549.01	369.80
549.18	304.27
549.34	341.72
549.51	341.72
549.68	365.12
549.84	320.65
550.01	332.36
550.18	409.59
550.34	395.55
550.51	320.65
550.68	365.12
550.84	334.70
551.01	264.48
551.18	299.59
551.34	299.59
551.51	285.55
551.68	407.25
551.84	374.49
552.01	301.93
552.18	243.42
552.34	306.61
552.51	271.50
552.68	376.83
552.84	337.04
553.01	276.18
553.18	285.55
553.34	306.61
553.51	243.42
553.67	276.18
553.84	358.10
554.01	294.91
554.17	287.89
554.34	292.57
554.51	320.65
554.67	358.10
554.84	283.20
555.00	250.44
555.17	259.80
555.33	273.84
555.50	280.86
555.67	290.23
555.83	278.52
556.00	273.84
556.16	561.73
556.33	308.95
556.50	325.33
556.66	234.05
556.83	313.63
556.99	245.76
557.16	255.12
557.32	294.91
557.49	264.48
557.65	255.12
557.82	308.95
557.98	250.44
558.15	280.86
558.32	191.92
558.48	215.33
558.65	229.37
558.81	262.14
558.98	292.57
559.14	280.86
559.31	269.16
559.47	308.95
559.64	250.44
559.80	320.65
559.97	311.29
560.13	330.02
560.30	271.50
560.46	297.25
560.63	278.52
560.79	290.23
560.96	269.16
561.12	264.48
561.29	257.46
561.45	304.27
561.61	271.50
561.78	344.06
561.94	306.61
562.11	269.16
562.27	241.08
562.44	294.91
562.60	222.35
562.77	290.23
562.93	360.44
563.10	271.50
563.26	259.80
563.42	271.50
563.59	264.48
563.75	248.10
563.92	327.68
564.08	294.91
564.24	297.25
564.41	337.04
564.57	266.82
564.74	212.99
564.90	332.36
565.07	292.57
565.23	306.61
565.39	330.02
565.56	297.25
565.72	262.14
565.88	344.06
566.05	241.08
566.21	262.14
566.38	250.44
566.54	292.57
566.70	245.76
566.87	241.08
567.03	229.37
567.19	243.42
567.36	283.20
567.52	301.93
567.68	243.42
567.85	292.57
568.01	238.73
568.17	222.35
568.34	248.10
568.50	278.52
568.66	257.46
568.83	379.17
568.99	236.39
569.15	294.91
569.32	325.33
569.48	212.99
569.64	243.42
569.81	252.78
569.97	220.01
570.13	198.95
570.30	212.99
570.46	271.50
570.62	217.67
570.78	210.65
570.95	257.46
571.11	362.78
571.27	285.55
571.43	290.23
571.60	332.36
571.76	276.18
571.92	290.23
572.09	262.14
572.25	283.20
572.41	348.74
572.57	273.84
572.74	344.06
572.90	320.65
573.06	301.93
573.22	285.55
573.38	304.27
573.55	290.23
573.71	308.95
573.87	341.72
574.03	224.69
574.20	327.68
574.36	346.40
574.52	360.44
574.68	355.76
574.84	264.48
575.01	304.27
575.17	241.08
575.33	264.48
575.49	311.29
575.65	245.76
575.82	442.36
575.98	657.69
576.14	702.16
576.30	819.19
576.46	702.16
576.62	587.47
576.79	489.17
576.95	491.51
577.11	306.61
577.27	362.78
577.43	311.29
577.59	351.08
577.75	411.93
577.92	276.18
578.08	294.91
578.24	248.10
578.40	311.29
578.56	374.49
578.72	489.17
578.88	461.09
579.04	428.32
579.21	407.25
579.37	400.23
579.53	355.76
579.69	365.12
579.85	334.70
580.01	407.25
580.17	421.30
580.33	505.56
580.49	407.25
580.65	418.96
580.82	404.91
580.98	395.55
581.14	430.66
581.30	425.98
581.46	484.49
581.62	596.84
581.78	725.57
581.94	636.63
582.10	482.15
582.26	528.96
582.42	521.94
582.58	489.17
582.74	486.83
582.90	444.70
583.06	601.52
583.22	540.66
583.38	531.30
583.54	512.58
583.70	713.86
583.86	770.04
584.02	835.57
584.18	971.32
584.34	1273.25
584.50	2911.63
584.66	20430.54
584.82	54401.07
584.98	65535.00
585.14	65130.09
585.30	51327.95
585.46	31667.45
585.62	19133.88
585.78	8884.67
585.94	3559.95
586.10	1706.25
586.26	1188.99
586.42	950.26
586.58	828.55
586.74	784.08
586.90	725.57
587.06	753.65
587.22	615.56
587.38	617.90
587.54	1203.04
587.70	3307.18
587.86	5930.92
588.02	6963.09
588.18	4901.08
588.34	3087.17
588.49	2017.54
588.65	1322.40
588.81	690.46
588.97	531.30
589.13	395.55
589.29	444.70
589.45	407.25
589.61	287.89
589.77	465.77
589.93	550.03
590.08	557.05
590.24	514.92
590.40	468.11
590.56	503.22
590.72	386.19
590.88	332.36
591.04	383.85
591.20	388.53
591.35	461.09
591.51	430.66
591.67	346.40
591.83	362.78
591.99	346.40
592.15	409.59
592.31	388.53
592.46	334.70
592.62	381.51
592.78	395.55
592.94	386.19
593.10	325.33
593.26	411.93
593.41	395.55
593.57	468.11
593.73	557.05
593.89	2473.95
594.05	7026.29
594.20	11087.12
594.36	11377.34
594.52	7531.84
594.68	4622.56
594.84	2995.89
594.99	1678.16
595.15	917.49
595.31	535.98
595.47	465.77
595.62	341.72
595.78	369.80
595.94	433.00
596.10	470.45
596.25	355.76
596.41	393.21
596.57	383.85
596.73	369.80
596.88	517.26
597.04	1373.89
597.20	2249.25
597.36	2876.52
597.51	2216.49
597.67	1465.18
597.83	990.05
597.99	779.40
598.14	512.58
598.30	339.38
598.46	414.27
598.61	376.83
598.77	383.85
598.93	416.62
599.09	360.44
599.24	365.12
599.40	395.55
599.56	327.68
599.71	322.99
599.87	250.44
600.03	351.08
600.18	299.59
600.34	318.31
600.50	304.27
600.65	301.93
600.81	325.33
600.97	257.46
601.12	318.31
601.28	325.33
601.44	301.93
601.59	322.99
601.75	344.06
601.91	346.40
602.06	313.63
602.22	430.66
602.37	699.82
602.53	1671.14
602.69	2705.66
602.84	3133.98
603.00	2324.15
603.16	1385.60
603.31	1111.75
603.47	800.46
603.62	447.04
603.78	374.49
603.94	362.78
604.09	374.49
604.25	379.17
604.40	353.42
604.56	351.08
604.71	257.46
604.87	276.18
605.03	365.12
605.18	358.10
605.34	355.76
605.49	393.21
605.65	376.83
605.80	358.10
605.96	348.74
606.12	339.38
606.27	428.32
606.43	308.95
606.58	421.30
606.74	805.14
606.89	3265.05
607.05	6925.65
607.20	9823.23
607.36	8442.31
607.51	5579.84
607.67	3534.21
607.82	2483.31
607.98	1378.58
608.13	716.20
608.29	533.64
608.44	526.62
608.60	482.15
608.75	599.18
608.91	1060.26
609.06	4908.10
609.22	11332.87
609.37	17193.58
609.53	14927.94
609.68	9973.02
609.84	6303.06
609.99	4248.07
610.15	2410.75
610.30	1362.19
610.46	915.15
610.61	875.36
610.76	861.32
610.92	997.07
611.07	947.92
611.23	1057.92
611.38	851.96
611.54	847.27
611.69	809.83
611.84	596.84
612.00	620.24
612.15	645.99
612.31	725.57
612.46	844.93
612.62	997.07
612.77	992.39
612.92	840.25
613.08	800.46
613.23	795.78
613.39	706.84
613.54	954.94
613.69	4313.61
613.85	13502.55
614.00	24479.66
614.15	28524.11
614.31	19555.18
614.46	12325.26
614.62	8149.75
614.77	4929.17
614.92	2389.69
615.08	1228.78
615.23	770.04
615.38	594.50
615.54	599.18
615.69	992.39
615.84	2719.70
616.00	5373.87
616.15	7002.88
616.30	6146.25
616.46	4056.15
616.61	2600.34
616.76	1933.28
616.92	1090.69
617.07	617.90
617.22	442.36
617.37	409.59
617.53	444.70
617.68	330.02
617.83	444.70
617.99	418.96
618.14	456.40
618.29	369.80
618.45	442.36
618.60	339.38
618.75	400.23
618.90	334.70
619.06	369.80
619.21	330.02
619.36	353.42
619.51	243.42
619.67	346.40
619.82	292.57
619.97	346.40
620.12	327.68
620.28	325.33
620.43	341.72
620.58	327.68
620.73	322.99
620.89	400.23
621.04	578.11
621.19	1474.54
621.34	2958.44
621.49	4170.83
621.65	3733.15
621.80	2703.32
621.95	1874.77
622.10	1282.61
622.25	809.83
622.41	550.03
622.56	358.10
622.71	355.76
622.86	395.55
623.01	339.38
623.16	297.25
623.32	311.29
623.47	301.93
623.62	276.18
623.77	208.31
623.92	353.42
624.07	311.29
624.23	276.18
624.38	346.40
624.53	339.38
624.68	381.51
624.83	250.44
624.98	344.06
625.13	301.93
625.29	299.59
625.44	344.06
625.59	341.72
625.74	376.83
625.89	596.84
626.04	2228.19
626.19	6761.81
626.34	11978.86
626.49	14754.74
626.65	10932.64
626.80	7169.06
626.95	4713.84
627.10	3000.57
627.25	1593.90
627.40	835.57
627.55	552.37
627.70	472.79
627.85	367.46
628.00	395.55
628.15	276.18
628.30	299.59
628.45	292.57
628.60	285.55
628.76	320.65
628.91	322.99
629.06	351.08
629.21	355.76
629.36	397.89
629.51	390.87
629.66	379.17
629.81	500.87
629.96	1268.57
630.11	2635.44
630.26	3583.36
630.41	3356.33
630.56	2392.03
630.71	1685.19
630.86	1284.95
631.01	844.93
631.16	528.96
631.31	442.36
631.46	444.70
631.61	407.25
631.76	351.08
631.91	334.70
632.06	306.61
632.21	374.49
632.36	381.51
632.51	404.91
632.66	552.37
632.81	1111.75
632.96	3716.77
633.10	7246.30
633.25	9898.13
633.40	8011.65
633.55	5645.37
633.70	3667.62
633.85	2326.49
634.00	1322.40
634.15	688.12
634.30	449.38
634.45	447.04
634.60	337.04
634.75	355.76
634.90	339.38
635.05	322.99
635.19	320.65
635.34	262.14
635.49	346.40
635.64	313.63
635.79	280.86
635.94	341.72
636.09	308.95
636.24	332.36
636.39	374.49
636.53	360.44
636.68	276.18
636.83	299.59
636.98	348.74
637.13	362.78
637.28	435.34
637.43	500.87
637.57	638.97
637.72	2949.08
637.87	8706.79
638.02	15452.22
638.17	18160.22
638.32	13067.21
638.46	8730.20
638.61	5827.93
638.76	3630.17
638.91	1802.21
639.06	896.43
639.20	695.14
639.35	713.86
639.50	830.89
639.65	4315.95
639.80	13034.44
639.94	23028.53
640.09	28004.51
640.24	20538.20
640.39	13217.01
640.54	8903.40
640.68	5343.44
640.83	2775.88
640.98	1291.98
641.13	856.64
641.27	500.87
641.42	486.83
641.57	442.36
641.72	313.63
641.86	355.76
642.01	330.02
642.16	299.59
642.31	266.82
642.45	327.68
642.60	348.74
642.75	208.31
642.90	266.82
643.04	198.95
643.19	227.03
643.34	353.42
643.48	236.39
643.63	227.03
643.78	292.57
643.93	276.18
644.07	248.10
644.22	238.73
644.37	259.80
644.51	294.91
644.66	301.93
644.81	388.53
644.95	292.57
645.10	248.10
645.25	278.52
645.39	276.18
645.54	234.05
645.69	376.83
645.83	262.14
645.98	301.93
646.13	313.63
646.27	241.08
646.42	227.03
646.57	271.50
646.71	278.52
646.86	220.01
647.00	287.89
647.15	271.50
647.30	229.37
647.44	243.42
647.59	196.60
647.74	201.29
647.88	259.80
648.03	264.48
648.17	308.95
648.32	217.67
648.47	301.93
648.61	264.48
648.76	280.86
648.90	325.33
649.05	276.18
649.20	201.29
649.34	229.37
649.49	276.18
649.63	220.01
649.78	348.74
649.92	395.55
650.07	1764.76
650.21	5776.44
650.36	10918.60
650.51	14794.53
650.65	12196.53
650.80	8585.08
650.94	5507.28
651.09	3492.08
651.23	1956.69
651.38	884.72
651.52	557.05
651.67	414.27
651.81	327.68
651.96	337.04
652.10	351.08
652.25	334.70
652.39	301.93
652.54	327.68
652.68	648.33
652.83	1956.69
652.97	3658.26
653.12	5102.37
653.26	4627.24
653.41	3428.88
653.55	2319.47
653.70	1591.56
653.84	954.94
653.99	510.24
654.13	318.31
654.27	294.91
654.42	245.76
654.56	264.48
654.71	252.78
654.85	248.10
655.00	234.05
655.14	180.22
655.29	257.46
655.43	280.86
655.57	241.08
655.72	173.20
655.86	308.95
656.01	227.03
656.15	224.69
656.30	234.05
656.44	168.52
656.58	194.26
656.73	217.67
656.87	229.37
657.01	250.44
657.16	285.55
657.30	278.52
657.45	264.48
657.59	299.59
657.73	210.65
657.88	276.18
658.02	287.89
658.16	217.67
658.31	212.99
658.45	229.37
658.60	227.03
658.74	299.59
658.88	205.97
659.03	283.20
659.17	308.95
659.31	819.19
659.46	2576.93
659.60	5088.32
659.74	7201.83
659.89	6502.01
660.03	4791.08
660.17	3267.39
660.32	1980.09
660.46	1181.97
660.60	755.99
660.74	510.24
660.89	285.55
661.03	287.89
661.17	252.78
661.32	231.71
661.46	243.42
661.60	161.50
661.74	283.20
661.89	203.63
662.03	262.14
662.17	276.18
662.31	224.69
662.46	243.42
662.60	250.44
662.74	154.48
662.88	259.80
663.03	224.69
663.17	229.37
663.31	201.29
663.45	194.26
663.60	208.31
663.74	194.26
663.88	189.58
664.02	280.86
664.17	236.39
664.31	182.56
664.45	262.14
664.59	266.82
664.73	217.67
664.88	325.33
665.02	238.73
665.16	248.10
665.30	358.10
665.44	266.82
665.59	222.35
665.73	278.52
665.87	229.37
666.01	142.77
666.15	227.03
666.29	224.69
666.44	271.50
666.58	269.16
666.72	250.44
666.86	283.20
667.00	346.40
667.14	433.00
667.28	1570.50
667.43	4985.34
667.57	9329.38
667.71	12512.50
667.85	10733.70
667.99	7962.50
668.13	5076.62
668.27	3047.38
668.41	1753.06
668.56	1015.79
668.70	589.82
668.84	376.83
668.98	388.53
669.12	341.72
669.26	222.35
669.40	409.59
669.54	287.89
669.68	217.67
669.82	273.84
669.96	283.20
670.10	208.31
670.25	217.67
670.39	173.20
670.53	220.01
670.67	203.63
670.81	194.26
670.95	341.72
671.09	493.85
671.23	1893.49
671.37	4322.97
671.51	6871.81
671.65	7997.61
671.79	6270.30
671.93	4404.89
672.07	2637.78
672.21	1490.92
672.35	978.34
672.49	524.28
672.63	433.00
672.77	327.68
672.91	266.82
673.05	224.69
673.19	227.03
673.33	215.33
673.47	252.78
673.61	220.01
673.75	238.73
673.89	191.92
674.03	287.89
674.17	259.80
674.31	252.78
674.45	264.48
674.59	269.16
674.73	217.67
674.87	177.88
675.01	184.90
675.15	255.12
675.29	276.18
675.43	241.08
675.56	290.23
675.70	259.80
675.84	339.38
675.98	189.58
676.12	159.16
676.26	252.78
676.40	177.88
676.54	224.69
676.68	135.75
676.82	315.97
676.96	147.45
677.10	245.76
677.23	187.24
677.37	187.24
677.51	234.05
677.65	187.24
677.79	140.43
677.93	180.22
678.07	191.92
678.21	196.60
678.34	154.48
678.48	175.54
678.62	238.73
678.76	201.29
678.90	217.67
679.04	187.24
679.18	156.82
679.31	135.75
679.45	168.52
679.59	177.88
679.73	173.20
679.87	175.54
680.00	133.41
680.14	234.05
680.28	217.67
680.42	154.48
680.56	215.33
680.70	173.20
680.83	205.97
680.97	138.09
681.11	140.43
681.25	252.78
681.39	175.54
681.52	191.92
681.66	201.29
681.80	210.65
681.94	266.82
682.07	121.71
682.21	220.01
682.35	234.05
682.49	210.65
682.62	238.73
682.76	168.52
682.90	159.16
683.04	241.08
683.17	198.95
683.31	180.22
683.45	208.31
683.59	180.22
683.72	212.99
683.86	154.48
684.00	107.66
684.13	205.97
684.27	175.54
684.41	152.13
684.55	156.82
684.68	184.90
684.82	234.05
684.96	194.26
685.09	180.22
685.23	168.52
685.37	163.84
685.50	191.92
685.64	285.55
685.78	201.29
685.91	184.90
686.05	180.22
686.19	198.95
686.32	161.50
686.46	205.97
686.60	145.11
686.73	217.67
686.87	243.42
687.01	231.71
687.14	170.86
687.28	208.31
687.42	189.58
687.55	210.65
687.69	135.75
687.82	201.29
687.96	248.10
688.10	222.35
688.23	203.63
688.37	217.67
688.50	189.58
688.64	234.05
688.78	175.54
688.91	241.08
689.05	140.43
689.18	184.90
689.32	224.69
689.46	135.75
689.59	177.88
689.73	198.95
689.86	234.05
690.00	149.79
690.13	194.26
690.27	238.73
690.41	170.86
690.54	135.75
690.68	170.86
690.81	145.11
690.95	156.82
691.08	205.97
691.22	212.99
691.35	203.63
691.49	177.88
691.62	194.26
691.76	238.73
691.89	227.03
692.03	187.24
692.16	170.86
692.30	374.49
692.43	578.11
692.57	2043.29
692.70	3887.63
692.84	5441.75
692.97	5376.21
693.11	3964.87
693.24	2825.03
693.38	2003.50
693.51	1338.79
693.65	924.51
693.78	631.94
693.92	465.77
694.05	337.04
694.19	252.78
694.32	231.71
694.45	266.82
694.59	175.54
694.72	161.50
694.86	187.24
694.99	194.26
695.13	100.64
695.26	208.31
695.39	201.29
695.53	184.90
695.66	180.22
695.80	175.54
695.93	189.58
696.07	231.71
696.20	292.57
696.33	374.49
696.47	489.17
696.60	454.06
696.73	376.83
696.87	287.89
697.00	330.02
697.14	266.82
697.27	210.65
697.40	227.03
697.54	119.37
697.67	112.35
697.80	191.92
697.94	156.82
698.07	180.22
698.21	255.12
698.34	194.26
698.47	196.60
698.61	102.98
698.74	145.11
698.87	271.50
699.01	203.63
699.14	107.66
699.27	229.37
699.40	259.80
699.54	128.73
699.67	194.26
699.80	217.67
699.94	149.79
700.07	238.73
700.20	212.99
700.34	215.33
700.47	156.82
700.60	187.24
700.73	177.88
700.87	170.86
701.00	191.92
701.13	170.86
701.26	196.60
701.40	238.73
701.53	140.43
701.66	201.29
701.79	159.16
701.93	234.05
702.06	285.55
702.19	421.30
702.32	505.56
702.46	524.28
702.59	568.75
702.72	772.38
702.85	2504.37
702.99	5603.24
703.12	8861.27
703.25	10773.49
703.38	9160.86
703.51	7243.96
703.65	5738.99
703.78	4126.36
703.91	2696.30
704.04	1750.72
704.17	1076.65
704.31	690.46
704.44	503.22
704.57	341.72
704.70	388.53
704.83	337.04
704.96	269.16
705.10	220.01
705.23	187.24
>>>>>End Processed Spectral Data<<<<<
