SpectraSuite Data File
++++++++++++++++++++++++++++++++++++
Date: Fri Oct 04 11:33:50 GMT-05:00 2013
User: price-jones
Dark Spectrum Present: No
Reference Spectrum Present: No
Number of Sampled Component Spectra: 1
Spectrometers: USB2+H05261
Integration Time (usec): 100000 (USB2+H05261)
Spectra Averaged: 1 (USB2+H05261)
Boxcar Smoothing: 0 (USB2+H05261)
Correct for Electrical Dark: No (USB2+H05261)
Strobe/Lamp Enabled: No (USB2+H05261)
Correct for Detector Non-linearity: No (USB2+H05261)
Correct for Stray Light: No (USB2+H05261)
Number of Pixels in Processed Spectrum: 2048
>>>>>Begin Processed Spectral Data<<<<<
365.73	93.62
365.92	93.62
366.12	93.62
366.32	7.02
366.52	0.00
366.72	46.81
366.91	0.00
367.11	0.00
367.31	0.00
367.51	0.00
367.70	0.00
367.90	9.36
368.10	0.00
368.30	0.00
368.49	0.00
368.69	37.45
368.89	0.00
369.09	0.00
369.28	18.72
369.48	0.00
369.68	0.00
369.87	0.00
370.07	9.36
370.27	138.09
370.47	65.54
370.66	42.13
370.86	72.56
371.06	110.01
371.25	163.84
371.45	124.05
371.65	114.69
371.84	77.24
372.04	63.19
372.24	105.32
372.44	140.43
372.63	163.84
372.83	117.03
373.03	152.13
373.22	95.96
373.42	131.07
373.62	187.24
373.81	147.45
374.01	189.58
374.21	161.50
374.40	142.77
374.60	215.33
374.79	205.97
374.99	222.35
375.19	105.32
375.38	196.60
375.58	135.75
375.78	142.77
375.97	159.16
376.17	222.35
376.37	128.73
376.56	105.32
376.76	154.48
376.95	126.39
377.15	131.07
377.35	163.84
377.54	147.45
377.74	42.13
377.93	79.58
378.13	159.16
378.33	147.45
378.52	77.24
378.72	210.65
378.91	198.95
379.11	124.05
379.31	147.45
379.50	88.94
379.70	135.75
379.89	138.09
380.09	110.01
380.28	107.66
380.48	107.66
380.68	140.43
380.87	72.56
381.07	105.32
381.26	180.22
381.46	173.20
381.65	138.09
381.85	187.24
382.04	142.77
382.24	131.07
382.43	194.26
382.63	112.35
382.83	110.01
383.02	100.64
383.22	177.88
383.41	140.43
383.61	102.98
383.80	124.05
384.00	177.88
384.19	107.66
384.39	114.69
384.58	138.09
384.78	156.82
384.97	133.41
385.17	77.24
385.36	168.52
385.56	182.56
385.75	152.13
385.95	121.71
386.14	147.45
386.34	147.45
386.53	166.18
386.72	56.17
386.92	102.98
387.11	182.56
387.31	110.01
387.50	107.66
387.70	119.37
387.89	145.11
388.09	140.43
388.28	133.41
388.48	133.41
388.67	205.97
388.86	128.73
389.06	170.86
389.25	138.09
389.45	154.48
389.64	77.24
389.84	175.54
390.03	110.01
390.22	166.18
390.42	133.41
390.61	112.35
390.81	81.92
391.00	159.16
391.19	81.92
391.39	63.19
391.58	177.88
391.78	163.84
391.97	159.16
392.16	105.32
392.36	194.26
392.55	220.01
392.75	145.11
392.94	98.30
393.13	88.94
393.33	93.62
393.52	107.66
393.71	187.24
393.91	154.48
394.10	133.41
394.29	138.09
394.49	149.79
394.68	222.35
394.88	177.88
395.07	147.45
395.26	180.22
395.46	154.48
395.65	170.86
395.84	112.35
396.04	203.63
396.23	95.96
396.42	114.69
396.62	131.07
396.81	184.90
397.00	154.48
397.19	133.41
397.39	159.16
397.58	147.45
397.77	117.03
397.97	126.39
398.16	131.07
398.35	140.43
398.55	102.98
398.74	149.79
398.93	147.45
399.12	93.62
399.32	79.58
399.51	140.43
399.70	238.73
399.90	135.75
400.09	173.20
400.28	220.01
400.47	117.03
400.67	110.01
400.86	107.66
401.05	79.58
401.24	191.92
401.44	46.81
401.63	128.73
401.82	227.03
402.01	159.16
402.21	98.30
402.40	163.84
402.59	149.79
402.78	161.50
402.97	145.11
403.17	159.16
403.36	149.79
403.55	161.50
403.74	142.77
403.93	276.18
404.13	278.52
404.32	180.22
404.51	220.01
404.70	170.86
404.89	147.45
405.09	182.56
405.28	166.18
405.47	156.82
405.66	201.29
405.85	191.92
406.05	145.11
406.24	205.97
406.43	177.88
406.62	138.09
406.81	142.77
407.00	163.84
407.20	168.52
407.39	131.07
407.58	170.86
407.77	119.37
407.96	224.69
408.15	177.88
408.34	191.92
408.54	154.48
408.73	105.32
408.92	161.50
409.11	173.20
409.30	198.95
409.49	156.82
409.68	201.29
409.87	189.58
410.07	163.84
410.26	191.92
410.45	205.97
410.64	126.39
410.83	140.43
411.02	88.94
411.21	163.84
411.40	161.50
411.59	138.09
411.78	117.03
411.98	107.66
412.17	140.43
412.36	86.60
412.55	121.71
412.74	194.26
412.93	217.67
413.12	145.11
413.31	72.56
413.50	180.22
413.69	124.05
413.88	243.42
414.07	159.16
414.26	205.97
414.45	187.24
414.64	177.88
414.83	124.05
415.02	184.90
415.22	205.97
415.41	294.91
415.60	166.18
415.79	175.54
415.98	236.39
416.17	222.35
416.36	182.56
416.55	105.32
416.74	102.98
416.93	196.60
417.12	161.50
417.31	152.13
417.50	187.24
417.69	201.29
417.88	170.86
418.07	189.58
418.26	243.42
418.45	252.78
418.64	318.31
418.83	269.16
419.02	248.10
419.21	250.44
419.39	227.03
419.58	245.76
419.77	222.35
419.96	217.67
420.15	187.24
420.34	191.92
420.53	175.54
420.72	145.11
420.91	126.39
421.10	102.98
421.29	210.65
421.48	215.33
421.67	163.84
421.86	147.45
422.05	145.11
422.24	168.52
422.43	170.86
422.61	210.65
422.80	145.11
422.99	117.03
423.18	121.71
423.37	177.88
423.56	159.16
423.75	180.22
423.94	135.75
424.13	98.30
424.32	170.86
424.50	215.33
424.69	203.63
424.88	236.39
425.07	177.88
425.26	248.10
425.45	191.92
425.64	227.03
425.83	278.52
426.01	234.05
426.20	217.67
426.39	184.90
426.58	95.96
426.77	215.33
426.96	168.52
427.15	145.11
427.33	168.52
427.52	131.07
427.71	168.52
427.90	149.79
428.09	133.41
428.28	177.88
428.46	170.86
428.65	220.01
428.84	222.35
429.03	224.69
429.22	133.41
429.40	194.26
429.59	117.03
429.78	173.20
429.97	194.26
430.16	163.84
430.34	154.48
430.53	187.24
430.72	184.90
430.91	201.29
431.10	107.66
431.28	285.55
431.47	180.22
431.66	236.39
431.85	163.84
432.03	145.11
432.22	198.95
432.41	198.95
432.60	140.43
432.79	252.78
432.97	292.57
433.16	278.52
433.35	229.37
433.54	191.92
433.72	299.59
433.91	208.31
434.10	234.05
434.28	294.91
434.47	191.92
434.66	262.14
434.85	175.54
435.03	255.12
435.22	299.59
435.41	430.66
435.59	355.76
435.78	222.35
435.97	285.55
436.16	234.05
436.34	175.54
436.53	189.58
436.72	189.58
436.90	205.97
437.09	166.18
437.28	175.54
437.46	135.75
437.65	196.60
437.84	138.09
438.02	210.65
438.21	184.90
438.40	210.65
438.58	161.50
438.77	159.16
438.96	74.90
439.14	220.01
439.33	161.50
439.52	180.22
439.70	161.50
439.89	217.67
440.08	184.90
440.26	166.18
440.45	180.22
440.63	182.56
440.82	203.63
441.01	72.56
441.19	142.77
441.38	159.16
441.57	243.42
441.75	210.65
441.94	224.69
442.12	156.82
442.31	145.11
442.50	147.45
442.68	159.16
442.87	205.97
443.05	147.45
443.24	173.20
443.43	250.44
443.61	257.46
443.80	180.22
443.98	212.99
444.17	236.39
444.35	180.22
444.54	198.95
444.73	266.82
444.91	205.97
445.10	198.95
445.28	142.77
445.47	135.75
445.65	175.54
445.84	166.18
446.02	205.97
446.21	175.54
446.39	140.43
446.58	135.75
446.77	175.54
446.95	124.05
447.14	184.90
447.32	220.01
447.51	224.69
447.69	278.52
447.88	191.92
448.06	220.01
448.25	187.24
448.43	175.54
448.62	177.88
448.80	119.37
448.99	159.16
449.17	152.13
449.36	210.65
449.54	121.71
449.73	156.82
449.91	203.63
450.10	131.07
450.28	238.73
450.46	245.76
450.65	149.79
450.83	194.26
451.02	191.92
451.20	184.90
451.39	182.56
451.57	177.88
451.76	173.20
451.94	184.90
452.13	201.29
452.31	145.11
452.49	180.22
452.68	163.84
452.86	126.39
453.05	203.63
453.23	168.52
453.42	203.63
453.60	210.65
453.78	168.52
453.97	163.84
454.15	133.41
454.34	184.90
454.52	238.73
454.70	259.80
454.89	236.39
455.07	194.26
455.26	234.05
455.44	133.41
455.62	215.33
455.81	159.16
455.99	203.63
456.17	243.42
456.36	245.76
456.54	189.58
456.73	175.54
456.91	135.75
457.09	152.13
457.28	154.48
457.46	177.88
457.64	196.60
457.83	131.07
458.01	224.69
458.19	252.78
458.38	161.50
458.56	166.18
458.74	154.48
458.93	189.58
459.11	262.14
459.29	142.77
459.48	229.37
459.66	220.01
459.84	224.69
460.03	278.52
460.21	210.65
460.39	133.41
460.57	255.12
460.76	201.29
460.94	154.48
461.12	205.97
461.31	231.71
461.49	191.92
461.67	163.84
461.85	159.16
462.04	201.29
462.22	634.29
462.40	236.39
462.59	159.16
462.77	201.29
462.95	276.18
463.13	154.48
463.32	304.27
463.50	138.09
463.68	168.52
463.86	152.13
464.05	187.24
464.23	285.55
464.41	187.24
464.59	229.37
464.78	168.52
464.96	196.60
465.14	217.67
465.32	205.97
465.50	208.31
465.69	145.11
465.87	177.88
466.05	184.90
466.23	231.71
466.41	215.33
466.60	166.18
466.78	187.24
466.96	187.24
467.14	156.82
467.32	215.33
467.51	222.35
467.69	243.42
467.87	236.39
468.05	217.67
468.23	210.65
468.41	290.23
468.60	220.01
468.78	227.03
468.96	180.22
469.14	201.29
469.32	194.26
469.50	222.35
469.69	194.26
469.87	252.78
470.05	250.44
470.23	220.01
470.41	119.37
470.59	166.18
470.77	201.29
470.95	229.37
471.14	271.50
471.32	205.97
471.50	266.82
471.68	203.63
471.86	140.43
472.04	222.35
472.22	198.95
472.40	191.92
472.58	222.35
472.77	187.24
472.95	168.52
473.13	248.10
473.31	259.80
473.49	203.63
473.67	184.90
473.85	175.54
474.03	271.50
474.21	243.42
474.39	229.37
474.57	212.99
474.75	184.90
474.93	227.03
475.12	156.82
475.30	140.43
475.48	173.20
475.66	248.10
475.84	196.60
476.02	227.03
476.20	180.22
476.38	152.13
476.56	264.48
476.74	159.16
476.92	166.18
477.10	285.55
477.28	203.63
477.46	187.24
477.64	236.39
477.82	203.63
478.00	170.86
478.18	180.22
478.36	245.76
478.54	227.03
478.72	203.63
478.90	154.48
479.08	217.67
479.26	182.56
479.44	173.20
479.62	238.73
479.80	198.95
479.98	180.22
480.16	203.63
480.34	231.71
480.52	205.97
480.70	163.84
480.88	217.67
481.06	236.39
481.24	170.86
481.41	276.18
481.59	205.97
481.77	168.52
481.95	159.16
482.13	290.23
482.31	248.10
482.49	266.82
482.67	180.22
482.85	224.69
483.03	227.03
483.21	231.71
483.39	234.05
483.57	212.99
483.74	234.05
483.92	194.26
484.10	259.80
484.28	243.42
484.46	330.02
484.64	224.69
484.82	248.10
485.00	315.97
485.18	262.14
485.35	276.18
485.53	191.92
485.71	264.48
485.89	175.54
486.07	187.24
486.25	297.25
486.43	241.08
486.61	203.63
486.78	229.37
486.96	177.88
487.14	220.01
487.32	248.10
487.50	271.50
487.68	229.37
487.85	180.22
488.03	217.67
488.21	273.84
488.39	241.08
488.57	327.68
488.75	285.55
488.92	449.38
489.10	252.78
489.28	238.73
489.46	245.76
489.64	269.16
489.81	236.39
489.99	224.69
490.17	301.93
490.35	308.95
490.53	243.42
490.70	222.35
490.88	248.10
491.06	201.29
491.24	259.80
491.41	301.93
491.59	184.90
491.77	168.52
491.95	210.65
492.13	182.56
492.30	243.42
492.48	182.56
492.66	220.01
492.84	145.11
493.01	222.35
493.19	241.08
493.37	250.44
493.54	252.78
493.72	292.57
493.90	234.05
494.08	229.37
494.25	215.33
494.43	280.86
494.61	245.76
494.79	236.39
494.96	236.39
495.14	208.31
495.32	203.63
495.49	264.48
495.67	241.08
495.85	271.50
496.02	299.59
496.20	266.82
496.38	252.78
496.55	236.39
496.73	290.23
496.91	168.52
497.09	238.73
497.26	280.86
497.44	212.99
497.62	196.60
497.79	245.76
497.97	262.14
498.14	208.31
498.32	313.63
498.50	280.86
498.67	273.84
498.85	294.91
499.03	231.71
499.20	229.37
499.38	266.82
499.56	259.80
499.73	241.08
499.91	334.70
500.08	234.05
500.26	229.37
500.44	283.20
500.61	292.57
500.79	269.16
500.97	318.31
501.14	266.82
501.32	283.20
501.49	301.93
501.67	212.99
501.84	250.44
502.02	220.01
502.20	297.25
502.37	290.23
502.55	257.46
502.72	238.73
502.90	243.42
503.07	210.65
503.25	297.25
503.43	255.12
503.60	311.29
503.78	280.86
503.95	264.48
504.13	313.63
504.30	250.44
504.48	273.84
504.65	315.97
504.83	264.48
505.01	203.63
505.18	294.91
505.36	231.71
505.53	266.82
505.71	196.60
505.88	257.46
506.06	229.37
506.23	283.20
506.41	229.37
506.58	252.78
506.76	365.12
506.93	280.86
507.11	311.29
507.28	308.95
507.46	257.46
507.63	278.52
507.81	264.48
507.98	234.05
508.16	280.86
508.33	210.65
508.50	285.55
508.68	220.01
508.85	234.05
509.03	227.03
509.20	262.14
509.38	208.31
509.55	259.80
509.73	294.91
509.90	285.55
510.08	236.39
510.25	255.12
510.42	273.84
510.60	301.93
510.77	301.93
510.95	259.80
511.12	243.42
511.30	287.89
511.47	264.48
511.64	322.99
511.82	292.57
511.99	184.90
512.17	234.05
512.34	248.10
512.51	224.69
512.69	266.82
512.86	280.86
513.04	248.10
513.21	243.42
513.38	299.59
513.56	201.29
513.73	262.14
513.90	294.91
514.08	301.93
514.25	292.57
514.43	236.39
514.60	229.37
514.77	273.84
514.95	290.23
515.12	205.97
515.29	198.95
515.47	255.12
515.64	262.14
515.81	252.78
515.99	276.18
516.16	355.76
516.33	273.84
516.51	229.37
516.68	252.78
516.85	149.79
517.03	299.59
517.20	205.97
517.37	203.63
517.54	182.56
517.72	217.67
517.89	234.05
518.06	294.91
518.24	273.84
518.41	231.71
518.58	234.05
518.75	227.03
518.93	231.71
519.10	283.20
519.27	269.16
519.45	257.46
519.62	304.27
519.79	248.10
519.96	245.76
520.14	257.46
520.31	264.48
520.48	250.44
520.65	320.65
520.83	355.76
521.00	290.23
521.17	313.63
521.34	290.23
521.52	266.82
521.69	264.48
521.86	280.86
522.03	238.73
522.20	306.61
522.38	304.27
522.55	238.73
522.72	278.52
522.89	250.44
523.07	322.99
523.24	257.46
523.41	215.33
523.58	243.42
523.75	259.80
523.92	227.03
524.10	245.76
524.27	264.48
524.44	273.84
524.61	280.86
524.78	299.59
524.96	280.86
525.13	292.57
525.30	313.63
525.47	276.18
525.64	269.16
525.81	322.99
525.98	210.65
526.16	229.37
526.33	297.25
526.50	297.25
526.67	297.25
526.84	243.42
527.01	187.24
527.18	224.69
527.36	320.65
527.53	297.25
527.70	266.82
527.87	259.80
528.04	334.70
528.21	259.80
528.38	337.04
528.55	278.52
528.72	344.06
528.89	355.76
529.07	238.73
529.24	210.65
529.41	266.82
529.58	308.95
529.75	276.18
529.92	294.91
530.09	285.55
530.26	255.12
530.43	304.27
530.60	285.55
530.77	269.16
530.94	278.52
531.11	222.35
531.28	304.27
531.46	304.27
531.63	259.80
531.80	262.14
531.97	280.86
532.14	334.70
532.31	306.61
532.48	367.46
532.65	360.44
532.82	444.70
532.99	388.53
533.16	367.46
533.33	290.23
533.50	320.65
533.67	348.74
533.84	390.87
534.01	475.13
534.18	447.04
534.35	341.72
534.52	374.49
534.69	344.06
534.86	339.38
535.03	348.74
535.20	271.50
535.37	355.76
535.54	280.86
535.71	266.82
535.88	255.12
536.05	215.33
536.22	266.82
536.38	222.35
536.55	351.08
536.72	280.86
536.89	273.84
537.06	332.36
537.23	315.97
537.40	315.97
537.57	290.23
537.74	287.89
537.91	315.97
538.08	262.14
538.25	297.25
538.42	365.12
538.59	327.68
538.75	276.18
538.92	388.53
539.09	402.57
539.26	266.82
539.43	493.85
539.60	1086.01
539.77	1603.27
539.94	1717.95
540.11	1188.99
540.28	786.42
540.44	643.65
540.61	486.83
540.78	491.51
540.95	381.51
541.12	524.28
541.29	470.45
541.46	538.32
541.62	526.62
541.79	491.51
541.96	437.68
542.13	454.06
542.30	444.70
542.47	554.71
542.63	437.68
542.80	456.40
542.97	425.98
543.14	472.79
543.31	533.64
543.48	463.43
543.64	416.62
543.81	451.72
543.98	430.66
544.15	402.57
544.32	465.77
544.48	411.93
544.65	449.38
544.82	421.30
544.99	374.49
545.16	524.28
545.32	458.74
545.49	648.33
545.66	873.02
545.83	772.38
546.00	777.06
546.16	606.20
546.33	484.49
546.50	425.98
546.67	379.17
546.83	379.17
547.00	367.46
547.17	330.02
547.34	285.55
547.50	346.40
547.67	353.42
547.84	379.17
548.00	421.30
548.17	411.93
548.34	365.12
548.51	411.93
548.67	447.04
548.84	372.15
549.01	376.83
549.18	325.33
549.34	425.98
549.51	320.65
549.68	327.68
549.84	390.87
550.01	365.12
550.18	388.53
550.34	367.46
550.51	362.78
550.68	337.04
550.84	315.97
551.01	362.78
551.18	341.72
551.34	287.89
551.51	339.38
551.68	332.36
551.84	339.38
552.01	341.72
552.18	348.74
552.34	346.40
552.51	327.68
552.68	318.31
552.84	285.55
553.01	365.12
553.18	245.76
553.34	257.46
553.51	259.80
553.67	299.59
553.84	360.44
554.01	280.86
554.17	339.38
554.34	322.99
554.51	278.52
554.67	292.57
554.84	297.25
555.00	287.89
555.17	313.63
555.33	337.04
555.50	264.48
555.67	393.21
555.83	294.91
556.00	264.48
556.16	470.45
556.33	337.04
556.50	308.95
556.66	280.86
556.83	241.08
556.99	297.25
557.16	320.65
557.32	259.80
557.49	250.44
557.65	273.84
557.82	222.35
557.98	278.52
558.15	248.10
558.32	229.37
558.48	248.10
558.65	248.10
558.81	297.25
558.98	269.16
559.14	318.31
559.31	341.72
559.47	287.89
559.64	262.14
559.80	294.91
559.97	266.82
560.13	269.16
560.30	220.01
560.46	297.25
560.63	330.02
560.79	325.33
560.96	278.52
561.12	290.23
561.29	271.50
561.45	292.57
561.61	285.55
561.78	376.83
561.94	259.80
562.11	269.16
562.27	250.44
562.44	276.18
562.60	346.40
562.77	262.14
562.93	362.78
563.10	276.18
563.26	229.37
563.42	308.95
563.59	292.57
563.75	297.25
563.92	297.25
564.08	292.57
564.24	290.23
564.41	337.04
564.57	248.10
564.74	234.05
564.90	334.70
565.07	313.63
565.23	311.29
565.39	308.95
565.56	292.57
565.72	315.97
565.88	320.65
566.05	285.55
566.21	266.82
566.38	337.04
566.54	297.25
566.70	341.72
566.87	285.55
567.03	236.39
567.19	283.20
567.36	299.59
567.52	234.05
567.68	278.52
567.85	236.39
568.01	278.52
568.17	191.92
568.34	262.14
568.50	248.10
568.66	262.14
568.83	339.38
568.99	362.78
569.15	353.42
569.32	304.27
569.48	287.89
569.64	257.46
569.81	234.05
569.97	224.69
570.13	271.50
570.30	257.46
570.46	229.37
570.62	229.37
570.78	238.73
570.95	234.05
571.11	308.95
571.27	339.38
571.43	306.61
571.60	299.59
571.76	241.08
571.92	273.84
572.09	311.29
572.25	259.80
572.41	264.48
572.57	257.46
572.74	280.86
572.90	322.99
573.06	320.65
573.22	318.31
573.38	250.44
573.55	304.27
573.71	337.04
573.87	264.48
574.03	177.88
574.20	294.91
574.36	433.00
574.52	404.91
574.68	397.89
574.84	332.36
575.01	315.97
575.17	287.89
575.33	285.55
575.49	330.02
575.65	346.40
575.82	390.87
575.98	587.47
576.14	688.12
576.30	739.61
576.46	669.39
576.62	479.81
576.79	526.62
576.95	433.00
577.11	383.85
577.27	269.16
577.43	367.46
577.59	409.59
577.75	360.44
577.92	325.33
578.08	311.29
578.24	259.80
578.40	278.52
578.56	397.89
578.72	416.62
578.88	470.45
579.04	425.98
579.21	404.91
579.37	322.99
579.53	332.36
579.69	390.87
579.85	397.89
580.01	416.62
580.17	447.04
580.33	449.38
580.49	381.51
580.65	486.83
580.82	397.89
580.98	437.68
581.14	409.59
581.30	421.30
581.46	486.83
581.62	594.50
581.78	674.07
581.94	699.82
582.10	547.69
582.26	524.28
582.42	547.69
582.58	489.17
582.74	550.03
582.90	430.66
583.06	493.85
583.22	571.09
583.38	526.62
583.54	573.43
583.70	702.16
583.86	746.63
584.02	889.40
584.18	957.28
584.34	1172.61
584.50	2876.52
584.66	20262.02
584.82	54312.13
584.98	65535.00
585.14	65251.80
585.30	52346.08
585.46	31318.71
585.62	19433.47
585.78	9053.19
585.94	3466.33
586.10	1713.27
586.26	1151.54
586.42	999.41
586.58	873.02
586.74	830.89
586.90	681.10
587.06	645.99
587.22	669.39
587.38	557.05
587.54	1177.29
587.70	3330.58
587.86	5907.51
588.02	7082.46
588.18	5076.62
588.34	3187.81
588.49	2090.10
588.65	1343.47
588.81	655.35
588.97	524.28
589.13	444.70
589.29	372.15
589.45	423.64
589.61	386.19
589.77	440.02
589.93	524.28
590.08	531.30
590.24	484.49
590.40	528.96
590.56	503.22
590.72	437.68
590.88	358.10
591.04	421.30
591.20	428.32
591.35	402.57
591.51	411.93
591.67	351.08
591.83	341.72
591.99	367.46
592.15	355.76
592.31	393.21
592.46	456.40
592.62	433.00
592.78	355.76
592.94	362.78
593.10	353.42
593.26	388.53
593.41	423.64
593.57	433.00
593.73	589.82
593.89	2410.75
594.05	6892.88
594.20	11571.61
594.36	11709.70
594.52	7328.22
594.68	4617.88
594.84	3162.06
594.99	1717.95
595.15	854.30
595.31	615.56
595.47	407.25
595.62	376.83
595.78	400.23
595.94	360.44
596.10	374.49
596.25	390.87
596.41	447.04
596.57	313.63
596.73	383.85
596.88	550.03
597.04	1310.70
597.20	2242.23
597.36	3040.36
597.51	2200.10
597.67	1544.75
597.83	1139.84
597.99	786.42
598.14	533.64
598.30	482.15
598.46	374.49
598.61	454.06
598.77	451.72
598.93	402.57
599.09	341.72
599.24	390.87
599.40	304.27
599.56	313.63
599.71	351.08
599.87	355.76
600.03	283.20
600.18	297.25
600.34	346.40
600.50	280.86
600.65	271.50
600.81	273.84
600.97	234.05
601.12	269.16
601.28	355.76
601.44	285.55
601.59	210.65
601.75	304.27
601.91	327.68
602.06	322.99
602.22	390.87
602.37	709.18
602.53	1561.14
602.69	2827.37
602.84	3112.91
603.00	2303.09
603.16	1528.37
603.31	1069.62
603.47	758.33
603.62	449.38
603.78	395.55
603.94	341.72
604.09	304.27
604.25	346.40
604.40	299.59
604.56	280.86
604.71	311.29
604.87	257.46
605.03	334.70
605.18	330.02
605.34	311.29
605.49	383.85
605.65	376.83
605.80	318.31
605.96	322.99
606.12	409.59
606.27	437.68
606.43	353.42
606.58	367.46
606.74	851.96
606.89	3009.93
607.05	6876.49
607.20	9900.47
607.36	8400.18
607.51	5413.66
607.67	3639.53
607.82	2473.95
607.98	1465.18
608.13	688.12
608.29	617.90
608.44	528.96
608.60	461.09
608.75	526.62
608.91	1100.05
609.06	4678.73
609.22	11286.06
609.37	17479.12
609.53	15597.33
609.68	10284.31
609.84	6530.09
609.99	4482.13
610.15	2495.01
610.30	1313.04
610.46	945.58
610.61	866.00
610.76	931.53
610.92	950.26
611.07	947.92
611.23	1060.26
611.38	987.71
611.54	882.38
611.69	723.23
611.84	648.33
612.00	601.52
612.15	575.77
612.31	746.63
612.46	866.00
612.62	997.07
612.77	952.60
612.92	781.74
613.08	758.33
613.23	617.90
613.39	748.97
613.54	959.62
613.69	4156.79
613.85	13135.09
614.00	24486.68
614.15	27786.84
614.31	19325.80
614.46	12451.65
614.62	8283.16
614.77	5142.16
614.92	2305.43
615.08	1158.57
615.23	702.16
615.38	608.54
615.54	608.54
615.69	880.04
615.84	2708.00
616.00	5313.02
616.15	7281.41
616.30	5966.03
616.46	4049.13
616.61	2796.94
616.76	1877.11
616.92	1163.25
617.07	730.25
617.22	416.62
617.37	468.11
617.53	360.44
617.68	353.42
617.83	330.02
617.99	484.49
618.14	416.62
618.29	301.93
618.45	407.25
618.60	313.63
618.75	365.12
618.90	276.18
619.06	311.29
619.21	330.02
619.36	341.72
619.51	301.93
619.67	308.95
619.82	283.20
619.97	278.52
620.12	330.02
620.28	339.38
620.43	369.80
620.58	351.08
620.73	374.49
620.89	327.68
621.04	550.03
621.19	1401.98
621.34	2841.41
621.49	4290.20
621.65	4105.30
621.80	2794.60
621.95	1888.81
622.10	1401.98
622.25	884.72
622.41	456.40
622.56	404.91
622.71	315.97
622.86	393.21
623.01	299.59
623.16	372.15
623.32	369.80
623.47	362.78
623.62	304.27
623.77	327.68
623.92	255.12
624.07	341.72
624.23	327.68
624.38	304.27
624.53	337.04
624.68	346.40
624.83	297.25
624.98	346.40
625.13	348.74
625.29	339.38
625.44	318.31
625.59	346.40
625.74	454.06
625.89	580.45
626.04	2097.12
626.19	6541.80
626.34	12152.06
626.49	14537.07
626.65	10682.20
626.80	6988.84
626.95	4706.82
627.10	3002.91
627.25	1519.01
627.40	739.61
627.55	545.34
627.70	463.43
627.85	299.59
628.00	299.59
628.15	351.08
628.30	287.89
628.45	358.10
628.60	320.65
628.76	337.04
628.91	290.23
629.06	315.97
629.21	301.93
629.36	341.72
629.51	290.23
629.66	358.10
629.81	451.72
629.96	1322.40
630.11	2567.57
630.26	3552.93
630.41	3295.47
630.56	2513.74
630.71	1713.27
630.86	1184.31
631.01	809.83
631.16	566.41
631.31	425.98
631.46	451.72
631.61	313.63
631.76	351.08
631.91	280.86
632.06	351.08
632.21	292.57
632.36	421.30
632.51	369.80
632.66	521.94
632.81	1165.59
632.96	3482.72
633.10	7152.68
633.25	9839.61
633.40	8166.13
633.55	5696.86
633.70	3719.11
633.85	2490.33
634.00	1306.02
634.15	678.76
634.30	465.77
634.45	430.66
634.60	407.25
634.75	299.59
634.90	241.08
635.05	231.71
635.19	318.31
635.34	248.10
635.49	299.59
635.64	287.89
635.79	315.97
635.94	346.40
636.09	322.99
636.24	278.52
636.39	304.27
636.53	334.70
636.68	285.55
636.83	269.16
636.98	390.87
637.13	362.78
637.28	433.00
637.43	421.30
637.57	692.80
637.72	2916.31
637.87	8461.04
638.02	15468.60
638.17	18295.97
638.32	13495.53
638.46	8877.65
638.61	6069.01
638.76	3850.18
638.91	1839.66
639.06	990.05
639.20	802.80
639.35	688.12
639.50	957.28
639.65	3950.82
639.80	12854.22
639.94	22841.29
640.09	27440.44
640.24	19995.20
640.39	13123.38
640.54	8786.37
640.68	5336.42
640.83	2572.25
640.98	1214.74
641.13	763.01
641.27	519.60
641.42	477.47
641.57	386.19
641.72	301.93
641.86	344.06
642.01	344.06
642.16	362.78
642.31	353.42
642.45	297.25
642.60	332.36
642.75	285.55
642.90	308.95
643.04	292.57
643.19	287.89
643.34	266.82
643.48	278.52
643.63	255.12
643.78	259.80
643.93	294.91
644.07	278.52
644.22	276.18
644.37	224.69
644.51	297.25
644.66	339.38
644.81	231.71
644.95	362.78
645.10	276.18
645.25	252.78
645.39	292.57
645.54	332.36
645.69	280.86
645.83	283.20
645.98	285.55
646.13	252.78
646.27	339.38
646.42	266.82
646.57	212.99
646.71	217.67
646.86	238.73
647.00	304.27
647.15	236.39
647.30	163.84
647.44	180.22
647.59	212.99
647.74	245.76
647.88	315.97
648.03	222.35
648.17	306.61
648.32	234.05
648.47	238.73
648.61	299.59
648.76	241.08
648.90	205.97
649.05	299.59
649.20	269.16
649.34	231.71
649.49	315.97
649.63	330.02
649.78	313.63
649.92	517.26
650.07	1654.76
650.21	5818.57
650.36	11150.31
650.51	14600.26
650.65	11866.52
650.80	8198.90
650.94	5504.94
651.09	3379.73
651.23	1818.60
651.38	947.92
651.52	575.77
651.67	337.04
651.81	234.05
651.96	369.80
652.10	299.59
652.25	264.48
652.39	337.04
652.54	238.73
652.68	599.18
652.83	1860.73
652.97	3606.77
653.12	5167.90
653.26	4542.98
653.41	3440.59
653.55	2401.39
653.70	1530.71
653.84	847.27
653.99	493.85
654.13	362.78
654.27	311.29
654.42	283.20
654.56	255.12
654.71	280.86
654.85	229.37
655.00	241.08
655.14	273.84
655.29	203.63
655.43	264.48
655.57	257.46
655.72	196.60
655.86	194.26
656.01	170.86
656.15	243.42
656.30	285.55
656.44	187.24
656.58	238.73
656.73	229.37
656.87	189.58
657.01	217.67
657.16	241.08
657.30	236.39
657.45	234.05
657.59	205.97
657.73	231.71
657.88	227.03
658.02	325.33
658.16	222.35
658.31	278.52
658.45	255.12
658.60	194.26
658.74	241.08
658.88	301.93
659.03	266.82
659.17	334.70
659.31	786.42
659.46	2532.46
659.60	5123.43
659.74	7143.32
659.89	6225.82
660.03	4711.50
660.17	3157.38
660.32	1867.75
660.46	1071.97
660.60	711.52
660.74	449.38
660.89	224.69
661.03	290.23
661.17	283.20
661.32	222.35
661.46	236.39
661.60	224.69
661.74	241.08
661.89	290.23
662.03	168.52
662.17	220.01
662.31	301.93
662.46	250.44
662.60	241.08
662.74	241.08
662.88	241.08
663.03	198.95
663.17	308.95
663.31	243.42
663.45	229.37
663.60	149.79
663.74	264.48
663.88	220.01
664.02	177.88
664.17	278.52
664.31	201.29
664.45	229.37
664.59	224.69
664.73	255.12
664.88	231.71
665.02	182.56
665.16	224.69
665.30	294.91
665.44	280.86
665.59	273.84
665.73	222.35
665.87	252.78
666.01	236.39
666.15	203.63
666.29	217.67
666.44	255.12
666.58	304.27
666.72	264.48
666.86	290.23
667.00	360.44
667.14	395.55
667.28	1657.10
667.43	4959.60
667.57	9540.02
667.71	12727.83
667.85	11145.63
667.99	8166.13
668.13	5207.69
668.27	3082.49
668.41	1764.76
668.56	976.00
668.70	589.82
668.84	468.11
668.98	409.59
669.12	299.59
669.26	292.57
669.40	330.02
669.54	224.69
669.68	210.65
669.82	210.65
669.96	276.18
670.10	250.44
670.25	297.25
670.39	318.31
670.53	227.03
670.67	283.20
670.81	292.57
670.95	269.16
671.09	589.82
671.23	1842.00
671.37	4470.42
671.51	7033.31
671.65	7840.79
671.79	6328.81
671.93	4301.90
672.07	2654.17
672.21	1603.27
672.35	919.83
672.49	486.83
672.63	444.70
672.77	367.46
672.91	273.84
673.05	299.59
673.19	259.80
673.33	248.10
673.47	320.65
673.61	187.24
673.75	222.35
673.89	180.22
674.03	229.37
674.17	241.08
674.31	245.76
674.45	224.69
674.59	198.95
674.73	252.78
674.87	255.12
675.01	273.84
675.15	330.02
675.29	257.46
675.43	250.44
675.56	292.57
675.70	278.52
675.84	243.42
675.98	194.26
676.12	212.99
676.26	224.69
676.40	166.18
676.54	227.03
676.68	156.82
676.82	217.67
676.96	126.39
677.10	147.45
677.23	161.50
677.37	203.63
677.51	175.54
677.65	243.42
677.79	191.92
677.93	114.69
678.07	227.03
678.21	170.86
678.34	180.22
678.48	170.86
678.62	124.05
678.76	220.01
678.90	210.65
679.04	163.84
679.18	126.39
679.31	201.29
679.45	236.39
679.59	243.42
679.73	227.03
679.87	117.03
680.00	234.05
680.14	238.73
680.28	196.60
680.42	107.66
680.56	266.82
680.70	215.33
680.83	175.54
680.97	133.41
681.11	163.84
681.25	222.35
681.39	161.50
681.52	269.16
681.66	215.33
681.80	201.29
681.94	159.16
682.07	175.54
682.21	227.03
682.35	220.01
682.49	187.24
682.62	203.63
682.76	154.48
682.90	187.24
683.04	152.13
683.17	182.56
683.31	163.84
683.45	194.26
683.59	175.54
683.72	222.35
683.86	177.88
684.00	194.26
684.13	203.63
684.27	229.37
684.41	266.82
684.55	133.41
684.68	175.54
684.82	173.20
684.96	166.18
685.09	191.92
685.23	196.60
685.37	124.05
685.50	187.24
685.64	198.95
685.78	93.62
685.91	184.90
686.05	208.31
686.19	161.50
686.32	278.52
686.46	243.42
686.60	194.26
686.73	285.55
686.87	196.60
687.01	280.86
687.14	212.99
687.28	229.37
687.42	231.71
687.55	184.90
687.69	161.50
687.82	229.37
687.96	208.31
688.10	271.50
688.23	212.99
688.37	191.92
688.50	196.60
688.64	187.24
688.78	222.35
688.91	271.50
689.05	191.92
689.18	114.69
689.32	152.13
689.46	121.71
689.59	166.18
689.73	212.99
689.86	145.11
690.00	175.54
690.13	173.20
690.27	170.86
690.41	224.69
690.54	215.33
690.68	227.03
690.81	191.92
690.95	191.92
691.08	205.97
691.22	166.18
691.35	147.45
691.49	189.58
691.62	138.09
691.76	210.65
691.89	259.80
692.03	205.97
692.16	173.20
692.30	250.44
692.43	690.46
692.57	2150.95
692.70	4077.21
692.84	5619.63
692.97	5135.14
693.11	3955.51
693.24	2726.72
693.38	1994.14
693.51	1200.69
693.65	915.15
693.78	566.41
693.92	372.15
694.05	332.36
694.19	222.35
694.32	161.50
694.45	297.25
694.59	210.65
694.72	191.92
694.86	208.31
694.99	229.37
695.13	114.69
695.26	196.60
695.39	205.97
695.53	161.50
695.66	156.82
695.80	227.03
695.93	189.58
696.07	248.10
696.20	332.36
696.33	578.11
696.47	507.90
696.60	503.22
696.73	444.70
696.87	444.70
697.00	297.25
697.14	224.69
697.27	189.58
697.40	313.63
697.54	149.79
697.67	234.05
697.80	154.48
697.94	138.09
698.07	187.24
698.21	128.73
698.34	262.14
698.47	133.41
698.61	184.90
698.74	159.16
698.87	177.88
699.01	175.54
699.14	168.52
699.27	212.99
699.40	250.44
699.54	278.52
699.67	149.79
699.80	184.90
699.94	196.60
700.07	208.31
700.20	170.86
700.34	175.54
700.47	220.01
700.60	184.90
700.73	166.18
700.87	217.67
701.00	117.03
701.13	229.37
701.26	159.16
701.40	220.01
701.53	159.16
701.66	175.54
701.79	205.97
701.93	184.90
702.06	294.91
702.19	327.68
702.32	526.62
702.46	519.60
702.59	500.87
702.72	835.57
702.85	2590.97
702.99	6267.95
703.12	9511.94
703.25	11314.15
703.38	9327.03
703.51	7803.35
703.65	5830.27
703.78	4236.37
703.91	2803.96
704.04	1710.93
704.17	1104.73
704.31	671.73
704.44	442.36
704.57	330.02
704.70	341.72
704.83	271.50
704.96	231.71
705.10	243.42
705.23	271.50
>>>>>End Processed Spectral Data<<<<<
