SpectraSuite Data File
++++++++++++++++++++++++++++++++++++
Date: Fri Oct 04 11:33:56 GMT-05:00 2013
User: price-jones
Dark Spectrum Present: No
Reference Spectrum Present: No
Number of Sampled Component Spectra: 1
Spectrometers: USB2+H05261
Integration Time (usec): 100000 (USB2+H05261)
Spectra Averaged: 1 (USB2+H05261)
Boxcar Smoothing: 0 (USB2+H05261)
Correct for Electrical Dark: No (USB2+H05261)
Strobe/Lamp Enabled: No (USB2+H05261)
Correct for Detector Non-linearity: No (USB2+H05261)
Correct for Stray Light: No (USB2+H05261)
Number of Pixels in Processed Spectrum: 2048
>>>>>Begin Processed Spectral Data<<<<<
365.73	128.73
365.92	128.73
366.12	128.73
366.32	0.00
366.52	9.36
366.72	0.00
366.91	0.00
367.11	0.00
367.31	0.00
367.51	0.00
367.70	23.41
367.90	67.88
368.10	0.00
368.30	7.02
368.49	0.00
368.69	0.00
368.89	2.34
369.09	0.00
369.28	9.36
369.48	0.00
369.68	0.00
369.87	0.00
370.07	9.36
370.27	126.39
370.47	0.00
370.66	67.88
370.86	84.26
371.06	77.24
371.25	175.54
371.45	110.01
371.65	149.79
371.84	63.19
372.04	152.13
372.24	98.30
372.44	138.09
372.63	79.58
372.83	175.54
373.03	84.26
373.22	149.79
373.42	105.32
373.62	159.16
373.81	149.79
374.01	72.56
374.21	98.30
374.40	161.50
374.60	175.54
374.79	77.24
374.99	166.18
375.19	156.82
375.38	166.18
375.58	100.64
375.78	159.16
375.97	198.95
376.17	119.37
376.37	81.92
376.56	138.09
376.76	138.09
376.95	156.82
377.15	81.92
377.35	203.63
377.54	131.07
377.74	110.01
377.93	135.75
378.13	114.69
378.33	168.52
378.52	156.82
378.72	51.49
378.91	311.29
379.11	145.11
379.31	107.66
379.50	124.05
379.70	84.26
379.89	231.71
380.09	147.45
380.28	161.50
380.48	156.82
380.68	131.07
380.87	222.35
381.07	128.73
381.26	187.24
381.46	138.09
381.65	152.13
381.85	142.77
382.04	140.43
382.24	142.77
382.43	191.92
382.63	107.66
382.83	95.96
383.02	95.96
383.22	184.90
383.41	100.64
383.61	128.73
383.80	156.82
384.00	124.05
384.19	138.09
384.39	147.45
384.58	163.84
384.78	189.58
384.97	203.63
385.17	112.35
385.36	119.37
385.56	159.16
385.75	142.77
385.95	81.92
386.14	170.86
386.34	166.18
386.53	203.63
386.72	128.73
386.92	194.26
387.11	131.07
387.31	147.45
387.50	170.86
387.70	91.28
387.89	138.09
388.09	112.35
388.28	170.86
388.48	100.64
388.67	114.69
388.86	166.18
389.06	208.31
389.25	140.43
389.45	166.18
389.64	163.84
389.84	145.11
390.03	243.42
390.22	138.09
390.42	140.43
390.61	177.88
390.81	170.86
391.00	210.65
391.19	138.09
391.39	138.09
391.58	180.22
391.78	126.39
391.97	131.07
392.16	58.51
392.36	163.84
392.55	177.88
392.75	210.65
392.94	133.41
393.13	140.43
393.33	126.39
393.52	198.95
393.71	184.90
393.91	135.75
394.10	142.77
394.29	170.86
394.49	135.75
394.68	159.16
394.88	210.65
395.07	187.24
395.26	177.88
395.46	184.90
395.65	131.07
395.84	131.07
396.04	229.37
396.23	147.45
396.42	142.77
396.62	163.84
396.81	212.99
397.00	208.31
397.19	220.01
397.39	140.43
397.58	154.48
397.77	168.52
397.97	166.18
398.16	138.09
398.35	198.95
398.55	110.01
398.74	119.37
398.93	208.31
399.12	180.22
399.32	117.03
399.51	175.54
399.70	168.52
399.90	91.28
400.09	166.18
400.28	220.01
400.47	177.88
400.67	173.20
400.86	135.75
401.05	208.31
401.24	149.79
401.44	95.96
401.63	119.37
401.82	168.52
402.01	112.35
402.21	168.52
402.40	196.60
402.59	170.86
402.78	138.09
402.97	168.52
403.17	159.16
403.36	124.05
403.55	117.03
403.74	152.13
403.93	215.33
404.13	241.08
404.32	196.60
404.51	224.69
404.70	208.31
404.89	84.26
405.09	163.84
405.28	196.60
405.47	203.63
405.66	138.09
405.85	175.54
406.05	203.63
406.24	140.43
406.43	126.39
406.62	140.43
406.81	152.13
407.00	133.41
407.20	124.05
407.39	152.13
407.58	114.69
407.77	187.24
407.96	196.60
408.15	173.20
408.34	212.99
408.54	184.90
408.73	208.31
408.92	126.39
409.11	201.29
409.30	170.86
409.49	135.75
409.68	159.16
409.87	163.84
410.07	131.07
410.26	166.18
410.45	145.11
410.64	140.43
410.83	180.22
411.02	154.48
411.21	222.35
411.40	163.84
411.59	180.22
411.78	117.03
411.98	117.03
412.17	189.58
412.36	161.50
412.55	124.05
412.74	175.54
412.93	191.92
413.12	161.50
413.31	177.88
413.50	154.48
413.69	145.11
413.88	166.18
414.07	142.77
414.26	147.45
414.45	173.20
414.64	175.54
414.83	166.18
415.02	70.22
415.22	163.84
415.41	100.64
415.60	145.11
415.79	124.05
415.98	220.01
416.17	257.46
416.36	138.09
416.55	182.56
416.74	152.13
416.93	212.99
417.12	194.26
417.31	173.20
417.50	161.50
417.69	292.57
417.88	152.13
418.07	166.18
418.26	224.69
418.45	210.65
418.64	252.78
418.83	180.22
419.02	191.92
419.21	189.58
419.39	229.37
419.58	201.29
419.77	248.10
419.96	168.52
420.15	222.35
420.34	180.22
420.53	210.65
420.72	166.18
420.91	117.03
421.10	102.98
421.29	194.26
421.48	128.73
421.67	191.92
421.86	161.50
422.05	147.45
422.24	138.09
422.43	110.01
422.61	161.50
422.80	173.20
422.99	163.84
423.18	156.82
423.37	147.45
423.56	189.58
423.75	159.16
423.94	159.16
424.13	100.64
424.32	191.92
424.50	149.79
424.69	145.11
424.88	166.18
425.07	110.01
425.26	266.82
425.45	215.33
425.64	250.44
425.83	238.73
426.01	238.73
426.20	231.71
426.39	159.16
426.58	124.05
426.77	161.50
426.96	161.50
427.15	184.90
427.33	191.92
427.52	208.31
427.71	135.75
427.90	187.24
428.09	119.37
428.28	95.96
428.46	173.20
428.65	208.31
428.84	154.48
429.03	201.29
429.22	177.88
429.40	184.90
429.59	147.45
429.78	257.46
429.97	124.05
430.16	145.11
430.34	194.26
430.53	154.48
430.72	145.11
430.91	184.90
431.10	140.43
431.28	182.56
431.47	177.88
431.66	138.09
431.85	203.63
432.03	182.56
432.22	159.16
432.41	175.54
432.60	201.29
432.79	266.82
432.97	266.82
433.16	290.23
433.35	330.02
433.54	191.92
433.72	203.63
433.91	222.35
434.10	217.67
434.28	205.97
434.47	175.54
434.66	212.99
434.85	182.56
435.03	227.03
435.22	362.78
435.41	369.80
435.59	374.49
435.78	365.12
435.97	229.37
436.16	198.95
436.34	133.41
436.53	161.50
436.72	191.92
436.90	175.54
437.09	208.31
437.28	159.16
437.46	234.05
437.65	93.62
437.84	194.26
438.02	147.45
438.21	177.88
438.40	133.41
438.58	56.17
438.77	180.22
438.96	191.92
439.14	205.97
439.33	196.60
439.52	149.79
439.70	189.58
439.89	131.07
440.08	191.92
440.26	222.35
440.45	203.63
440.63	163.84
440.82	191.92
441.01	184.90
441.19	140.43
441.38	107.66
441.57	170.86
441.75	184.90
441.94	264.48
442.12	339.38
442.31	140.43
442.50	203.63
442.68	163.84
442.87	198.95
443.05	126.39
443.24	149.79
443.43	196.60
443.61	173.20
443.80	133.41
443.98	177.88
444.17	166.18
444.35	215.33
444.54	231.71
444.73	182.56
444.91	224.69
445.10	212.99
445.28	159.16
445.47	227.03
445.65	224.69
445.84	175.54
446.02	208.31
446.21	170.86
446.39	168.52
446.58	201.29
446.77	182.56
446.95	245.76
447.14	259.80
447.32	271.50
447.51	175.54
447.69	124.05
447.88	224.69
448.06	290.23
448.25	311.29
448.43	170.86
448.62	224.69
448.80	212.99
448.99	180.22
449.17	173.20
449.36	154.48
449.54	180.22
449.73	154.48
449.91	276.18
450.10	198.95
450.28	224.69
450.46	243.42
450.65	245.76
450.83	175.54
451.02	180.22
451.20	212.99
451.39	191.92
451.57	262.14
451.76	217.67
451.94	250.44
452.13	191.92
452.31	252.78
452.49	189.58
452.68	102.98
452.86	163.84
453.05	241.08
453.23	220.01
453.42	241.08
453.60	189.58
453.78	170.86
453.97	126.39
454.15	205.97
454.34	175.54
454.52	177.88
454.70	173.20
454.89	217.67
455.07	173.20
455.26	208.31
455.44	212.99
455.62	145.11
455.81	198.95
455.99	212.99
456.17	166.18
456.36	215.33
456.54	163.84
456.73	105.32
456.91	180.22
457.09	203.63
457.28	201.29
457.46	189.58
457.64	194.26
457.83	180.22
458.01	149.79
458.19	259.80
458.38	154.48
458.56	140.43
458.74	203.63
458.93	201.29
459.11	191.92
459.29	170.86
459.48	201.29
459.66	119.37
459.84	243.42
460.03	297.25
460.21	215.33
460.39	234.05
460.57	229.37
460.76	170.86
460.94	215.33
461.12	220.01
461.31	180.22
461.49	117.03
461.67	177.88
461.85	133.41
462.04	140.43
462.22	634.29
462.40	248.10
462.59	280.86
462.77	140.43
462.95	187.24
463.13	273.84
463.32	184.90
463.50	194.26
463.68	205.97
463.86	222.35
464.05	198.95
464.23	224.69
464.41	257.46
464.59	187.24
464.78	196.60
464.96	102.98
465.14	220.01
465.32	231.71
465.50	175.54
465.69	264.48
465.87	210.65
466.05	234.05
466.23	198.95
466.41	212.99
466.60	182.56
466.78	159.16
466.96	168.52
467.14	203.63
467.32	266.82
467.51	177.88
467.69	166.18
467.87	229.37
468.05	208.31
468.23	187.24
468.41	248.10
468.60	133.41
468.78	175.54
468.96	189.58
469.14	175.54
469.32	161.50
469.50	203.63
469.69	175.54
469.87	238.73
470.05	205.97
470.23	203.63
470.41	163.84
470.59	191.92
470.77	203.63
470.95	201.29
471.14	170.86
471.32	196.60
471.50	224.69
471.68	138.09
471.86	177.88
472.04	203.63
472.22	147.45
472.40	203.63
472.58	182.56
472.77	152.13
472.95	138.09
473.13	243.42
473.31	262.14
473.49	170.86
473.67	194.26
473.85	276.18
474.03	313.63
474.21	170.86
474.39	175.54
474.57	264.48
474.75	205.97
474.93	154.48
475.12	121.71
475.30	229.37
475.48	161.50
475.66	259.80
475.84	231.71
476.02	229.37
476.20	273.84
476.38	292.57
476.56	311.29
476.74	212.99
476.92	184.90
477.10	205.97
477.28	264.48
477.46	163.84
477.64	140.43
477.82	205.97
478.00	194.26
478.18	212.99
478.36	205.97
478.54	222.35
478.72	142.77
478.90	266.82
479.08	250.44
479.26	259.80
479.44	241.08
479.62	299.59
479.80	163.84
479.98	252.78
480.16	208.31
480.34	208.31
480.52	217.67
480.70	191.92
480.88	184.90
481.06	161.50
481.24	245.76
481.41	180.22
481.59	194.26
481.77	229.37
481.95	203.63
482.13	257.46
482.31	234.05
482.49	241.08
482.67	203.63
482.85	224.69
483.03	161.50
483.21	234.05
483.39	255.12
483.57	264.48
483.74	266.82
483.92	182.56
484.10	215.33
484.28	250.44
484.46	271.50
484.64	234.05
484.82	217.67
485.00	262.14
485.18	250.44
485.35	231.71
485.53	168.52
485.71	285.55
485.89	189.58
486.07	210.65
486.25	189.58
486.43	241.08
486.61	187.24
486.78	234.05
486.96	266.82
487.14	255.12
487.32	259.80
487.50	212.99
487.68	259.80
487.85	245.76
488.03	255.12
488.21	301.93
488.39	231.71
488.57	264.48
488.75	208.31
488.92	496.19
489.10	306.61
489.28	353.42
489.46	299.59
489.64	229.37
489.81	271.50
489.99	264.48
490.17	243.42
490.35	313.63
490.53	255.12
490.70	227.03
490.88	285.55
491.06	222.35
491.24	266.82
491.41	330.02
491.59	238.73
491.77	278.52
491.95	184.90
492.13	266.82
492.30	210.65
492.48	283.20
492.66	255.12
492.84	224.69
493.01	259.80
493.19	257.46
493.37	245.76
493.54	259.80
493.72	325.33
493.90	325.33
494.08	297.25
494.25	308.95
494.43	313.63
494.61	208.31
494.79	236.39
494.96	301.93
495.14	301.93
495.32	297.25
495.49	266.82
495.67	294.91
495.85	236.39
496.02	241.08
496.20	269.16
496.38	276.18
496.55	229.37
496.73	287.89
496.91	259.80
497.09	299.59
497.26	220.01
497.44	278.52
497.62	210.65
497.79	229.37
497.97	264.48
498.14	290.23
498.32	264.48
498.50	245.76
498.67	205.97
498.85	262.14
499.03	255.12
499.20	241.08
499.38	276.18
499.56	231.71
499.73	243.42
499.91	175.54
500.08	266.82
500.26	264.48
500.44	262.14
500.61	140.43
500.79	191.92
500.97	294.91
501.14	330.02
501.32	227.03
501.49	236.39
501.67	273.84
501.84	222.35
502.02	313.63
502.20	339.38
502.37	264.48
502.55	222.35
502.72	262.14
502.90	294.91
503.07	266.82
503.25	283.20
503.43	271.50
503.60	332.36
503.78	243.42
503.95	248.10
504.13	229.37
504.30	227.03
504.48	280.86
504.65	315.97
504.83	285.55
505.01	187.24
505.18	217.67
505.36	250.44
505.53	278.52
505.71	262.14
505.88	280.86
506.06	271.50
506.23	215.33
506.41	217.67
506.58	191.92
506.76	290.23
506.93	320.65
507.11	301.93
507.28	208.31
507.46	348.74
507.63	290.23
507.81	264.48
507.98	320.65
508.16	257.46
508.33	283.20
508.50	217.67
508.68	311.29
508.85	245.76
509.03	280.86
509.20	311.29
509.38	243.42
509.55	344.06
509.73	250.44
509.90	215.33
510.08	344.06
510.25	351.08
510.42	269.16
510.60	257.46
510.77	320.65
510.95	215.33
511.12	299.59
511.30	283.20
511.47	320.65
511.64	259.80
511.82	301.93
511.99	262.14
512.17	266.82
512.34	203.63
512.51	222.35
512.69	210.65
512.86	290.23
513.04	229.37
513.21	264.48
513.38	255.12
513.56	280.86
513.73	276.18
513.90	217.67
514.08	243.42
514.25	301.93
514.43	278.52
514.60	196.60
514.77	280.86
514.95	313.63
515.12	287.89
515.29	287.89
515.47	227.03
515.64	266.82
515.81	271.50
515.99	311.29
516.16	290.23
516.33	273.84
516.51	273.84
516.68	152.13
516.85	229.37
517.03	318.31
517.20	217.67
517.37	257.46
517.54	248.10
517.72	184.90
517.89	205.97
518.06	245.76
518.24	278.52
518.41	332.36
518.58	344.06
518.75	220.01
518.93	208.31
519.10	262.14
519.27	287.89
519.45	273.84
519.62	234.05
519.79	222.35
519.96	262.14
520.14	318.31
520.31	273.84
520.48	332.36
520.65	255.12
520.83	236.39
521.00	208.31
521.17	271.50
521.34	292.57
521.52	292.57
521.69	290.23
521.86	283.20
522.03	330.02
522.20	351.08
522.38	243.42
522.55	280.86
522.72	278.52
522.89	280.86
523.07	337.04
523.24	250.44
523.41	283.20
523.58	212.99
523.75	255.12
523.92	248.10
524.10	250.44
524.27	245.76
524.44	285.55
524.61	306.61
524.78	280.86
524.96	283.20
525.13	269.16
525.30	292.57
525.47	287.89
525.64	187.24
525.81	353.42
525.98	196.60
526.16	276.18
526.33	208.31
526.50	252.78
526.67	287.89
526.84	266.82
527.01	269.16
527.18	355.76
527.36	301.93
527.53	194.26
527.70	290.23
527.87	266.82
528.04	278.52
528.21	224.69
528.38	297.25
528.55	304.27
528.72	301.93
528.89	341.72
529.07	220.01
529.24	257.46
529.41	325.33
529.58	257.46
529.75	264.48
529.92	304.27
530.09	264.48
530.26	255.12
530.43	341.72
530.60	250.44
530.77	283.20
530.94	245.76
531.11	306.61
531.28	248.10
531.46	222.35
531.63	220.01
531.80	327.68
531.97	318.31
532.14	250.44
532.31	301.93
532.48	365.12
532.65	341.72
532.82	430.66
532.99	430.66
533.16	393.21
533.33	376.83
533.50	327.68
533.67	411.93
533.84	416.62
534.01	440.02
534.18	315.97
534.35	388.53
534.52	306.61
534.69	344.06
534.86	287.89
535.03	236.39
535.20	227.03
535.37	360.44
535.54	327.68
535.71	255.12
535.88	339.38
536.05	262.14
536.22	280.86
536.38	220.01
536.55	311.29
536.72	334.70
536.89	337.04
537.06	311.29
537.23	299.59
537.40	341.72
537.57	257.46
537.74	320.65
537.91	327.68
538.08	346.40
538.25	287.89
538.42	362.78
538.59	337.04
538.75	313.63
538.92	318.31
539.09	304.27
539.26	271.50
539.43	613.22
539.60	1053.24
539.77	1465.18
539.94	1591.56
540.11	1104.73
540.28	812.17
540.44	660.03
540.61	479.81
540.78	540.66
540.95	430.66
541.12	507.90
541.29	559.39
541.46	582.79
541.62	528.96
541.79	484.49
541.96	568.75
542.13	472.79
542.30	498.53
542.47	528.96
542.63	451.72
542.80	519.60
542.97	472.79
543.14	440.02
543.31	489.17
543.48	552.37
543.64	545.34
543.81	491.51
543.98	465.77
544.15	507.90
544.32	489.17
544.48	388.53
544.65	428.32
544.82	369.80
544.99	458.74
545.16	535.98
545.32	524.28
545.49	751.31
545.66	910.47
545.83	947.92
546.00	896.43
546.16	777.06
546.33	543.00
546.50	528.96
546.67	486.83
546.83	526.62
547.00	447.04
547.17	362.78
547.34	383.85
547.50	409.59
547.67	414.27
547.84	418.96
548.00	351.08
548.17	348.74
548.34	367.46
548.51	358.10
548.67	414.27
548.84	383.85
549.01	327.68
549.18	330.02
549.34	393.21
549.51	369.80
549.68	318.31
549.84	411.93
550.01	290.23
550.18	411.93
550.34	308.95
550.51	346.40
550.68	367.46
550.84	311.29
551.01	273.84
551.18	294.91
551.34	330.02
551.51	283.20
551.68	273.84
551.84	355.76
552.01	327.68
552.18	287.89
552.34	346.40
552.51	220.01
552.68	308.95
552.84	341.72
553.01	318.31
553.18	241.08
553.34	217.67
553.51	236.39
553.67	308.95
553.84	386.19
554.01	278.52
554.17	297.25
554.34	234.05
554.51	294.91
554.67	337.04
554.84	337.04
555.00	269.16
555.17	358.10
555.33	297.25
555.50	308.95
555.67	311.29
555.83	252.78
556.00	306.61
556.16	433.00
556.33	290.23
556.50	311.29
556.66	297.25
556.83	243.42
556.99	290.23
557.16	372.15
557.32	339.38
557.49	276.18
557.65	257.46
557.82	266.82
557.98	306.61
558.15	210.65
558.32	299.59
558.48	257.46
558.65	287.89
558.81	287.89
558.98	271.50
559.14	262.14
559.31	231.71
559.47	301.93
559.64	271.50
559.80	210.65
559.97	243.42
560.13	315.97
560.30	231.71
560.46	262.14
560.63	264.48
560.79	224.69
560.96	301.93
561.12	327.68
561.29	280.86
561.45	308.95
561.61	283.20
561.78	360.44
561.94	231.71
562.11	264.48
562.27	262.14
562.44	273.84
562.60	280.86
562.77	252.78
562.93	294.91
563.10	273.84
563.26	259.80
563.42	306.61
563.59	320.65
563.75	276.18
563.92	297.25
564.08	290.23
564.24	327.68
564.41	294.91
564.57	259.80
564.74	229.37
564.90	325.33
565.07	294.91
565.23	388.53
565.39	248.10
565.56	271.50
565.72	348.74
565.88	308.95
566.05	299.59
566.21	301.93
566.38	322.99
566.54	231.71
566.70	243.42
566.87	259.80
567.03	259.80
567.19	227.03
567.36	212.99
567.52	196.60
567.68	269.16
567.85	327.68
568.01	308.95
568.17	222.35
568.34	273.84
568.50	290.23
568.66	224.69
568.83	376.83
568.99	294.91
569.15	290.23
569.32	234.05
569.48	276.18
569.64	257.46
569.81	234.05
569.97	227.03
570.13	294.91
570.30	362.78
570.46	290.23
570.62	259.80
570.78	264.48
570.95	243.42
571.11	252.78
571.27	379.17
571.43	243.42
571.60	259.80
571.76	238.73
571.92	163.84
572.09	264.48
572.25	262.14
572.41	306.61
572.57	212.99
572.74	220.01
572.90	255.12
573.06	243.42
573.22	220.01
573.38	315.97
573.55	278.52
573.71	299.59
573.87	269.16
574.03	292.57
574.20	217.67
574.36	325.33
574.52	369.80
574.68	311.29
574.84	388.53
575.01	252.78
575.17	381.51
575.33	259.80
575.49	339.38
575.65	292.57
575.82	372.15
575.98	528.96
576.14	739.61
576.30	720.88
576.46	676.41
576.62	510.24
576.79	500.87
576.95	407.25
577.11	353.42
577.27	255.12
577.43	308.95
577.59	341.72
577.75	262.14
577.92	315.97
578.08	379.17
578.24	369.80
578.40	337.04
578.56	454.06
578.72	430.66
578.88	402.57
579.04	379.17
579.21	395.55
579.37	358.10
579.53	383.85
579.69	505.56
579.85	301.93
580.01	458.74
580.17	360.44
580.33	362.78
580.49	451.72
580.65	428.32
580.82	390.87
580.98	379.17
581.14	390.87
581.30	416.62
581.46	430.66
581.62	601.52
581.78	669.39
581.94	622.58
582.10	585.13
582.26	500.87
582.42	538.32
582.58	521.94
582.74	484.49
582.90	475.13
583.06	507.90
583.22	472.79
583.38	475.13
583.54	519.60
583.70	674.07
583.86	669.39
584.02	784.08
584.18	1013.45
584.34	1221.76
584.50	3239.30
584.66	22970.02
584.82	54279.36
584.98	63337.24
585.14	60324.97
585.30	44863.39
585.46	27199.37
585.62	16774.62
585.78	7662.91
585.94	3176.11
586.10	1582.20
586.26	1142.18
586.42	863.66
586.58	760.67
586.74	683.44
586.90	603.86
587.06	692.80
587.22	631.94
587.38	559.39
587.54	1179.63
587.70	3276.75
587.86	5397.28
588.02	5799.85
588.18	4046.79
588.34	2785.24
588.49	1760.08
588.65	1135.16
588.81	678.76
588.97	383.85
589.13	362.78
589.29	339.38
589.45	393.21
589.61	395.55
589.77	400.23
589.93	507.90
590.08	526.62
590.24	475.13
590.40	512.58
590.56	458.74
590.72	447.04
590.88	421.30
591.04	411.93
591.20	397.89
591.35	383.85
591.51	407.25
591.67	376.83
591.83	381.51
591.99	463.43
592.15	456.40
592.31	355.76
592.46	411.93
592.62	388.53
592.78	325.33
592.94	362.78
593.10	369.80
593.26	348.74
593.41	444.70
593.57	440.02
593.73	723.23
593.89	2888.22
594.05	6829.68
594.20	10125.16
594.36	9408.95
594.52	6274.98
594.68	3913.38
594.84	2698.64
594.99	1511.99
595.15	758.33
595.31	477.47
595.47	404.91
595.62	425.98
595.78	322.99
595.94	379.17
596.10	386.19
596.25	402.57
596.41	437.68
596.57	393.21
596.73	353.42
596.88	725.57
597.04	1444.11
597.20	2239.89
597.36	2621.40
597.51	1968.39
597.67	1287.29
597.83	985.37
597.99	676.41
598.14	489.17
598.30	397.89
598.46	358.10
598.61	428.32
598.77	369.80
598.93	395.55
599.09	348.74
599.24	341.72
599.40	294.91
599.56	264.48
599.71	322.99
599.87	376.83
600.03	304.27
600.18	315.97
600.34	330.02
600.50	255.12
600.65	304.27
600.81	332.36
600.97	259.80
601.12	325.33
601.28	299.59
601.44	334.70
601.59	264.48
601.75	367.46
601.91	285.55
602.06	348.74
602.22	472.79
602.37	674.07
602.53	1633.69
602.69	2525.44
602.84	2513.74
603.00	2017.54
603.16	1387.94
603.31	1025.15
603.47	713.86
603.62	486.83
603.78	381.51
603.94	418.96
604.09	360.44
604.25	372.15
604.40	215.33
604.56	301.93
604.71	278.52
604.87	285.55
605.03	330.02
605.18	311.29
605.34	339.38
605.49	341.72
605.65	400.23
605.80	299.59
605.96	346.40
606.12	386.19
606.27	407.25
606.43	330.02
606.58	421.30
606.74	800.46
606.89	3246.32
607.05	6483.28
607.20	8690.41
607.36	7187.79
607.51	4833.21
607.67	3129.30
607.82	2157.97
607.98	1221.76
608.13	765.36
608.29	489.17
608.44	517.26
608.60	526.62
608.75	620.24
608.91	1114.10
609.06	5137.48
609.22	11075.42
609.37	14785.16
609.53	13310.63
609.68	8664.66
609.84	5708.57
609.99	3845.50
610.15	2129.89
610.30	1219.42
610.46	947.92
610.61	861.32
610.76	952.60
610.92	1011.11
611.07	966.64
611.23	976.00
611.38	992.39
611.54	915.15
611.69	812.17
611.84	676.41
612.00	615.56
612.15	613.22
612.31	713.86
612.46	844.93
612.62	858.98
612.77	828.55
612.92	823.87
613.08	791.10
613.23	709.18
613.39	718.54
613.54	959.62
613.69	4753.63
613.85	14071.30
614.00	22005.72
614.15	23243.86
614.31	16245.66
614.46	10977.11
614.62	7302.47
614.77	4327.65
614.92	2132.23
615.08	1071.97
615.23	798.12
615.38	559.39
615.54	557.05
615.69	1036.86
615.84	2792.26
616.00	4954.91
616.15	6235.19
616.30	5055.56
616.46	3644.21
616.61	2338.20
616.76	1771.79
616.92	1001.75
617.07	606.20
617.22	390.87
617.37	414.27
617.53	407.25
617.68	360.44
617.83	346.40
617.99	437.68
618.14	437.68
618.29	381.51
618.45	325.33
618.60	332.36
618.75	306.61
618.90	234.05
619.06	306.61
619.21	367.46
619.36	266.82
619.51	208.31
619.67	313.63
619.82	177.88
619.97	271.50
620.12	381.51
620.28	292.57
620.43	365.12
620.58	355.76
620.73	369.80
620.89	355.76
621.04	557.05
621.19	1530.71
621.34	2759.49
621.49	3695.71
621.65	3248.66
621.80	2345.22
621.95	1631.35
622.10	1203.04
622.25	692.80
622.41	500.87
622.56	418.96
622.71	390.87
622.86	318.31
623.01	262.14
623.16	271.50
623.32	299.59
623.47	339.38
623.62	353.42
623.77	287.89
623.92	250.44
624.07	313.63
624.23	311.29
624.38	299.59
624.53	397.89
624.68	339.38
624.83	344.06
624.98	285.55
625.13	320.65
625.29	327.68
625.44	315.97
625.59	416.62
625.74	383.85
625.89	606.20
626.04	2272.66
626.19	6717.34
626.34	10569.86
626.49	12131.00
626.65	8767.65
626.80	5940.28
626.95	4002.32
627.10	2626.08
627.25	1291.98
627.40	737.27
627.55	341.72
627.70	428.32
627.85	388.53
628.00	292.57
628.15	269.16
628.30	243.42
628.45	304.27
628.60	320.65
628.76	257.46
628.91	308.95
629.06	273.84
629.21	337.04
629.36	334.70
629.51	355.76
629.66	393.21
629.81	472.79
629.96	1329.42
630.11	2387.35
630.26	3197.17
630.41	2799.28
630.56	2019.88
630.71	1462.83
630.86	1001.75
631.01	653.01
631.16	407.25
631.31	395.55
631.46	393.21
631.61	379.17
631.76	369.80
631.91	360.44
632.06	397.89
632.21	369.80
632.36	409.59
632.51	425.98
632.66	421.30
632.81	1207.72
632.96	3625.49
633.10	6597.97
633.25	8250.39
633.40	6686.91
633.55	4755.97
633.70	3103.55
633.85	2076.06
634.00	1174.95
634.15	631.94
634.30	390.87
634.45	381.51
634.60	348.74
634.75	297.25
634.90	262.14
635.05	327.68
635.19	271.50
635.34	318.31
635.49	358.10
635.64	320.65
635.79	208.31
635.94	203.63
636.09	355.76
636.24	278.52
636.39	280.86
636.53	348.74
636.68	353.42
636.83	334.70
636.98	367.46
637.13	294.91
637.28	365.12
637.43	517.26
637.57	683.44
637.72	3063.76
637.87	8671.68
638.02	13451.06
638.17	15094.11
638.32	11023.92
638.46	7611.42
638.61	5174.92
638.76	3023.97
638.91	1710.93
639.06	877.70
639.20	669.39
639.35	589.82
639.50	957.28
639.65	4627.24
639.80	13128.06
639.94	21188.87
640.09	23239.18
640.24	17277.83
640.39	11714.38
640.54	7737.81
640.68	4760.65
640.83	2352.24
640.98	1095.37
641.13	664.71
641.27	444.70
641.42	400.23
641.57	381.51
641.72	283.20
641.86	362.78
642.01	348.74
642.16	355.76
642.31	290.23
642.45	252.78
642.60	290.23
642.75	163.84
642.90	299.59
643.04	266.82
643.19	367.46
643.34	278.52
643.48	217.67
643.63	231.71
643.78	238.73
643.93	283.20
644.07	264.48
644.22	311.29
644.37	187.24
644.51	273.84
644.66	322.99
644.81	241.08
644.95	262.14
645.10	292.57
645.25	304.27
645.39	290.23
645.54	177.88
645.69	276.18
645.83	224.69
645.98	257.46
646.13	266.82
646.27	231.71
646.42	208.31
646.57	243.42
646.71	147.45
646.86	248.10
647.00	330.02
647.15	252.78
647.30	184.90
647.44	257.46
647.59	306.61
647.74	173.20
647.88	215.33
648.03	245.76
648.17	212.99
648.32	229.37
648.47	278.52
648.61	273.84
648.76	215.33
648.90	271.50
649.05	271.50
649.20	224.69
649.34	313.63
649.49	222.35
649.63	297.25
649.78	269.16
649.92	461.09
650.07	1820.94
650.21	5504.94
650.36	9848.97
650.51	11901.62
650.65	10012.81
650.80	6991.18
650.94	4709.16
651.09	2946.73
651.23	1507.30
651.38	748.97
651.52	510.24
651.67	304.27
651.81	304.27
651.96	383.85
652.10	271.50
652.25	231.71
652.39	332.36
652.54	358.10
652.68	608.54
652.83	1919.24
652.97	3328.24
653.12	4308.93
653.26	3894.65
653.41	2759.49
653.55	2022.22
653.70	1338.79
653.84	760.67
653.99	456.40
654.13	271.50
654.27	285.55
654.42	320.65
654.56	294.91
654.71	266.82
654.85	283.20
655.00	297.25
655.14	243.42
655.29	184.90
655.43	259.80
655.57	271.50
655.72	224.69
655.86	227.03
656.01	278.52
656.15	191.92
656.30	229.37
656.44	208.31
656.58	168.52
656.73	191.92
656.87	210.65
657.01	257.46
657.16	255.12
657.30	175.54
657.45	262.14
657.59	287.89
657.73	262.14
657.88	257.46
658.02	278.52
658.16	280.86
658.31	269.16
658.45	210.65
658.60	243.42
658.74	276.18
658.88	269.16
659.03	241.08
659.17	283.20
659.31	880.04
659.46	2574.59
659.60	4784.06
659.74	5975.39
659.89	5268.55
660.03	3887.63
660.17	2637.78
660.32	1643.06
660.46	961.96
660.60	585.13
660.74	475.13
660.89	355.76
661.03	255.12
661.17	290.23
661.32	229.37
661.46	234.05
661.60	280.86
661.74	259.80
661.89	276.18
662.03	180.22
662.17	217.67
662.31	259.80
662.46	124.05
662.60	217.67
662.74	285.55
662.88	138.09
663.03	210.65
663.17	283.20
663.31	212.99
663.45	287.89
663.60	231.71
663.74	227.03
663.88	245.76
664.02	255.12
664.17	241.08
664.31	198.95
664.45	180.22
664.59	301.93
664.73	220.01
664.88	311.29
665.02	182.56
665.16	315.97
665.30	292.57
665.44	238.73
665.59	250.44
665.73	243.42
665.87	259.80
666.01	177.88
666.15	248.10
666.29	166.18
666.44	259.80
666.58	339.38
666.72	243.42
666.86	292.57
667.00	315.97
667.14	468.11
667.28	1685.19
667.43	4781.71
667.57	8236.35
667.71	10422.41
667.85	8875.31
667.99	6530.09
668.13	4140.41
668.27	2469.27
668.41	1430.07
668.56	788.76
668.70	592.16
668.84	449.38
668.98	430.66
669.12	205.97
669.26	332.36
669.40	306.61
669.54	217.67
669.68	264.48
669.82	243.42
669.96	278.52
670.10	222.35
670.25	238.73
670.39	266.82
670.53	217.67
670.67	294.91
670.81	236.39
670.95	285.55
671.09	496.19
671.23	1912.22
671.37	3950.82
671.51	5865.38
671.65	6534.78
671.79	5252.16
671.93	3557.61
672.07	2286.70
672.21	1310.70
672.35	777.06
672.49	430.66
672.63	372.15
672.77	283.20
672.91	262.14
673.05	287.89
673.19	205.97
673.33	231.71
673.47	266.82
673.61	290.23
673.75	177.88
673.89	224.69
674.03	212.99
674.17	196.60
674.31	128.73
674.45	250.44
674.59	273.84
674.73	276.18
674.87	248.10
675.01	266.82
675.15	315.97
675.29	234.05
675.43	320.65
675.56	311.29
675.70	191.92
675.84	222.35
675.98	210.65
676.12	217.67
676.26	241.08
676.40	205.97
676.54	208.31
676.68	175.54
676.82	231.71
676.96	196.60
677.10	238.73
677.23	138.09
677.37	236.39
677.51	210.65
677.65	212.99
677.79	147.45
677.93	180.22
678.07	152.13
678.21	131.07
678.34	259.80
678.48	194.26
678.62	152.13
678.76	173.20
678.90	112.35
679.04	184.90
679.18	138.09
679.31	170.86
679.45	117.03
679.59	159.16
679.73	196.60
679.87	140.43
680.00	257.46
680.14	147.45
680.28	248.10
680.42	177.88
680.56	208.31
680.70	255.12
680.83	245.76
680.97	166.18
681.11	166.18
681.25	241.08
681.39	121.71
681.52	187.24
681.66	241.08
681.80	241.08
681.94	252.78
682.07	175.54
682.21	222.35
682.35	152.13
682.49	102.98
682.62	173.20
682.76	182.56
682.90	107.66
683.04	156.82
683.17	227.03
683.31	201.29
683.45	238.73
683.59	210.65
683.72	250.44
683.86	196.60
684.00	161.50
684.13	224.69
684.27	287.89
684.41	173.20
684.55	224.69
684.68	170.86
684.82	102.98
684.96	161.50
685.09	215.33
685.23	269.16
685.37	81.92
685.50	248.10
685.64	191.92
685.78	149.79
685.91	215.33
686.05	140.43
686.19	238.73
686.32	152.13
686.46	215.33
686.60	208.31
686.73	285.55
686.87	276.18
687.01	241.08
687.14	210.65
687.28	220.01
687.42	152.13
687.55	236.39
687.69	273.84
687.82	182.56
687.96	124.05
688.10	217.67
688.23	114.69
688.37	210.65
688.50	154.48
688.64	180.22
688.78	154.48
688.91	133.41
689.05	212.99
689.18	184.90
689.32	205.97
689.46	149.79
689.59	175.54
689.73	133.41
689.86	175.54
690.00	234.05
690.13	196.60
690.27	131.07
690.41	198.95
690.54	234.05
690.68	173.20
690.81	170.86
690.95	187.24
691.08	117.03
691.22	215.33
691.35	248.10
691.49	168.52
691.62	217.67
691.76	229.37
691.89	198.95
692.03	173.20
692.16	217.67
692.30	243.42
692.43	718.54
692.57	1991.80
692.70	3545.91
692.84	4332.33
692.97	4070.19
693.11	3091.85
693.24	2246.91
693.38	1507.30
693.51	1067.28
693.65	737.27
693.78	498.53
693.92	369.80
694.05	315.97
694.19	203.63
694.32	255.12
694.45	194.26
694.59	238.73
694.72	175.54
694.86	189.58
694.99	217.67
695.13	161.50
695.26	159.16
695.39	175.54
695.53	257.46
695.66	168.52
695.80	238.73
695.93	142.77
696.07	243.42
696.20	337.04
696.33	339.38
696.47	416.62
696.60	442.36
696.73	379.17
696.87	294.91
697.00	198.95
697.14	220.01
697.27	220.01
697.40	245.76
697.54	126.39
697.67	128.73
697.80	124.05
697.94	131.07
698.07	175.54
698.21	229.37
698.34	187.24
698.47	131.07
698.61	170.86
698.74	224.69
698.87	217.67
699.01	210.65
699.14	177.88
699.27	159.16
699.40	243.42
699.54	184.90
699.67	243.42
699.80	114.69
699.94	154.48
700.07	215.33
700.20	245.76
700.34	175.54
700.47	191.92
700.60	194.26
700.73	210.65
700.87	210.65
701.00	189.58
701.13	135.75
701.26	86.60
701.40	189.58
701.53	208.31
701.66	128.73
701.79	217.67
701.93	227.03
702.06	292.57
702.19	367.46
702.32	404.91
702.46	442.36
702.59	500.87
702.72	823.87
702.85	2455.22
702.99	5380.89
703.12	7585.68
703.25	8561.68
703.38	7482.69
703.51	5984.75
703.65	4652.98
703.78	3159.72
703.91	2113.50
704.04	1366.87
704.17	863.66
704.31	585.13
704.44	404.91
704.57	231.71
704.70	290.23
704.83	252.78
704.96	283.20
705.10	182.56
705.23	198.95
>>>>>End Processed Spectral Data<<<<<
