SpectraSuite Data File
++++++++++++++++++++++++++++++++++++
Date: Fri Oct 04 11:33:44 GMT-05:00 2013
User: price-jones
Dark Spectrum Present: No
Reference Spectrum Present: No
Number of Sampled Component Spectra: 1
Spectrometers: USB2+H05261
Integration Time (usec): 100000 (USB2+H05261)
Spectra Averaged: 1 (USB2+H05261)
Boxcar Smoothing: 0 (USB2+H05261)
Correct for Electrical Dark: No (USB2+H05261)
Strobe/Lamp Enabled: No (USB2+H05261)
Correct for Detector Non-linearity: No (USB2+H05261)
Correct for Stray Light: No (USB2+H05261)
Number of Pixels in Processed Spectrum: 2048
>>>>>Begin Processed Spectral Data<<<<<
365.73	51.49
365.92	51.49
366.12	51.49
366.32	0.00
366.52	0.00
366.72	25.75
366.91	0.00
367.11	0.00
367.31	0.00
367.51	0.00
367.70	0.00
367.90	0.00
368.10	0.00
368.30	0.00
368.49	0.00
368.69	25.75
368.89	0.00
369.09	0.00
369.28	0.00
369.48	16.38
369.68	0.00
369.87	0.00
370.07	30.43
370.27	65.54
370.47	70.22
370.66	72.56
370.86	100.64
371.06	102.98
371.25	135.75
371.45	102.98
371.65	152.13
371.84	107.66
372.04	67.88
372.24	161.50
372.44	152.13
372.63	110.01
372.83	135.75
373.03	154.48
373.22	142.77
373.42	81.92
373.62	217.67
373.81	198.95
374.01	140.43
374.21	135.75
374.40	140.43
374.60	217.67
374.79	161.50
374.99	79.58
375.19	119.37
375.38	191.92
375.58	163.84
375.78	177.88
375.97	194.26
376.17	159.16
376.37	138.09
376.56	135.75
376.76	154.48
376.95	170.86
377.15	117.03
377.35	149.79
377.54	105.32
377.74	114.69
377.93	77.24
378.13	145.11
378.33	170.86
378.52	84.26
378.72	156.82
378.91	177.88
379.11	163.84
379.31	95.96
379.50	205.97
379.70	201.29
379.89	220.01
380.09	79.58
380.28	140.43
380.48	91.28
380.68	98.30
380.87	117.03
381.07	102.98
381.26	131.07
381.46	227.03
381.65	175.54
381.85	60.85
382.04	149.79
382.24	140.43
382.43	131.07
382.63	124.05
382.83	65.54
383.02	100.64
383.22	205.97
383.41	105.32
383.61	152.13
383.80	163.84
384.00	119.37
384.19	177.88
384.39	112.35
384.58	154.48
384.78	159.16
384.97	152.13
385.17	145.11
385.36	161.50
385.56	152.13
385.75	159.16
385.95	191.92
386.14	152.13
386.34	72.56
386.53	156.82
386.72	175.54
386.92	182.56
387.11	126.39
387.31	98.30
387.50	147.45
387.70	95.96
387.89	126.39
388.09	187.24
388.28	121.71
388.48	166.18
388.67	142.77
388.86	154.48
389.06	131.07
389.25	105.32
389.45	156.82
389.64	180.22
389.84	133.41
390.03	166.18
390.22	100.64
390.42	100.64
390.61	117.03
390.81	180.22
391.00	142.77
391.19	196.60
391.39	140.43
391.58	166.18
391.78	142.77
391.97	149.79
392.16	112.35
392.36	140.43
392.55	203.63
392.75	88.94
392.94	135.75
393.13	140.43
393.33	84.26
393.52	147.45
393.71	152.13
393.91	152.13
394.10	112.35
394.29	161.50
394.49	84.26
394.68	198.95
394.88	168.52
395.07	175.54
395.26	124.05
395.46	187.24
395.65	161.50
395.84	189.58
396.04	189.58
396.23	145.11
396.42	145.11
396.62	175.54
396.81	184.90
397.00	84.26
397.19	152.13
397.39	93.62
397.58	119.37
397.77	154.48
397.97	156.82
398.16	138.09
398.35	142.77
398.55	128.73
398.74	215.33
398.93	161.50
399.12	152.13
399.32	147.45
399.51	88.94
399.70	147.45
399.90	203.63
400.09	177.88
400.28	220.01
400.47	191.92
400.67	189.58
400.86	166.18
401.05	142.77
401.24	156.82
401.44	112.35
401.63	180.22
401.82	227.03
402.01	112.35
402.21	149.79
402.40	166.18
402.59	95.96
402.78	135.75
402.97	196.60
403.17	156.82
403.36	156.82
403.55	107.66
403.74	224.69
403.93	168.52
404.13	191.92
404.32	166.18
404.51	161.50
404.70	187.24
404.89	39.79
405.09	217.67
405.28	145.11
405.47	145.11
405.66	198.95
405.85	182.56
406.05	131.07
406.24	156.82
406.43	163.84
406.62	95.96
406.81	168.52
407.00	217.67
407.20	168.52
407.39	163.84
407.58	93.62
407.77	163.84
407.96	126.39
408.15	191.92
408.34	133.41
408.54	126.39
408.73	191.92
408.92	231.71
409.11	248.10
409.30	170.86
409.49	161.50
409.68	133.41
409.87	67.88
410.07	191.92
410.26	166.18
410.45	159.16
410.64	100.64
410.83	149.79
411.02	128.73
411.21	217.67
411.40	152.13
411.59	168.52
411.78	175.54
411.98	121.71
412.17	238.73
412.36	168.52
412.55	126.39
412.74	105.32
412.93	212.99
413.12	180.22
413.31	222.35
413.50	161.50
413.69	152.13
413.88	262.14
414.07	187.24
414.26	259.80
414.45	142.77
414.64	196.60
414.83	152.13
415.02	180.22
415.22	210.65
415.41	154.48
415.60	102.98
415.79	135.75
415.98	205.97
416.17	161.50
416.36	100.64
416.55	126.39
416.74	212.99
416.93	198.95
417.12	147.45
417.31	102.98
417.50	187.24
417.69	234.05
417.88	154.48
418.07	184.90
418.26	152.13
418.45	147.45
418.64	266.82
418.83	236.39
419.02	187.24
419.21	163.84
419.39	238.73
419.58	170.86
419.77	220.01
419.96	182.56
420.15	222.35
420.34	177.88
420.53	194.26
420.72	215.33
420.91	236.39
421.10	95.96
421.29	187.24
421.48	196.60
421.67	255.12
421.86	182.56
422.05	140.43
422.24	124.05
422.43	114.69
422.61	196.60
422.80	208.31
422.99	152.13
423.18	117.03
423.37	177.88
423.56	142.77
423.75	177.88
423.94	79.58
424.13	145.11
424.32	187.24
424.50	124.05
424.69	154.48
424.88	203.63
425.07	168.52
425.26	189.58
425.45	159.16
425.64	180.22
425.83	184.90
426.01	306.61
426.20	119.37
426.39	191.92
426.58	201.29
426.77	98.30
426.96	215.33
427.15	152.13
427.33	112.35
427.52	198.95
427.71	133.41
427.90	152.13
428.09	152.13
428.28	37.45
428.46	191.92
428.65	210.65
428.84	229.37
429.03	166.18
429.22	196.60
429.40	168.52
429.59	187.24
429.78	210.65
429.97	126.39
430.16	105.32
430.34	149.79
430.53	152.13
430.72	128.73
430.91	255.12
431.10	147.45
431.28	173.20
431.47	210.65
431.66	121.71
431.85	133.41
432.03	212.99
432.22	224.69
432.41	124.05
432.60	191.92
432.79	222.35
432.97	264.48
433.16	255.12
433.35	231.71
433.54	217.67
433.72	234.05
433.91	220.01
434.10	236.39
434.28	262.14
434.47	117.03
434.66	250.44
434.85	184.90
435.03	196.60
435.22	351.08
435.41	418.96
435.59	414.27
435.78	318.31
435.97	236.39
436.16	191.92
436.34	154.48
436.53	224.69
436.72	201.29
436.90	180.22
437.09	212.99
437.28	187.24
437.46	126.39
437.65	208.31
437.84	187.24
438.02	210.65
438.21	273.84
438.40	180.22
438.58	140.43
438.77	126.39
438.96	184.90
439.14	154.48
439.33	180.22
439.52	152.13
439.70	191.92
439.89	196.60
440.08	147.45
440.26	201.29
440.45	180.22
440.63	173.20
440.82	196.60
441.01	140.43
441.19	217.67
441.38	203.63
441.57	198.95
441.75	196.60
441.94	301.93
442.12	149.79
442.31	140.43
442.50	203.63
442.68	145.11
442.87	217.67
443.05	152.13
443.24	152.13
443.43	220.01
443.61	217.67
443.80	234.05
443.98	194.26
444.17	163.84
444.35	217.67
444.54	189.58
444.73	283.20
444.91	229.37
445.10	215.33
445.28	110.01
445.47	191.92
445.65	212.99
445.84	159.16
446.02	224.69
446.21	222.35
446.39	119.37
446.58	224.69
446.77	224.69
446.95	191.92
447.14	196.60
447.32	222.35
447.51	180.22
447.69	220.01
447.88	215.33
448.06	154.48
448.25	126.39
448.43	217.67
448.62	131.07
448.80	196.60
448.99	187.24
449.17	229.37
449.36	161.50
449.54	236.39
449.73	189.58
449.91	182.56
450.10	208.31
450.28	264.48
450.46	252.78
450.65	180.22
450.83	203.63
451.02	212.99
451.20	168.52
451.39	189.58
451.57	149.79
451.76	173.20
451.94	243.42
452.13	191.92
452.31	231.71
452.49	149.79
452.68	170.86
452.86	217.67
453.05	142.77
453.23	201.29
453.42	135.75
453.60	180.22
453.78	189.58
453.97	161.50
454.15	180.22
454.34	262.14
454.52	201.29
454.70	212.99
454.89	189.58
455.07	163.84
455.26	180.22
455.44	166.18
455.62	198.95
455.81	163.84
455.99	175.54
456.17	180.22
456.36	205.97
456.54	117.03
456.73	152.13
456.91	173.20
457.09	208.31
457.28	154.48
457.46	140.43
457.64	182.56
457.83	173.20
458.01	201.29
458.19	217.67
458.38	198.95
458.56	248.10
458.74	266.82
458.93	238.73
459.11	201.29
459.29	163.84
459.48	142.77
459.66	212.99
459.84	229.37
460.03	257.46
460.21	264.48
460.39	168.52
460.57	145.11
460.76	166.18
460.94	145.11
461.12	203.63
461.31	229.37
461.49	191.92
461.67	187.24
461.85	173.20
462.04	133.41
462.22	636.63
462.40	189.58
462.59	138.09
462.77	229.37
462.95	208.31
463.13	187.24
463.32	205.97
463.50	215.33
463.68	163.84
463.86	142.77
464.05	163.84
464.23	196.60
464.41	173.20
464.59	184.90
464.78	198.95
464.96	205.97
465.14	191.92
465.32	182.56
465.50	220.01
465.69	273.84
465.87	208.31
466.05	184.90
466.23	189.58
466.41	255.12
466.60	140.43
466.78	149.79
466.96	205.97
467.14	222.35
467.32	236.39
467.51	135.75
467.69	203.63
467.87	262.14
468.05	133.41
468.23	259.80
468.41	212.99
468.60	203.63
468.78	234.05
468.96	266.82
469.14	166.18
469.32	138.09
469.50	161.50
469.69	173.20
469.87	175.54
470.05	222.35
470.23	182.56
470.41	140.43
470.59	215.33
470.77	290.23
470.95	255.12
471.14	212.99
471.32	161.50
471.50	198.95
471.68	220.01
471.86	149.79
472.04	173.20
472.22	156.82
472.40	170.86
472.58	212.99
472.77	161.50
472.95	248.10
473.13	273.84
473.31	266.82
473.49	159.16
473.67	166.18
473.85	201.29
474.03	212.99
474.21	187.24
474.39	250.44
474.57	255.12
474.75	177.88
474.93	177.88
475.12	133.41
475.30	205.97
475.48	220.01
475.66	238.73
475.84	278.52
476.02	217.67
476.20	236.39
476.38	262.14
476.56	266.82
476.74	238.73
476.92	227.03
477.10	156.82
477.28	262.14
477.46	229.37
477.64	250.44
477.82	203.63
478.00	168.52
478.18	177.88
478.36	231.71
478.54	205.97
478.72	154.48
478.90	198.95
479.08	250.44
479.26	133.41
479.44	196.60
479.62	187.24
479.80	121.71
479.98	128.73
480.16	215.33
480.34	266.82
480.52	159.16
480.70	231.71
480.88	243.42
481.06	138.09
481.24	184.90
481.41	229.37
481.59	248.10
481.77	184.90
481.95	234.05
482.13	278.52
482.31	243.42
482.49	184.90
482.67	231.71
482.85	276.18
483.03	269.16
483.21	227.03
483.39	166.18
483.57	198.95
483.74	318.31
483.92	177.88
484.10	170.86
484.28	255.12
484.46	257.46
484.64	161.50
484.82	168.52
485.00	234.05
485.18	159.16
485.35	243.42
485.53	154.48
485.71	257.46
485.89	201.29
486.07	245.76
486.25	355.76
486.43	238.73
486.61	280.86
486.78	208.31
486.96	220.01
487.14	250.44
487.32	266.82
487.50	215.33
487.68	245.76
487.85	250.44
488.03	313.63
488.21	276.18
488.39	243.42
488.57	250.44
488.75	191.92
488.92	477.47
489.10	264.48
489.28	220.01
489.46	220.01
489.64	191.92
489.81	278.52
489.99	257.46
490.17	241.08
490.35	285.55
490.53	227.03
490.70	229.37
490.88	325.33
491.06	250.44
491.24	217.67
491.41	276.18
491.59	229.37
491.77	250.44
491.95	248.10
492.13	189.58
492.30	236.39
492.48	304.27
492.66	182.56
492.84	250.44
493.01	234.05
493.19	234.05
493.37	220.01
493.54	292.57
493.72	290.23
493.90	196.60
494.08	215.33
494.25	234.05
494.43	264.48
494.61	217.67
494.79	203.63
494.96	248.10
495.14	170.86
495.32	212.99
495.49	278.52
495.67	320.65
495.85	227.03
496.02	152.13
496.20	229.37
496.38	292.57
496.55	236.39
496.73	234.05
496.91	196.60
497.09	287.89
497.26	262.14
497.44	313.63
497.62	243.42
497.79	266.82
497.97	220.01
498.14	266.82
498.32	257.46
498.50	236.39
498.67	229.37
498.85	184.90
499.03	269.16
499.20	252.78
499.38	229.37
499.56	273.84
499.73	252.78
499.91	266.82
500.08	255.12
500.26	259.80
500.44	236.39
500.61	278.52
500.79	245.76
500.97	236.39
501.14	313.63
501.32	231.71
501.49	276.18
501.67	229.37
501.84	205.97
502.02	243.42
502.20	234.05
502.37	168.52
502.55	184.90
502.72	264.48
502.90	231.71
503.07	351.08
503.25	252.78
503.43	294.91
503.60	210.65
503.78	236.39
503.95	285.55
504.13	236.39
504.30	227.03
504.48	280.86
504.65	290.23
504.83	299.59
505.01	191.92
505.18	205.97
505.36	238.73
505.53	252.78
505.71	264.48
505.88	306.61
506.06	269.16
506.23	205.97
506.41	189.58
506.58	198.95
506.76	191.92
506.93	276.18
507.11	248.10
507.28	231.71
507.46	180.22
507.63	294.91
507.81	170.86
507.98	266.82
508.16	224.69
508.33	271.50
508.50	271.50
508.68	205.97
508.85	245.76
509.03	229.37
509.20	255.12
509.38	280.86
509.55	294.91
509.73	273.84
509.90	257.46
510.08	278.52
510.25	224.69
510.42	215.33
510.60	273.84
510.77	304.27
510.95	311.29
511.12	294.91
511.30	306.61
511.47	294.91
511.64	297.25
511.82	245.76
511.99	290.23
512.17	194.26
512.34	229.37
512.51	170.86
512.69	330.02
512.86	259.80
513.04	212.99
513.21	222.35
513.38	236.39
513.56	313.63
513.73	255.12
513.90	262.14
514.08	280.86
514.25	311.29
514.43	264.48
514.60	217.67
514.77	273.84
514.95	287.89
515.12	236.39
515.29	224.69
515.47	290.23
515.64	238.73
515.81	262.14
515.99	299.59
516.16	255.12
516.33	250.44
516.51	208.31
516.68	236.39
516.85	255.12
517.03	266.82
517.20	266.82
517.37	220.01
517.54	273.84
517.72	229.37
517.89	243.42
518.06	194.26
518.24	273.84
518.41	306.61
518.58	276.18
518.75	325.33
518.93	285.55
519.10	294.91
519.27	322.99
519.45	320.65
519.62	290.23
519.79	224.69
519.96	163.84
520.14	273.84
520.31	285.55
520.48	285.55
520.65	250.44
520.83	241.08
521.00	259.80
521.17	332.36
521.34	243.42
521.52	269.16
521.69	264.48
521.86	255.12
522.03	205.97
522.20	276.18
522.38	257.46
522.55	262.14
522.72	234.05
522.89	201.29
523.07	306.61
523.24	301.93
523.41	201.29
523.58	238.73
523.75	243.42
523.92	238.73
524.10	276.18
524.27	257.46
524.44	229.37
524.61	227.03
524.78	273.84
524.96	229.37
525.13	255.12
525.30	205.97
525.47	285.55
525.64	276.18
525.81	273.84
525.98	287.89
526.16	187.24
526.33	224.69
526.50	194.26
526.67	215.33
526.84	189.58
527.01	243.42
527.18	250.44
527.36	306.61
527.53	224.69
527.70	264.48
527.87	315.97
528.04	280.86
528.21	264.48
528.38	294.91
528.55	311.29
528.72	341.72
528.89	383.85
529.07	308.95
529.24	271.50
529.41	334.70
529.58	290.23
529.75	287.89
529.92	238.73
530.09	259.80
530.26	278.52
530.43	238.73
530.60	189.58
530.77	245.76
530.94	308.95
531.11	201.29
531.28	212.99
531.46	241.08
531.63	217.67
531.80	255.12
531.97	215.33
532.14	273.84
532.31	227.03
532.48	283.20
532.65	224.69
532.82	367.46
532.99	374.49
533.16	383.85
533.33	339.38
533.50	283.20
533.67	318.31
533.84	411.93
534.01	442.36
534.18	322.99
534.35	386.19
534.52	320.65
534.69	320.65
534.86	273.84
535.03	227.03
535.20	299.59
535.37	292.57
535.54	266.82
535.71	245.76
535.88	311.29
536.05	273.84
536.22	325.33
536.38	318.31
536.55	278.52
536.72	388.53
536.89	344.06
537.06	292.57
537.23	234.05
537.40	341.72
537.57	301.93
537.74	344.06
537.91	273.84
538.08	376.83
538.25	285.55
538.42	327.68
538.59	325.33
538.75	287.89
538.92	337.04
539.09	320.65
539.26	320.65
539.43	435.34
539.60	866.00
539.77	1273.25
539.94	1275.59
540.11	917.49
540.28	706.84
540.44	587.47
540.61	430.66
540.78	510.24
540.95	418.96
541.12	503.22
541.29	411.93
541.46	538.32
541.62	442.36
541.79	402.57
541.96	437.68
542.13	538.32
542.30	421.30
542.47	433.00
542.63	404.91
542.80	437.68
542.97	454.06
543.14	407.25
543.31	451.72
543.48	454.06
543.64	461.09
543.81	475.13
543.98	440.02
544.15	411.93
544.32	433.00
544.48	428.32
544.65	451.72
544.82	433.00
544.99	449.38
545.16	498.53
545.32	514.92
545.49	648.33
545.66	753.65
545.83	760.67
546.00	627.26
546.16	575.77
546.33	496.19
546.50	428.32
546.67	379.17
546.83	365.12
547.00	322.99
547.17	325.33
547.34	353.42
547.50	374.49
547.67	330.02
547.84	374.49
548.00	395.55
548.17	348.74
548.34	339.38
548.51	381.51
548.67	421.30
548.84	348.74
549.01	386.19
549.18	360.44
549.34	332.36
549.51	311.29
549.68	393.21
549.84	351.08
550.01	369.80
550.18	435.34
550.34	404.91
550.51	390.87
550.68	353.42
550.84	322.99
551.01	327.68
551.18	229.37
551.34	266.82
551.51	353.42
551.68	276.18
551.84	304.27
552.01	334.70
552.18	341.72
552.34	250.44
552.51	255.12
552.68	283.20
552.84	322.99
553.01	259.80
553.18	245.76
553.34	266.82
553.51	243.42
553.67	283.20
553.84	362.78
554.01	376.83
554.17	334.70
554.34	250.44
554.51	283.20
554.67	257.46
554.84	194.26
555.00	262.14
555.17	259.80
555.33	285.55
555.50	313.63
555.67	252.78
555.83	248.10
556.00	301.93
556.16	423.64
556.33	287.89
556.50	191.92
556.66	259.80
556.83	306.61
556.99	250.44
557.16	248.10
557.32	262.14
557.49	278.52
557.65	322.99
557.82	287.89
557.98	299.59
558.15	248.10
558.32	330.02
558.48	205.97
558.65	227.03
558.81	255.12
558.98	320.65
559.14	313.63
559.31	280.86
559.47	320.65
559.64	252.78
559.80	238.73
559.97	166.18
560.13	238.73
560.30	243.42
560.46	248.10
560.63	196.60
560.79	269.16
560.96	224.69
561.12	245.76
561.29	222.35
561.45	210.65
561.61	290.23
561.78	292.57
561.94	266.82
562.11	280.86
562.27	276.18
562.44	208.31
562.60	294.91
562.77	248.10
562.93	311.29
563.10	238.73
563.26	170.86
563.42	252.78
563.59	271.50
563.75	285.55
563.92	299.59
564.08	276.18
564.24	313.63
564.41	266.82
564.57	278.52
564.74	210.65
564.90	306.61
565.07	252.78
565.23	325.33
565.39	196.60
565.56	278.52
565.72	287.89
565.88	276.18
566.05	238.73
566.21	210.65
566.38	301.93
566.54	301.93
566.70	278.52
566.87	276.18
567.03	264.48
567.19	304.27
567.36	306.61
567.52	222.35
567.68	241.08
567.85	285.55
568.01	259.80
568.17	273.84
568.34	229.37
568.50	311.29
568.66	313.63
568.83	332.36
568.99	245.76
569.15	252.78
569.32	250.44
569.48	259.80
569.64	156.82
569.81	292.57
569.97	241.08
570.13	215.33
570.30	262.14
570.46	201.29
570.62	196.60
570.78	255.12
570.95	229.37
571.11	259.80
571.27	341.72
571.43	236.39
571.60	299.59
571.76	276.18
571.92	266.82
572.09	250.44
572.25	255.12
572.41	248.10
572.57	224.69
572.74	320.65
572.90	315.97
573.06	320.65
573.22	315.97
573.38	325.33
573.55	276.18
573.71	229.37
573.87	208.31
574.03	259.80
574.20	255.12
574.36	358.10
574.52	341.72
574.68	379.17
574.84	341.72
575.01	271.50
575.17	259.80
575.33	208.31
575.49	280.86
575.65	393.21
575.82	330.02
575.98	547.69
576.14	603.86
576.30	653.01
576.46	589.82
576.62	503.22
576.79	437.68
576.95	393.21
577.11	311.29
577.27	280.86
577.43	255.12
577.59	278.52
577.75	222.35
577.92	313.63
578.08	306.61
578.24	287.89
578.40	344.06
578.56	407.25
578.72	404.91
578.88	465.77
579.04	414.27
579.21	388.53
579.37	341.72
579.53	255.12
579.69	358.10
579.85	318.31
580.01	458.74
580.17	355.76
580.33	400.23
580.49	369.80
580.65	379.17
580.82	409.59
580.98	353.42
581.14	320.65
581.30	355.76
581.46	355.76
581.62	564.07
581.78	592.16
581.94	543.00
582.10	589.82
582.26	416.62
582.42	440.02
582.58	360.44
582.74	393.21
582.90	456.40
583.06	437.68
583.22	397.89
583.38	533.64
583.54	538.32
583.70	594.50
583.86	664.71
584.02	685.78
584.18	786.42
584.34	1036.86
584.50	2595.65
584.66	17759.98
584.82	46174.09
584.98	57778.46
585.14	54372.99
585.30	37193.45
585.46	21720.17
585.62	13584.47
585.78	6237.53
585.94	2635.44
586.10	1364.53
586.26	922.17
586.42	814.51
586.58	592.16
586.74	589.82
586.90	578.11
587.06	587.47
587.22	606.20
587.38	608.54
587.54	957.28
587.70	2675.23
587.86	4353.40
588.02	4741.93
588.18	3454.63
588.34	2136.91
588.49	1544.75
588.65	1011.11
588.81	582.79
588.97	376.83
589.13	353.42
589.29	365.12
589.45	355.76
589.61	372.15
589.77	447.04
589.93	395.55
590.08	510.24
590.24	423.64
590.40	461.09
590.56	388.53
590.72	425.98
590.88	292.57
591.04	393.21
591.20	341.72
591.35	374.49
591.51	386.19
591.67	290.23
591.83	362.78
591.99	414.27
592.15	234.05
592.31	365.12
592.46	365.12
592.62	325.33
592.78	362.78
592.94	311.29
593.10	334.70
593.26	435.34
593.41	374.49
593.57	454.06
593.73	498.53
593.89	2204.78
594.05	5516.64
594.20	8208.26
594.36	7822.07
594.52	5090.67
594.68	3246.32
594.84	2218.83
594.99	1294.32
595.15	599.18
595.31	400.23
595.47	381.51
595.62	344.06
595.78	320.65
595.94	346.40
596.10	461.09
596.25	358.10
596.41	360.44
596.57	266.82
596.73	273.84
596.88	512.58
597.04	1060.26
597.20	1785.83
597.36	1994.14
597.51	1647.74
597.67	1193.67
597.83	823.87
597.99	655.35
598.14	475.13
598.30	353.42
598.46	341.72
598.61	440.02
598.77	390.87
598.93	360.44
599.09	276.18
599.24	346.40
599.40	287.89
599.56	245.76
599.71	304.27
599.87	330.02
600.03	313.63
600.18	189.58
600.34	299.59
600.50	334.70
600.65	306.61
600.81	339.38
600.97	276.18
601.12	339.38
601.28	290.23
601.44	269.16
601.59	285.55
601.75	283.20
601.91	217.67
602.06	369.80
602.22	348.74
602.37	620.24
602.53	1493.26
602.69	2040.95
602.84	2104.14
603.00	1652.42
603.16	1144.52
603.31	781.74
603.47	564.07
603.62	393.21
603.78	365.12
603.94	292.57
604.09	376.83
604.25	264.48
604.40	341.72
604.56	259.80
604.71	280.86
604.87	292.57
605.03	301.93
605.18	297.25
605.34	318.31
605.49	273.84
605.65	337.04
605.80	280.86
605.96	271.50
606.12	278.52
606.27	315.97
606.43	358.10
606.58	479.81
606.74	713.86
606.89	2649.49
607.05	5160.88
607.20	7000.54
607.36	5788.14
607.51	3852.52
607.67	2656.51
607.82	1830.30
607.98	1046.22
608.13	624.92
608.29	528.96
608.44	430.66
608.60	437.68
608.75	533.64
608.91	1041.54
609.06	4145.09
609.22	8945.53
609.37	11983.54
609.53	10380.28
609.68	7091.82
609.84	4713.84
609.99	3281.43
610.15	1926.26
610.30	1076.65
610.46	781.74
610.61	781.74
610.76	889.40
610.92	952.60
611.07	873.02
611.23	931.53
611.38	891.74
611.54	753.65
611.69	669.39
611.84	617.90
612.00	627.26
612.15	587.47
612.31	608.54
612.46	737.27
612.62	725.57
612.77	741.95
612.92	713.86
613.08	543.00
613.23	650.67
613.39	610.88
613.54	917.49
613.69	3609.11
613.85	10647.10
614.00	17813.82
614.15	18986.43
614.31	13429.99
614.46	8861.27
614.62	6162.63
614.77	3627.83
614.92	1816.26
615.08	882.38
615.23	641.31
615.38	540.66
615.54	500.87
615.69	840.25
615.84	2242.23
616.00	4011.68
616.15	4903.42
616.30	4177.86
616.46	2892.90
616.61	1954.35
616.76	1376.24
616.92	770.04
617.07	503.22
617.22	367.46
617.37	346.40
617.53	411.93
617.68	297.25
617.83	320.65
617.99	374.49
618.14	411.93
618.29	355.76
618.45	346.40
618.60	311.29
618.75	301.93
618.90	294.91
619.06	330.02
619.21	299.59
619.36	379.17
619.51	250.44
619.67	339.38
619.82	311.29
619.97	283.20
620.12	327.68
620.28	374.49
620.43	308.95
620.58	236.39
620.73	276.18
620.89	346.40
621.04	486.83
621.19	1235.80
621.34	2195.42
621.49	3007.59
621.65	2759.49
621.80	1996.48
621.95	1357.51
622.10	964.30
622.25	636.63
622.41	409.59
622.56	395.55
622.71	304.27
622.86	332.36
623.01	369.80
623.16	421.30
623.32	280.86
623.47	241.08
623.62	308.95
623.77	322.99
623.92	311.29
624.07	250.44
624.23	337.04
624.38	255.12
624.53	308.95
624.68	395.55
624.83	418.96
624.98	369.80
625.13	234.05
625.29	304.27
625.44	341.72
625.59	360.44
625.74	322.99
625.89	444.70
626.04	1830.30
626.19	5441.75
626.34	8809.78
626.49	9729.61
626.65	7375.03
626.80	4835.55
626.95	3435.91
627.10	2087.76
627.25	1172.61
627.40	571.09
627.55	386.19
627.70	332.36
627.85	283.20
628.00	308.95
628.15	198.95
628.30	273.84
628.45	341.72
628.60	255.12
628.76	299.59
628.91	294.91
629.06	229.37
629.21	311.29
629.36	341.72
629.51	280.86
629.66	358.10
629.81	433.00
629.96	1093.03
630.11	2003.50
630.26	2621.40
630.41	2258.62
630.56	1760.08
630.71	1273.25
630.86	905.79
631.01	589.82
631.16	428.32
631.31	386.19
631.46	433.00
631.61	358.10
631.76	353.42
631.91	243.42
632.06	278.52
632.21	297.25
632.36	379.17
632.51	358.10
632.66	388.53
632.81	1039.20
632.96	3033.33
633.10	5378.55
633.25	6853.09
633.40	5643.03
633.55	3925.08
633.70	2623.74
633.85	1811.57
634.00	997.07
634.15	594.50
634.30	425.98
634.45	332.36
634.60	334.70
634.75	262.14
634.90	353.42
635.05	227.03
635.19	292.57
635.34	304.27
635.49	297.25
635.64	287.89
635.79	273.84
635.94	280.86
636.09	306.61
636.24	374.49
636.39	241.08
636.53	238.73
636.68	262.14
636.83	285.55
636.98	397.89
637.13	330.02
637.28	332.36
637.43	383.85
637.57	573.43
637.72	2534.80
637.87	6827.34
638.02	10864.77
638.17	12119.29
638.32	9191.28
638.46	6214.12
638.61	4409.57
638.76	2684.59
638.91	1355.17
639.06	739.61
639.20	540.66
639.35	573.43
639.50	837.91
639.65	3597.40
639.80	10593.26
639.94	16987.61
640.09	18665.77
640.24	13874.70
640.39	9451.08
640.54	6380.30
640.68	3899.33
640.83	1984.77
640.98	924.51
641.13	519.60
641.27	479.81
641.42	372.15
641.57	337.04
641.72	276.18
641.86	250.44
642.01	330.02
642.16	241.08
642.31	234.05
642.45	313.63
642.60	358.10
642.75	283.20
642.90	278.52
643.04	311.29
643.19	217.67
643.34	243.42
643.48	259.80
643.63	262.14
643.78	311.29
643.93	245.76
644.07	241.08
644.22	215.33
644.37	227.03
644.51	334.70
644.66	203.63
644.81	238.73
644.95	299.59
645.10	205.97
645.25	222.35
645.39	292.57
645.54	159.16
645.69	248.10
645.83	224.69
645.98	313.63
646.13	243.42
646.27	208.31
646.42	283.20
646.57	250.44
646.71	177.88
646.86	189.58
647.00	278.52
647.15	201.29
647.30	220.01
647.44	224.69
647.59	241.08
647.74	231.71
647.88	203.63
648.03	196.60
648.17	271.50
648.32	177.88
648.47	236.39
648.61	271.50
648.76	236.39
648.90	276.18
649.05	222.35
649.20	220.01
649.34	187.24
649.49	236.39
649.63	304.27
649.78	266.82
649.92	369.80
650.07	1511.99
650.21	4669.37
650.36	8095.91
650.51	9816.21
650.65	8203.58
650.80	5650.05
650.94	3943.80
651.09	2567.57
651.23	1219.42
651.38	690.46
651.52	486.83
651.67	362.78
651.81	346.40
651.96	311.29
652.10	262.14
652.25	327.68
652.39	234.05
652.54	243.42
652.68	568.75
652.83	1406.66
652.97	2813.32
653.12	3524.85
653.26	3197.17
653.41	2338.20
653.55	1614.97
653.70	997.07
653.84	685.78
653.99	390.87
654.13	271.50
654.27	259.80
654.42	196.60
654.56	154.48
654.71	245.76
654.85	201.29
655.00	198.95
655.14	215.33
655.29	161.50
655.43	245.76
655.57	222.35
655.72	248.10
655.86	255.12
656.01	161.50
656.15	215.33
656.30	271.50
656.44	154.48
656.58	231.71
656.73	264.48
656.87	243.42
657.01	198.95
657.16	306.61
657.30	266.82
657.45	264.48
657.59	184.90
657.73	161.50
657.88	266.82
658.02	299.59
658.16	241.08
658.31	250.44
658.45	201.29
658.60	184.90
658.74	173.20
658.88	220.01
659.03	220.01
659.17	301.93
659.31	795.78
659.46	2186.06
659.60	3826.78
659.74	4997.04
659.89	4227.01
660.03	3239.30
660.17	2253.94
660.32	1383.26
660.46	863.66
660.60	461.09
660.74	369.80
660.89	262.14
661.03	231.71
661.17	266.82
661.32	203.63
661.46	166.18
661.60	166.18
661.74	236.39
661.89	257.46
662.03	208.31
662.17	236.39
662.31	250.44
662.46	245.76
662.60	208.31
662.74	243.42
662.88	276.18
663.03	262.14
663.17	196.60
663.31	222.35
663.45	222.35
663.60	163.84
663.74	201.29
663.88	191.92
664.02	229.37
664.17	184.90
664.31	234.05
664.45	210.65
664.59	243.42
664.73	262.14
664.88	283.20
665.02	276.18
665.16	210.65
665.30	266.82
665.44	271.50
665.59	269.16
665.73	227.03
665.87	201.29
666.01	294.91
666.15	189.58
666.29	278.52
666.44	344.06
666.58	294.91
666.72	224.69
666.86	243.42
667.00	273.84
667.14	390.87
667.28	1507.30
667.43	4156.79
667.57	6906.92
667.71	8697.43
667.85	7339.92
667.99	5439.40
668.13	3510.80
668.27	2106.48
668.41	1277.93
668.56	699.82
668.70	491.51
668.84	313.63
668.98	287.89
669.12	280.86
669.26	285.55
669.40	397.89
669.54	231.71
669.68	252.78
669.82	201.29
669.96	201.29
670.10	276.18
670.25	201.29
670.39	224.69
670.53	198.95
670.67	205.97
670.81	280.86
670.95	313.63
671.09	503.22
671.23	1516.67
671.37	3431.23
671.51	5032.15
671.65	5493.24
671.79	4182.54
671.93	2932.69
672.07	1844.34
672.21	1074.31
672.35	629.60
672.49	433.00
672.63	351.08
672.77	407.25
672.91	262.14
673.05	266.82
673.19	290.23
673.33	184.90
673.47	224.69
673.61	231.71
673.75	177.88
673.89	175.54
674.03	217.67
674.17	215.33
674.31	234.05
674.45	255.12
674.59	231.71
674.73	189.58
674.87	236.39
675.01	271.50
675.15	227.03
675.29	271.50
675.43	243.42
675.56	227.03
675.70	184.90
675.84	208.31
675.98	234.05
676.12	175.54
676.26	215.33
676.40	212.99
676.54	194.26
676.68	210.65
676.82	159.16
676.96	145.11
677.10	198.95
677.23	98.30
677.37	231.71
677.51	217.67
677.65	238.73
677.79	166.18
677.93	147.45
678.07	229.37
678.21	220.01
678.34	142.77
678.48	250.44
678.62	210.65
678.76	196.60
678.90	210.65
679.04	159.16
679.18	156.82
679.31	175.54
679.45	205.97
679.59	227.03
679.73	154.48
679.87	140.43
680.00	189.58
680.14	243.42
680.28	234.05
680.42	161.50
680.56	189.58
680.70	208.31
680.83	203.63
680.97	189.58
681.11	133.41
681.25	255.12
681.39	208.31
681.52	152.13
681.66	156.82
681.80	238.73
681.94	177.88
682.07	229.37
682.21	212.99
682.35	177.88
682.49	145.11
682.62	182.56
682.76	161.50
682.90	121.71
683.04	147.45
683.17	203.63
683.31	170.86
683.45	175.54
683.59	278.52
683.72	248.10
683.86	271.50
684.00	168.52
684.13	182.56
684.27	138.09
684.41	198.95
684.55	161.50
684.68	227.03
684.82	198.95
684.96	126.39
685.09	194.26
685.23	184.90
685.37	175.54
685.50	205.97
685.64	238.73
685.78	205.97
685.91	184.90
686.05	191.92
686.19	156.82
686.32	196.60
686.46	117.03
686.60	126.39
686.73	229.37
686.87	238.73
687.01	224.69
687.14	276.18
687.28	189.58
687.42	198.95
687.55	210.65
687.69	201.29
687.82	205.97
687.96	212.99
688.10	205.97
688.23	126.39
688.37	248.10
688.50	177.88
688.64	170.86
688.78	138.09
688.91	191.92
689.05	208.31
689.18	133.41
689.32	128.73
689.46	215.33
689.59	131.07
689.73	159.16
689.86	121.71
690.00	264.48
690.13	145.11
690.27	131.07
690.41	163.84
690.54	210.65
690.68	231.71
690.81	159.16
690.95	217.67
691.08	159.16
691.22	159.16
691.35	159.16
691.49	208.31
691.62	180.22
691.76	191.92
691.89	215.33
692.03	229.37
692.16	159.16
692.30	231.71
692.43	568.75
692.57	1774.13
692.70	2998.23
692.84	3756.56
692.97	3496.76
693.11	2635.44
693.24	1860.73
693.38	1191.33
693.51	898.77
693.65	622.58
693.78	414.27
693.92	327.68
694.05	229.37
694.19	229.37
694.32	182.56
694.45	196.60
694.59	217.67
694.72	126.39
694.86	212.99
694.99	121.71
695.13	187.24
695.26	156.82
695.39	187.24
695.53	234.05
695.66	159.16
695.80	166.18
695.93	210.65
696.07	220.01
696.20	308.95
696.33	358.10
696.47	409.59
696.60	428.32
696.73	301.93
696.87	290.23
697.00	259.80
697.14	147.45
697.27	210.65
697.40	269.16
697.54	124.05
697.67	133.41
697.80	198.95
697.94	149.79
698.07	212.99
698.21	198.95
698.34	227.03
698.47	220.01
698.61	215.33
698.74	231.71
698.87	187.24
699.01	154.48
699.14	250.44
699.27	231.71
699.40	304.27
699.54	187.24
699.67	161.50
699.80	112.35
699.94	170.86
700.07	98.30
700.20	152.13
700.34	152.13
700.47	170.86
700.60	187.24
700.73	187.24
700.87	208.31
701.00	131.07
701.13	161.50
701.26	201.29
701.40	189.58
701.53	208.31
701.66	222.35
701.79	234.05
701.93	255.12
702.06	322.99
702.19	301.93
702.32	451.72
702.46	454.06
702.59	388.53
702.72	636.63
702.85	2186.06
702.99	4814.48
703.12	6857.77
703.25	7517.80
703.38	6260.93
703.51	5015.77
703.65	3836.14
703.78	2612.04
703.91	1736.68
704.04	1123.46
704.17	702.16
704.31	517.26
704.44	341.72
704.57	304.27
704.70	280.86
704.83	149.79
704.96	173.20
705.10	259.80
705.23	168.52
>>>>>End Processed Spectral Data<<<<<
