SpectraSuite Data File
++++++++++++++++++++++++++++++++++++
Date: Fri Oct 04 11:34:04 GMT-05:00 2013
User: price-jones
Dark Spectrum Present: No
Reference Spectrum Present: No
Number of Sampled Component Spectra: 1
Spectrometers: USB2+H05261
Integration Time (usec): 100000 (USB2+H05261)
Spectra Averaged: 1 (USB2+H05261)
Boxcar Smoothing: 0 (USB2+H05261)
Correct for Electrical Dark: No (USB2+H05261)
Strobe/Lamp Enabled: No (USB2+H05261)
Correct for Detector Non-linearity: No (USB2+H05261)
Correct for Stray Light: No (USB2+H05261)
Number of Pixels in Processed Spectrum: 2048
>>>>>Begin Processed Spectral Data<<<<<
365.73	81.92
365.92	81.92
366.12	81.92
366.32	4.68
366.52	0.00
366.72	0.00
366.91	0.00
367.11	0.00
367.31	0.00
367.51	0.00
367.70	0.00
367.90	9.36
368.10	0.00
368.30	0.00
368.49	0.00
368.69	0.00
368.89	0.00
369.09	32.77
369.28	0.00
369.48	0.00
369.68	0.00
369.87	0.00
370.07	18.72
370.27	114.69
370.47	18.72
370.66	46.81
370.86	93.62
371.06	98.30
371.25	126.39
371.45	79.58
371.65	140.43
371.84	84.26
372.04	147.45
372.24	88.94
372.44	124.05
372.63	156.82
372.83	133.41
373.03	135.75
373.22	154.48
373.42	86.60
373.62	114.69
373.81	184.90
374.01	222.35
374.21	110.01
374.40	91.28
374.60	135.75
374.79	142.77
374.99	168.52
375.19	168.52
375.38	156.82
375.58	173.20
375.78	250.44
375.97	163.84
376.17	180.22
376.37	81.92
376.56	147.45
376.76	70.22
376.95	128.73
377.15	119.37
377.35	110.01
377.54	161.50
377.74	131.07
377.93	121.71
378.13	124.05
378.33	156.82
378.52	189.58
378.72	95.96
378.91	156.82
379.11	126.39
379.31	107.66
379.50	163.84
379.70	156.82
379.89	217.67
380.09	93.62
380.28	161.50
380.48	145.11
380.68	63.19
380.87	159.16
381.07	110.01
381.26	140.43
381.46	159.16
381.65	126.39
381.85	63.19
382.04	159.16
382.24	142.77
382.43	177.88
382.63	149.79
382.83	98.30
383.02	177.88
383.22	191.92
383.41	156.82
383.61	168.52
383.80	140.43
384.00	79.58
384.19	67.88
384.39	161.50
384.58	107.66
384.78	163.84
384.97	140.43
385.17	156.82
385.36	84.26
385.56	189.58
385.75	84.26
385.95	91.28
386.14	110.01
386.34	131.07
386.53	182.56
386.72	74.90
386.92	220.01
387.11	159.16
387.31	182.56
387.50	126.39
387.70	156.82
387.89	65.54
388.09	95.96
388.28	140.43
388.48	149.79
388.67	182.56
388.86	154.48
389.06	88.94
389.25	187.24
389.45	170.86
389.64	124.05
389.84	81.92
390.03	156.82
390.22	142.77
390.42	145.11
390.61	133.41
390.81	107.66
391.00	203.63
391.19	142.77
391.39	177.88
391.58	166.18
391.78	91.28
391.97	163.84
392.16	147.45
392.36	173.20
392.55	163.84
392.75	117.03
392.94	117.03
393.13	93.62
393.33	205.97
393.52	112.35
393.71	159.16
393.91	217.67
394.10	138.09
394.29	149.79
394.49	161.50
394.68	182.56
394.88	215.33
395.07	189.58
395.26	196.60
395.46	229.37
395.65	222.35
395.84	252.78
396.04	269.16
396.23	126.39
396.42	117.03
396.62	128.73
396.81	201.29
397.00	105.32
397.19	154.48
397.39	145.11
397.58	175.54
397.77	154.48
397.97	119.37
398.16	159.16
398.35	177.88
398.55	163.84
398.74	203.63
398.93	238.73
399.12	173.20
399.32	210.65
399.51	128.73
399.70	102.98
399.90	126.39
400.09	124.05
400.28	201.29
400.47	51.49
400.67	112.35
400.86	105.32
401.05	124.05
401.24	161.50
401.44	182.56
401.63	142.77
401.82	217.67
402.01	140.43
402.21	135.75
402.40	117.03
402.59	100.64
402.78	86.60
402.97	128.73
403.17	222.35
403.36	163.84
403.55	168.52
403.74	184.90
403.93	173.20
404.13	264.48
404.32	285.55
404.51	203.63
404.70	278.52
404.89	154.48
405.09	191.92
405.28	159.16
405.47	152.13
405.66	128.73
405.85	180.22
406.05	166.18
406.24	220.01
406.43	145.11
406.62	112.35
406.81	147.45
407.00	187.24
407.20	133.41
407.39	107.66
407.58	156.82
407.77	156.82
407.96	170.86
408.15	191.92
408.34	205.97
408.54	163.84
408.73	128.73
408.92	170.86
409.11	198.95
409.30	203.63
409.49	126.39
409.68	138.09
409.87	229.37
410.07	147.45
410.26	98.30
410.45	217.67
410.64	156.82
410.83	238.73
411.02	210.65
411.21	145.11
411.40	117.03
411.59	191.92
411.78	152.13
411.98	135.75
412.17	159.16
412.36	201.29
412.55	177.88
412.74	159.16
412.93	241.08
413.12	163.84
413.31	184.90
413.50	194.26
413.69	177.88
413.88	119.37
414.07	168.52
414.26	140.43
414.45	138.09
414.64	93.62
414.83	154.48
415.02	198.95
415.22	255.12
415.41	229.37
415.60	140.43
415.79	168.52
415.98	187.24
416.17	46.81
416.36	156.82
416.55	154.48
416.74	184.90
416.93	124.05
417.12	128.73
417.31	100.64
417.50	140.43
417.69	266.82
417.88	210.65
418.07	201.29
418.26	203.63
418.45	100.64
418.64	234.05
418.83	269.16
419.02	212.99
419.21	170.86
419.39	243.42
419.58	149.79
419.77	166.18
419.96	208.31
420.15	245.76
420.34	147.45
420.53	215.33
420.72	217.67
420.91	166.18
421.10	166.18
421.29	145.11
421.48	168.52
421.67	184.90
421.86	229.37
422.05	138.09
422.24	95.96
422.43	110.01
422.61	173.20
422.80	163.84
422.99	229.37
423.18	110.01
423.37	243.42
423.56	224.69
423.75	205.97
423.94	161.50
424.13	227.03
424.32	168.52
424.50	180.22
424.69	142.77
424.88	133.41
425.07	112.35
425.26	234.05
425.45	248.10
425.64	271.50
425.83	215.33
426.01	227.03
426.20	276.18
426.39	180.22
426.58	142.77
426.77	231.71
426.96	222.35
427.15	220.01
427.33	194.26
427.52	212.99
427.71	173.20
427.90	159.16
428.09	191.92
428.28	145.11
428.46	119.37
428.65	198.95
428.84	229.37
429.03	187.24
429.22	159.16
429.40	203.63
429.59	168.52
429.78	294.91
429.97	203.63
430.16	175.54
430.34	152.13
430.53	131.07
430.72	159.16
430.91	215.33
431.10	142.77
431.28	184.90
431.47	205.97
431.66	245.76
431.85	119.37
432.03	135.75
432.22	191.92
432.41	208.31
432.60	238.73
432.79	227.03
432.97	250.44
433.16	290.23
433.35	271.50
433.54	257.46
433.72	229.37
433.91	131.07
434.10	166.18
434.28	215.33
434.47	117.03
434.66	208.31
434.85	198.95
435.03	301.93
435.22	334.70
435.41	461.09
435.59	493.85
435.78	416.62
435.97	252.78
436.16	241.08
436.34	170.86
436.53	196.60
436.72	182.56
436.90	187.24
437.09	189.58
437.28	224.69
437.46	166.18
437.65	163.84
437.84	184.90
438.02	140.43
438.21	170.86
438.40	114.69
438.58	191.92
438.77	184.90
438.96	168.52
439.14	128.73
439.33	187.24
439.52	161.50
439.70	161.50
439.89	173.20
440.08	198.95
440.26	234.05
440.45	220.01
440.63	121.71
440.82	147.45
441.01	189.58
441.19	238.73
441.38	196.60
441.57	177.88
441.75	210.65
441.94	201.29
442.12	142.77
442.31	201.29
442.50	196.60
442.68	184.90
442.87	79.58
443.05	117.03
443.24	180.22
443.43	236.39
443.61	227.03
443.80	203.63
443.98	149.79
444.17	182.56
444.35	177.88
444.54	252.78
444.73	191.92
444.91	191.92
445.10	107.66
445.28	140.43
445.47	248.10
445.65	196.60
445.84	112.35
446.02	191.92
446.21	159.16
446.39	229.37
446.58	220.01
446.77	217.67
446.95	180.22
447.14	187.24
447.32	238.73
447.51	173.20
447.69	191.92
447.88	163.84
448.06	210.65
448.25	234.05
448.43	208.31
448.62	138.09
448.80	241.08
448.99	250.44
449.17	210.65
449.36	210.65
449.54	196.60
449.73	194.26
449.91	184.90
450.10	215.33
450.28	205.97
450.46	231.71
450.65	273.84
450.83	245.76
451.02	173.20
451.20	217.67
451.39	182.56
451.57	147.45
451.76	135.75
451.94	220.01
452.13	201.29
452.31	245.76
452.49	241.08
452.68	163.84
452.86	280.86
453.05	262.14
453.23	152.13
453.42	180.22
453.60	215.33
453.78	175.54
453.97	198.95
454.15	196.60
454.34	189.58
454.52	243.42
454.70	222.35
454.89	194.26
455.07	182.56
455.26	168.52
455.44	259.80
455.62	163.84
455.81	166.18
455.99	180.22
456.17	243.42
456.36	187.24
456.54	182.56
456.73	175.54
456.91	196.60
457.09	220.01
457.28	168.52
457.46	133.41
457.64	210.65
457.83	224.69
458.01	198.95
458.19	198.95
458.38	203.63
458.56	224.69
458.74	182.56
458.93	236.39
459.11	138.09
459.29	154.48
459.48	184.90
459.66	266.82
459.84	229.37
460.03	332.36
460.21	198.95
460.39	241.08
460.57	196.60
460.76	196.60
460.94	180.22
461.12	276.18
461.31	173.20
461.49	168.52
461.67	196.60
461.85	177.88
462.04	231.71
462.22	645.99
462.40	222.35
462.59	201.29
462.77	194.26
462.95	156.82
463.13	145.11
463.32	201.29
463.50	114.69
463.68	191.92
463.86	220.01
464.05	175.54
464.23	212.99
464.41	212.99
464.59	142.77
464.78	196.60
464.96	194.26
465.14	184.90
465.32	138.09
465.50	184.90
465.69	166.18
465.87	154.48
466.05	100.64
466.23	180.22
466.41	175.54
466.60	227.03
466.78	236.39
466.96	252.78
467.14	175.54
467.32	215.33
467.51	266.82
467.69	189.58
467.87	189.58
468.05	238.73
468.23	245.76
468.41	236.39
468.60	128.73
468.78	222.35
468.96	177.88
469.14	220.01
469.32	210.65
469.50	191.92
469.69	187.24
469.87	201.29
470.05	175.54
470.23	271.50
470.41	224.69
470.59	177.88
470.77	196.60
470.95	208.31
471.14	138.09
471.32	222.35
471.50	203.63
471.68	107.66
471.86	271.50
472.04	149.79
472.22	142.77
472.40	205.97
472.58	245.76
472.77	163.84
472.95	198.95
473.13	201.29
473.31	248.10
473.49	184.90
473.67	271.50
473.85	227.03
474.03	194.26
474.21	191.92
474.39	201.29
474.57	234.05
474.75	252.78
474.93	205.97
475.12	126.39
475.30	234.05
475.48	210.65
475.66	191.92
475.84	231.71
476.02	142.77
476.20	175.54
476.38	189.58
476.56	248.10
476.74	147.45
476.92	168.52
477.10	238.73
477.28	318.31
477.46	140.43
477.64	243.42
477.82	168.52
478.00	217.67
478.18	250.44
478.36	189.58
478.54	222.35
478.72	173.20
478.90	161.50
479.08	220.01
479.26	159.16
479.44	203.63
479.62	182.56
479.80	227.03
479.98	117.03
480.16	224.69
480.34	201.29
480.52	191.92
480.70	266.82
480.88	205.97
481.06	180.22
481.24	212.99
481.41	135.75
481.59	170.86
481.77	238.73
481.95	189.58
482.13	222.35
482.31	243.42
482.49	250.44
482.67	224.69
482.85	231.71
483.03	217.67
483.21	212.99
483.39	177.88
483.57	203.63
483.74	255.12
483.92	294.91
484.10	217.67
484.28	255.12
484.46	351.08
484.64	234.05
484.82	306.61
485.00	198.95
485.18	278.52
485.35	269.16
485.53	203.63
485.71	294.91
485.89	133.41
486.07	259.80
486.25	355.76
486.43	332.36
486.61	243.42
486.78	276.18
486.96	243.42
487.14	280.86
487.32	262.14
487.50	273.84
487.68	269.16
487.85	255.12
488.03	320.65
488.21	327.68
488.39	264.48
488.57	280.86
488.75	264.48
488.92	550.03
489.10	301.93
489.28	369.80
489.46	231.71
489.64	191.92
489.81	262.14
489.99	271.50
490.17	301.93
490.35	315.97
490.53	184.90
490.70	173.20
490.88	217.67
491.06	196.60
491.24	306.61
491.41	360.44
491.59	238.73
491.77	294.91
491.95	229.37
492.13	222.35
492.30	264.48
492.48	252.78
492.66	241.08
492.84	241.08
493.01	266.82
493.19	248.10
493.37	325.33
493.54	231.71
493.72	238.73
493.90	255.12
494.08	180.22
494.25	320.65
494.43	224.69
494.61	255.12
494.79	222.35
494.96	145.11
495.14	280.86
495.32	241.08
495.49	259.80
495.67	306.61
495.85	252.78
496.02	229.37
496.20	313.63
496.38	252.78
496.55	283.20
496.73	273.84
496.91	182.56
497.09	379.17
497.26	308.95
497.44	241.08
497.62	175.54
497.79	187.24
497.97	304.27
498.14	229.37
498.32	255.12
498.50	262.14
498.67	229.37
498.85	241.08
499.03	243.42
499.20	245.76
499.38	238.73
499.56	198.95
499.73	255.12
499.91	269.16
500.08	229.37
500.26	227.03
500.44	273.84
500.61	308.95
500.79	250.44
500.97	292.57
501.14	250.44
501.32	243.42
501.49	234.05
501.67	248.10
501.84	252.78
502.02	243.42
502.20	194.26
502.37	313.63
502.55	208.31
502.72	313.63
502.90	297.25
503.07	306.61
503.25	313.63
503.43	184.90
503.60	311.29
503.78	250.44
503.95	339.38
504.13	276.18
504.30	306.61
504.48	301.93
504.65	266.82
504.83	243.42
505.01	252.78
505.18	276.18
505.36	234.05
505.53	257.46
505.71	229.37
505.88	266.82
506.06	332.36
506.23	229.37
506.41	175.54
506.58	280.86
506.76	208.31
506.93	208.31
507.11	250.44
507.28	231.71
507.46	201.29
507.63	266.82
507.81	205.97
507.98	234.05
508.16	220.01
508.33	234.05
508.50	262.14
508.68	248.10
508.85	287.89
509.03	257.46
509.20	250.44
509.38	294.91
509.55	287.89
509.73	266.82
509.90	259.80
510.08	308.95
510.25	273.84
510.42	332.36
510.60	273.84
510.77	217.67
510.95	311.29
511.12	276.18
511.30	337.04
511.47	355.76
511.64	318.31
511.82	273.84
511.99	248.10
512.17	259.80
512.34	262.14
512.51	306.61
512.69	215.33
512.86	245.76
513.04	238.73
513.21	241.08
513.38	217.67
513.56	278.52
513.73	250.44
513.90	196.60
514.08	294.91
514.25	287.89
514.43	252.78
514.60	259.80
514.77	250.44
514.95	257.46
515.12	299.59
515.29	341.72
515.47	304.27
515.64	297.25
515.81	273.84
515.99	280.86
516.16	252.78
516.33	278.52
516.51	224.69
516.68	166.18
516.85	159.16
517.03	196.60
517.20	339.38
517.37	224.69
517.54	287.89
517.72	327.68
517.89	210.65
518.06	306.61
518.24	287.89
518.41	287.89
518.58	299.59
518.75	259.80
518.93	353.42
519.10	294.91
519.27	271.50
519.45	266.82
519.62	250.44
519.79	248.10
519.96	283.20
520.14	250.44
520.31	280.86
520.48	257.46
520.65	245.76
520.83	280.86
521.00	301.93
521.17	290.23
521.34	217.67
521.52	212.99
521.69	234.05
521.86	250.44
522.03	297.25
522.20	315.97
522.38	301.93
522.55	278.52
522.72	222.35
522.89	273.84
523.07	271.50
523.24	290.23
523.41	278.52
523.58	315.97
523.75	278.52
523.92	231.71
524.10	301.93
524.27	304.27
524.44	290.23
524.61	229.37
524.78	294.91
524.96	238.73
525.13	259.80
525.30	292.57
525.47	290.23
525.64	301.93
525.81	299.59
525.98	311.29
526.16	308.95
526.33	168.52
526.50	177.88
526.67	187.24
526.84	220.01
527.01	257.46
527.18	325.33
527.36	287.89
527.53	304.27
527.70	297.25
527.87	278.52
528.04	259.80
528.21	308.95
528.38	301.93
528.55	304.27
528.72	236.39
528.89	269.16
529.07	227.03
529.24	292.57
529.41	266.82
529.58	262.14
529.75	280.86
529.92	280.86
530.09	278.52
530.26	301.93
530.43	280.86
530.60	248.10
530.77	325.33
530.94	297.25
531.11	308.95
531.28	280.86
531.46	259.80
531.63	273.84
531.80	304.27
531.97	215.33
532.14	388.53
532.31	262.14
532.48	337.04
532.65	379.17
532.82	383.85
532.99	358.10
533.16	341.72
533.33	327.68
533.50	269.16
533.67	367.46
533.84	407.25
534.01	456.40
534.18	404.91
534.35	346.40
534.52	311.29
534.69	351.08
534.86	290.23
535.03	290.23
535.20	367.46
535.37	292.57
535.54	292.57
535.71	266.82
535.88	332.36
536.05	252.78
536.22	313.63
536.38	327.68
536.55	250.44
536.72	299.59
536.89	177.88
537.06	243.42
537.23	285.55
537.40	301.93
537.57	280.86
537.74	250.44
537.91	337.04
538.08	325.33
538.25	358.10
538.42	294.91
538.59	339.38
538.75	308.95
538.92	294.91
539.09	351.08
539.26	358.10
539.43	540.66
539.60	1219.42
539.77	1502.62
539.94	1437.09
540.11	1022.81
540.28	697.48
540.44	676.41
540.61	491.51
540.78	493.85
540.95	461.09
541.12	615.56
541.29	575.77
541.46	662.37
541.62	582.79
541.79	589.82
541.96	540.66
542.13	479.81
542.30	543.00
542.47	526.62
542.63	503.22
542.80	571.09
542.97	521.94
543.14	599.18
543.31	477.47
543.48	456.40
543.64	505.56
543.81	500.87
543.98	475.13
544.15	580.45
544.32	585.13
544.48	531.30
544.65	552.37
544.82	428.32
544.99	425.98
545.16	479.81
545.32	564.07
545.49	772.38
545.66	936.21
545.83	1020.47
546.00	1029.84
546.16	744.29
546.33	540.66
546.50	531.30
546.67	535.98
546.83	496.19
547.00	489.17
547.17	367.46
547.34	435.34
547.50	395.55
547.67	379.17
547.84	386.19
548.00	484.49
548.17	381.51
548.34	428.32
548.51	404.91
548.67	388.53
548.84	353.42
549.01	376.83
549.18	365.12
549.34	397.89
549.51	374.49
549.68	414.27
549.84	402.57
550.01	348.74
550.18	458.74
550.34	381.51
550.51	369.80
550.68	341.72
550.84	280.86
551.01	372.15
551.18	278.52
551.34	325.33
551.51	367.46
551.68	374.49
551.84	358.10
552.01	266.82
552.18	379.17
552.34	322.99
552.51	344.06
552.68	318.31
552.84	355.76
553.01	318.31
553.18	285.55
553.34	330.02
553.51	271.50
553.67	313.63
553.84	362.78
554.01	280.86
554.17	229.37
554.34	266.82
554.51	465.77
554.67	276.18
554.84	348.74
555.00	292.57
555.17	318.31
555.33	313.63
555.50	318.31
555.67	259.80
555.83	306.61
556.00	313.63
556.16	545.34
556.33	315.97
556.50	344.06
556.66	229.37
556.83	243.42
556.99	210.65
557.16	201.29
557.32	337.04
557.49	191.92
557.65	198.95
557.82	311.29
557.98	348.74
558.15	250.44
558.32	271.50
558.48	276.18
558.65	238.73
558.81	257.46
558.98	241.08
559.14	304.27
559.31	339.38
559.47	276.18
559.64	252.78
559.80	285.55
559.97	241.08
560.13	184.90
560.30	250.44
560.46	283.20
560.63	264.48
560.79	278.52
560.96	224.69
561.12	257.46
561.29	290.23
561.45	180.22
561.61	224.69
561.78	374.49
561.94	245.76
562.11	191.92
562.27	241.08
562.44	271.50
562.60	227.03
562.77	283.20
562.93	423.64
563.10	285.55
563.26	278.52
563.42	294.91
563.59	318.31
563.75	234.05
563.92	334.70
564.08	294.91
564.24	283.20
564.41	208.31
564.57	191.92
564.74	241.08
564.90	259.80
565.07	259.80
565.23	243.42
565.39	330.02
565.56	339.38
565.72	311.29
565.88	320.65
566.05	262.14
566.21	266.82
566.38	271.50
566.54	273.84
566.70	236.39
566.87	215.33
567.03	238.73
567.19	262.14
567.36	255.12
567.52	234.05
567.68	341.72
567.85	348.74
568.01	245.76
568.17	283.20
568.34	341.72
568.50	332.36
568.66	290.23
568.83	304.27
568.99	273.84
569.15	318.31
569.32	283.20
569.48	217.67
569.64	269.16
569.81	313.63
569.97	201.29
570.13	292.57
570.30	339.38
570.46	236.39
570.62	308.95
570.78	259.80
570.95	278.52
571.11	304.27
571.27	269.16
571.43	220.01
571.60	224.69
571.76	196.60
571.92	250.44
572.09	287.89
572.25	276.18
572.41	306.61
572.57	276.18
572.74	304.27
572.90	294.91
573.06	252.78
573.22	337.04
573.38	264.48
573.55	341.72
573.71	255.12
573.87	285.55
574.03	217.67
574.20	280.86
574.36	283.20
574.52	365.12
574.68	322.99
574.84	315.97
575.01	301.93
575.17	273.84
575.33	287.89
575.49	308.95
575.65	334.70
575.82	355.76
575.98	561.73
576.14	667.05
576.30	674.07
576.46	620.24
576.62	601.52
576.79	561.73
576.95	493.85
577.11	395.55
577.27	283.20
577.43	299.59
577.59	358.10
577.75	353.42
577.92	294.91
578.08	220.01
578.24	308.95
578.40	397.89
578.56	449.38
578.72	440.02
578.88	437.68
579.04	348.74
579.21	358.10
579.37	372.15
579.53	407.25
579.69	360.44
579.85	372.15
580.01	500.87
580.17	470.45
580.33	447.04
580.49	461.09
580.65	458.74
580.82	390.87
580.98	388.53
581.14	409.59
581.30	360.44
581.46	489.17
581.62	650.67
581.78	657.69
581.94	519.60
582.10	533.64
582.26	535.98
582.42	475.13
582.58	479.81
582.74	411.93
582.90	500.87
583.06	566.41
583.22	458.74
583.38	571.09
583.54	498.53
583.70	662.37
583.86	741.95
584.02	779.40
584.18	922.17
584.34	1111.75
584.50	2787.58
584.66	20491.39
584.82	52156.50
584.98	62068.67
585.14	58906.60
585.30	43185.22
585.46	26073.57
585.62	16248.00
585.78	7606.74
585.94	2974.82
586.10	1509.65
586.26	1046.22
586.42	870.68
586.58	662.37
586.74	772.38
586.90	709.18
587.06	697.48
587.22	653.01
587.38	648.33
587.54	1151.54
587.70	3176.11
587.86	4961.94
588.02	5584.52
588.18	3953.16
588.34	2612.04
588.49	1762.42
588.65	1139.84
588.81	690.46
588.97	449.38
589.13	376.83
589.29	367.46
589.45	372.15
589.61	433.00
589.77	477.47
589.93	435.34
590.08	521.94
590.24	477.47
590.40	479.81
590.56	465.77
590.72	362.78
590.88	337.04
591.04	374.49
591.20	348.74
591.35	430.66
591.51	430.66
591.67	433.00
591.83	407.25
591.99	386.19
592.15	449.38
592.31	379.17
592.46	386.19
592.62	430.66
592.78	386.19
592.94	442.36
593.10	367.46
593.26	425.98
593.41	376.83
593.57	451.72
593.73	580.45
593.89	2544.16
594.05	6567.54
594.20	9607.90
594.36	9210.01
594.52	6066.67
594.68	3801.03
594.84	2539.48
594.99	1371.55
595.15	681.10
595.31	500.87
595.47	510.24
595.62	358.10
595.78	325.33
595.94	330.02
596.10	376.83
596.25	346.40
596.41	437.68
596.57	383.85
596.73	304.27
596.88	631.94
597.04	1420.71
597.20	2134.57
597.36	2420.11
597.51	1818.60
597.67	1259.21
597.83	882.38
597.99	725.57
598.14	454.06
598.30	451.72
598.46	400.23
598.61	456.40
598.77	334.70
598.93	379.17
599.09	374.49
599.24	311.29
599.40	334.70
599.56	365.12
599.71	262.14
599.87	395.55
600.03	381.51
600.18	369.80
600.34	306.61
600.50	280.86
600.65	266.82
600.81	308.95
600.97	332.36
601.12	250.44
601.28	276.18
601.44	332.36
601.59	278.52
601.75	243.42
601.91	283.20
602.06	285.55
602.22	421.30
602.37	662.37
602.53	1565.82
602.69	2380.32
602.84	2558.21
603.00	1858.39
603.16	1362.19
603.31	1008.77
603.47	716.20
603.62	449.38
603.78	365.12
603.94	320.65
604.09	259.80
604.25	348.74
604.40	259.80
604.56	264.48
604.71	255.12
604.87	337.04
605.03	285.55
605.18	278.52
605.34	355.76
605.49	301.93
605.65	393.21
605.80	315.97
605.96	383.85
606.12	339.38
606.27	407.25
606.43	374.49
606.58	425.98
606.74	826.21
606.89	3166.74
607.05	6200.08
607.20	8023.36
607.36	6719.68
607.51	4716.18
607.67	3155.04
607.82	2214.15
607.98	1188.99
608.13	688.12
608.29	535.98
608.44	524.28
608.60	461.09
608.75	575.77
608.91	1130.48
609.06	4997.04
609.22	10729.02
609.37	14160.24
609.53	12571.02
609.68	8416.57
609.84	5708.57
609.99	3908.69
610.15	2148.61
610.30	1310.70
610.46	980.68
610.61	952.60
610.76	980.68
610.92	1167.93
611.07	1193.67
611.23	1165.59
611.38	1039.20
611.54	992.39
611.69	1025.15
611.84	854.30
612.00	723.23
612.15	688.12
612.31	777.06
612.46	858.98
612.62	938.55
612.77	896.43
612.92	809.83
613.08	844.93
613.23	786.42
613.39	716.20
613.54	889.40
613.69	4418.93
613.85	12861.24
614.00	20987.58
614.15	22338.07
614.31	15580.95
614.46	10356.87
614.62	7035.65
614.77	4231.69
614.92	2108.82
615.08	1128.14
615.23	674.07
615.38	587.47
615.54	627.26
615.69	901.11
615.84	2661.19
616.00	4723.20
616.15	5781.12
616.30	4854.27
616.46	3421.86
616.61	2314.79
616.76	1528.37
616.92	994.73
617.07	564.07
617.22	454.06
617.37	425.98
617.53	414.27
617.68	315.97
617.83	362.78
617.99	386.19
618.14	395.55
618.29	433.00
618.45	313.63
618.60	353.42
618.75	313.63
618.90	283.20
619.06	315.97
619.21	393.21
619.36	367.46
619.51	355.76
619.67	304.27
619.82	301.93
619.97	304.27
620.12	320.65
620.28	353.42
620.43	325.33
620.58	330.02
620.73	372.15
620.89	409.59
621.04	566.41
621.19	1495.60
621.34	2677.57
621.49	3506.12
621.65	3222.92
621.80	2207.13
621.95	1605.61
622.10	1212.40
622.25	730.25
622.41	510.24
622.56	421.30
622.71	315.97
622.86	367.46
623.01	327.68
623.16	311.29
623.32	332.36
623.47	404.91
623.62	390.87
623.77	241.08
623.92	383.85
624.07	285.55
624.23	358.10
624.38	341.72
624.53	299.59
624.68	402.57
624.83	351.08
624.98	379.17
625.13	285.55
625.29	278.52
625.44	367.46
625.59	454.06
625.74	390.87
625.89	592.16
626.04	2179.04
626.19	6349.87
626.34	10129.84
626.49	11482.67
626.65	8519.55
626.80	5832.62
626.95	3974.23
627.10	2473.95
627.25	1348.15
627.40	760.67
627.55	465.77
627.70	416.62
627.85	381.51
628.00	348.74
628.15	308.95
628.30	290.23
628.45	276.18
628.60	271.50
628.76	351.08
628.91	285.55
629.06	330.02
629.21	283.20
629.36	325.33
629.51	362.78
629.66	388.53
629.81	587.47
629.96	1224.10
630.11	2249.25
630.26	3101.21
630.41	2808.64
630.56	2115.84
630.71	1511.99
630.86	1015.79
631.01	676.41
631.16	465.77
631.31	362.78
631.46	414.27
631.61	435.34
631.76	304.27
631.91	341.72
632.06	198.95
632.21	301.93
632.36	318.31
632.51	390.87
632.66	468.11
632.81	1097.71
632.96	3368.03
633.10	6368.60
633.25	7936.76
633.40	6392.00
633.55	4463.40
633.70	3030.99
633.85	2087.76
634.00	1142.18
634.15	521.94
634.30	472.79
634.45	292.57
634.60	306.61
634.75	376.83
634.90	304.27
635.05	339.38
635.19	283.20
635.34	280.86
635.49	280.86
635.64	198.95
635.79	257.46
635.94	322.99
636.09	353.42
636.24	257.46
636.39	395.55
636.53	425.98
636.68	327.68
636.83	306.61
636.98	390.87
637.13	402.57
637.28	369.80
637.43	463.43
637.57	681.10
637.72	2853.11
637.87	8222.30
638.02	13160.83
638.17	14270.25
638.32	10871.79
638.46	7529.50
638.61	5160.88
638.76	3021.63
638.91	1554.12
639.06	912.81
639.20	662.37
639.35	596.84
639.50	898.77
639.65	4269.14
639.80	12791.03
639.94	20100.52
640.09	22267.86
640.24	16774.62
640.39	11325.85
640.54	7506.10
640.68	4585.11
640.83	2298.41
640.98	1095.37
641.13	683.44
641.27	486.83
641.42	362.78
641.57	414.27
641.72	369.80
641.86	386.19
642.01	266.82
642.16	341.72
642.31	297.25
642.45	280.86
642.60	280.86
642.75	243.42
642.90	287.89
643.04	231.71
643.19	152.13
643.34	322.99
643.48	308.95
643.63	292.57
643.78	297.25
643.93	294.91
644.07	344.06
644.22	227.03
644.37	250.44
644.51	278.52
644.66	234.05
644.81	262.14
644.95	259.80
645.10	259.80
645.25	229.37
645.39	297.25
645.54	257.46
645.69	234.05
645.83	196.60
645.98	322.99
646.13	182.56
646.27	227.03
646.42	259.80
646.57	222.35
646.71	301.93
646.86	278.52
647.00	271.50
647.15	285.55
647.30	238.73
647.44	245.76
647.59	257.46
647.74	262.14
647.88	252.78
648.03	198.95
648.17	224.69
648.32	301.93
648.47	344.06
648.61	245.76
648.76	367.46
648.90	285.55
649.05	271.50
649.20	252.78
649.34	259.80
649.49	297.25
649.63	280.86
649.78	386.19
649.92	500.87
650.07	1673.48
650.21	5437.06
650.36	9371.50
650.51	11501.39
650.65	9291.93
650.80	6640.10
650.94	4465.74
651.09	2871.84
651.23	1488.58
651.38	779.40
651.52	500.87
651.67	348.74
651.81	341.72
651.96	285.55
652.10	215.33
652.25	327.68
652.39	360.44
652.54	315.97
652.68	545.34
652.83	1813.92
652.97	3265.05
653.12	4166.15
653.26	3712.09
653.41	2862.48
653.55	1813.92
653.70	1277.93
653.84	821.53
653.99	470.45
654.13	255.12
654.27	306.61
654.42	264.48
654.56	241.08
654.71	257.46
654.85	222.35
655.00	285.55
655.14	252.78
655.29	194.26
655.43	189.58
655.57	290.23
655.72	220.01
655.86	287.89
656.01	222.35
656.15	133.41
656.30	245.76
656.44	231.71
656.58	241.08
656.73	220.01
656.87	243.42
657.01	243.42
657.16	313.63
657.30	215.33
657.45	264.48
657.59	217.67
657.73	212.99
657.88	248.10
658.02	341.72
658.16	287.89
658.31	262.14
658.45	248.10
658.60	142.77
658.74	236.39
658.88	250.44
659.03	236.39
659.17	330.02
659.31	863.66
659.46	2455.22
659.60	4615.54
659.74	5624.31
659.89	5001.72
660.03	3918.06
660.17	2691.62
660.32	1694.55
660.46	999.41
660.60	678.76
660.74	423.64
660.89	271.50
661.03	278.52
661.17	189.58
661.32	189.58
661.46	210.65
661.60	198.95
661.74	215.33
661.89	255.12
662.03	201.29
662.17	241.08
662.31	255.12
662.46	301.93
662.60	245.76
662.74	280.86
662.88	271.50
663.03	203.63
663.17	198.95
663.31	238.73
663.45	255.12
663.60	222.35
663.74	189.58
663.88	241.08
664.02	236.39
664.17	220.01
664.31	245.76
664.45	212.99
664.59	168.52
664.73	210.65
664.88	311.29
665.02	241.08
665.16	212.99
665.30	220.01
665.44	154.48
665.59	353.42
665.73	306.61
665.87	236.39
666.01	163.84
666.15	273.84
666.29	301.93
666.44	285.55
666.58	327.68
666.72	325.33
666.86	320.65
667.00	278.52
667.14	383.85
667.28	1629.01
667.43	4716.18
667.57	7875.90
667.71	9956.64
667.85	8514.87
667.99	6328.81
668.13	4149.77
668.27	2375.64
668.41	1313.04
668.56	809.83
668.70	566.41
668.84	313.63
668.98	425.98
669.12	365.12
669.26	283.20
669.40	374.49
669.54	236.39
669.68	208.31
669.82	255.12
669.96	241.08
670.10	227.03
670.25	271.50
670.39	287.89
670.53	229.37
670.67	241.08
670.81	234.05
670.95	301.93
671.09	393.21
671.23	1736.68
671.37	3929.76
671.51	5748.36
671.65	6076.03
671.79	4854.27
671.93	3487.40
672.07	2239.89
672.21	1247.51
672.35	704.50
672.49	461.09
672.63	346.40
672.77	327.68
672.91	327.68
673.05	320.65
673.19	259.80
673.33	173.20
673.47	327.68
673.61	201.29
673.75	154.48
673.89	156.82
674.03	294.91
674.17	217.67
674.31	198.95
674.45	222.35
674.59	208.31
674.73	248.10
674.87	215.33
675.01	236.39
675.15	285.55
675.29	365.12
675.43	299.59
675.56	280.86
675.70	276.18
675.84	229.37
675.98	255.12
676.12	227.03
676.26	187.24
676.40	189.58
676.54	191.92
676.68	210.65
676.82	234.05
676.96	147.45
677.10	152.13
677.23	135.75
677.37	119.37
677.51	212.99
677.65	189.58
677.79	224.69
677.93	203.63
678.07	227.03
678.21	149.79
678.34	168.52
678.48	201.29
678.62	170.86
678.76	156.82
678.90	110.01
679.04	126.39
679.18	191.92
679.31	156.82
679.45	180.22
679.59	187.24
679.73	135.75
679.87	231.71
680.00	210.65
680.14	210.65
680.28	175.54
680.42	133.41
680.56	191.92
680.70	203.63
680.83	198.95
680.97	135.75
681.11	191.92
681.25	131.07
681.39	210.65
681.52	196.60
681.66	259.80
681.80	128.73
681.94	180.22
682.07	184.90
682.21	224.69
682.35	133.41
682.49	173.20
682.62	135.75
682.76	159.16
682.90	196.60
683.04	180.22
683.17	177.88
683.31	161.50
683.45	135.75
683.59	245.76
683.72	205.97
683.86	255.12
684.00	159.16
684.13	205.97
684.27	208.31
684.41	212.99
684.55	133.41
684.68	201.29
684.82	173.20
684.96	215.33
685.09	170.86
685.23	177.88
685.37	170.86
685.50	243.42
685.64	294.91
685.78	189.58
685.91	245.76
686.05	210.65
686.19	88.94
686.32	175.54
686.46	299.59
686.60	149.79
686.73	266.82
686.87	238.73
687.01	238.73
687.14	194.26
687.28	259.80
687.42	280.86
687.55	198.95
687.69	234.05
687.82	194.26
687.96	196.60
688.10	234.05
688.23	208.31
688.37	208.31
688.50	229.37
688.64	224.69
688.78	166.18
688.91	168.52
689.05	133.41
689.18	140.43
689.32	180.22
689.46	166.18
689.59	191.92
689.73	145.11
689.86	149.79
690.00	212.99
690.13	180.22
690.27	161.50
690.41	276.18
690.54	224.69
690.68	138.09
690.81	208.31
690.95	196.60
691.08	138.09
691.22	88.94
691.35	224.69
691.49	241.08
691.62	241.08
691.76	189.58
691.89	149.79
692.03	170.86
692.16	224.69
692.30	301.93
692.43	643.65
692.57	1839.66
692.70	3283.77
692.84	4388.50
692.97	3756.56
693.11	2972.48
693.24	2153.29
693.38	1441.77
693.51	1011.11
693.65	739.61
693.78	491.51
693.92	367.46
694.05	358.10
694.19	234.05
694.32	285.55
694.45	231.71
694.59	255.12
694.72	217.67
694.86	276.18
694.99	173.20
695.13	133.41
695.26	266.82
695.39	245.76
695.53	259.80
695.66	161.50
695.80	220.01
695.93	152.13
696.07	205.97
696.20	346.40
696.33	440.02
696.47	475.13
696.60	433.00
696.73	367.46
696.87	313.63
697.00	313.63
697.14	217.67
697.27	205.97
697.40	212.99
697.54	194.26
697.67	229.37
697.80	231.71
697.94	189.58
698.07	205.97
698.21	135.75
698.34	147.45
698.47	180.22
698.61	124.05
698.74	166.18
698.87	196.60
699.01	95.96
699.14	154.48
699.27	182.56
699.40	236.39
699.54	168.52
699.67	159.16
699.80	81.92
699.94	173.20
700.07	212.99
700.20	224.69
700.34	149.79
700.47	180.22
700.60	149.79
700.73	262.14
700.87	138.09
701.00	114.69
701.13	161.50
701.26	208.31
701.40	180.22
701.53	196.60
701.66	208.31
701.79	201.29
701.93	257.46
702.06	276.18
702.19	374.49
702.32	514.92
702.46	435.34
702.59	407.25
702.72	791.10
702.85	2345.22
702.99	5238.12
703.12	7655.89
703.25	8404.86
703.38	7124.59
703.51	5699.20
703.65	4313.61
703.78	3152.70
703.91	2078.40
704.04	1380.92
704.17	882.38
704.31	568.75
704.44	456.40
704.57	273.84
704.70	290.23
704.83	217.67
704.96	234.05
705.10	241.08
705.23	220.01
>>>>>End Processed Spectral Data<<<<<
