SpectraSuite Data File
++++++++++++++++++++++++++++++++++++
Date: Fri Oct 04 11:33:51 GMT-05:00 2013
User: price-jones
Dark Spectrum Present: No
Reference Spectrum Present: No
Number of Sampled Component Spectra: 1
Spectrometers: USB2+H05261
Integration Time (usec): 100000 (USB2+H05261)
Spectra Averaged: 1 (USB2+H05261)
Boxcar Smoothing: 0 (USB2+H05261)
Correct for Electrical Dark: No (USB2+H05261)
Strobe/Lamp Enabled: No (USB2+H05261)
Correct for Detector Non-linearity: No (USB2+H05261)
Correct for Stray Light: No (USB2+H05261)
Number of Pixels in Processed Spectrum: 2048
>>>>>Begin Processed Spectral Data<<<<<
365.73	32.77
365.92	32.77
366.12	32.77
366.32	0.00
366.52	11.70
366.72	23.41
366.91	18.72
367.11	0.00
367.31	0.00
367.51	0.00
367.70	0.00
367.90	0.00
368.10	7.02
368.30	0.00
368.49	0.00
368.69	16.38
368.89	72.56
369.09	7.02
369.28	18.72
369.48	0.00
369.68	0.00
369.87	28.09
370.07	51.49
370.27	0.00
370.47	77.24
370.66	112.35
370.86	49.15
371.06	114.69
371.25	149.79
371.45	51.49
371.65	128.73
371.84	88.94
372.04	156.82
372.24	128.73
372.44	98.30
372.63	98.30
372.83	210.65
373.03	107.66
373.22	110.01
373.42	124.05
373.62	105.32
373.81	100.64
374.01	117.03
374.21	241.08
374.40	161.50
374.60	107.66
374.79	154.48
374.99	166.18
375.19	212.99
375.38	145.11
375.58	147.45
375.78	131.07
375.97	196.60
376.17	88.94
376.37	84.26
376.56	91.28
376.76	100.64
376.95	156.82
377.15	168.52
377.35	110.01
377.54	180.22
377.74	145.11
377.93	250.44
378.13	88.94
378.33	121.71
378.52	124.05
378.72	208.31
378.91	65.54
379.11	166.18
379.31	74.90
379.50	138.09
379.70	184.90
379.89	128.73
380.09	88.94
380.28	177.88
380.48	154.48
380.68	142.77
380.87	140.43
381.07	154.48
381.26	175.54
381.46	198.95
381.65	140.43
381.85	138.09
382.04	168.52
382.24	135.75
382.43	184.90
382.63	112.35
382.83	133.41
383.02	119.37
383.22	208.31
383.41	112.35
383.61	93.62
383.80	60.85
384.00	154.48
384.19	201.29
384.39	124.05
384.58	161.50
384.78	152.13
384.97	79.58
385.17	154.48
385.36	168.52
385.56	126.39
385.75	119.37
385.95	161.50
386.14	124.05
386.34	81.92
386.53	198.95
386.72	91.28
386.92	208.31
387.11	156.82
387.31	107.66
387.50	163.84
387.70	173.20
387.89	124.05
388.09	156.82
388.28	112.35
388.48	100.64
388.67	180.22
388.86	74.90
389.06	175.54
389.25	121.71
389.45	126.39
389.64	128.73
389.84	222.35
390.03	180.22
390.22	147.45
390.42	114.69
390.61	147.45
390.81	65.54
391.00	138.09
391.19	198.95
391.39	182.56
391.58	159.16
391.78	187.24
391.97	121.71
392.16	88.94
392.36	133.41
392.55	175.54
392.75	126.39
392.94	149.79
393.13	86.60
393.33	117.03
393.52	117.03
393.71	201.29
393.91	154.48
394.10	154.48
394.29	147.45
394.49	145.11
394.68	224.69
394.88	212.99
395.07	135.75
395.26	203.63
395.46	142.77
395.65	170.86
395.84	149.79
396.04	210.65
396.23	168.52
396.42	222.35
396.62	180.22
396.81	189.58
397.00	170.86
397.19	119.37
397.39	126.39
397.58	224.69
397.77	126.39
397.97	229.37
398.16	126.39
398.35	180.22
398.55	194.26
398.74	110.01
398.93	191.92
399.12	133.41
399.32	205.97
399.51	201.29
399.70	191.92
399.90	112.35
400.09	173.20
400.28	187.24
400.47	138.09
400.67	100.64
400.86	212.99
401.05	138.09
401.24	163.84
401.44	126.39
401.63	142.77
401.82	189.58
402.01	187.24
402.21	187.24
402.40	91.28
402.59	147.45
402.78	121.71
402.97	154.48
403.17	74.90
403.36	95.96
403.55	212.99
403.74	177.88
403.93	177.88
404.13	217.67
404.32	264.48
404.51	212.99
404.70	257.46
404.89	126.39
405.09	152.13
405.28	161.50
405.47	140.43
405.66	142.77
405.85	205.97
406.05	121.71
406.24	117.03
406.43	74.90
406.62	201.29
406.81	205.97
407.00	163.84
407.20	173.20
407.39	135.75
407.58	135.75
407.77	107.66
407.96	156.82
408.15	198.95
408.34	175.54
408.54	184.90
408.73	133.41
408.92	180.22
409.11	208.31
409.30	191.92
409.49	224.69
409.68	159.16
409.87	180.22
410.07	95.96
410.26	110.01
410.45	145.11
410.64	180.22
410.83	166.18
411.02	84.26
411.21	163.84
411.40	177.88
411.59	166.18
411.78	93.62
411.98	138.09
412.17	147.45
412.36	140.43
412.55	201.29
412.74	142.77
412.93	227.03
413.12	159.16
413.31	191.92
413.50	135.75
413.69	63.19
413.88	152.13
414.07	147.45
414.26	201.29
414.45	161.50
414.64	194.26
414.83	236.39
415.02	124.05
415.22	156.82
415.41	159.16
415.60	220.01
415.79	156.82
415.98	194.26
416.17	196.60
416.36	159.16
416.55	220.01
416.74	163.84
416.93	231.71
417.12	145.11
417.31	133.41
417.50	145.11
417.69	287.89
417.88	262.14
418.07	161.50
418.26	194.26
418.45	189.58
418.64	262.14
418.83	257.46
419.02	227.03
419.21	184.90
419.39	182.56
419.58	182.56
419.77	210.65
419.96	222.35
420.15	208.31
420.34	231.71
420.53	145.11
420.72	212.99
420.91	152.13
421.10	222.35
421.29	145.11
421.48	220.01
421.67	236.39
421.86	182.56
422.05	79.58
422.24	124.05
422.43	166.18
422.61	154.48
422.80	77.24
422.99	114.69
423.18	145.11
423.37	241.08
423.56	241.08
423.75	133.41
423.94	110.01
424.13	191.92
424.32	177.88
424.50	126.39
424.69	182.56
424.88	166.18
425.07	194.26
425.26	276.18
425.45	234.05
425.64	276.18
425.83	266.82
426.01	259.80
426.20	159.16
426.39	208.31
426.58	145.11
426.77	198.95
426.96	224.69
427.15	215.33
427.33	163.84
427.52	107.66
427.71	152.13
427.90	187.24
428.09	161.50
428.28	142.77
428.46	166.18
428.65	163.84
428.84	212.99
429.03	177.88
429.22	208.31
429.40	173.20
429.59	187.24
429.78	229.37
429.97	182.56
430.16	161.50
430.34	102.98
430.53	177.88
430.72	212.99
430.91	273.84
431.10	124.05
431.28	187.24
431.47	184.90
431.66	212.99
431.85	163.84
432.03	201.29
432.22	227.03
432.41	201.29
432.60	224.69
432.79	191.92
432.97	315.97
433.16	264.48
433.35	262.14
433.54	243.42
433.72	168.52
433.91	241.08
434.10	210.65
434.28	187.24
434.47	236.39
434.66	243.42
434.85	196.60
435.03	227.03
435.22	386.19
435.41	358.10
435.59	393.21
435.78	234.05
435.97	170.86
436.16	285.55
436.34	154.48
436.53	184.90
436.72	145.11
436.90	259.80
437.09	205.97
437.28	187.24
437.46	142.77
437.65	264.48
437.84	198.95
438.02	175.54
438.21	112.35
438.40	205.97
438.58	241.08
438.77	154.48
438.96	175.54
439.14	241.08
439.33	262.14
439.52	182.56
439.70	220.01
439.89	175.54
440.08	180.22
440.26	177.88
440.45	245.76
440.63	208.31
440.82	156.82
441.01	161.50
441.19	257.46
441.38	159.16
441.57	128.73
441.75	175.54
441.94	198.95
442.12	149.79
442.31	201.29
442.50	194.26
442.68	173.20
442.87	131.07
443.05	177.88
443.24	180.22
443.43	236.39
443.61	245.76
443.80	159.16
443.98	250.44
444.17	163.84
444.35	191.92
444.54	154.48
444.73	205.97
444.91	210.65
445.10	117.03
445.28	166.18
445.47	215.33
445.65	149.79
445.84	142.77
446.02	243.42
446.21	184.90
446.39	102.98
446.58	184.90
446.77	170.86
446.95	173.20
447.14	259.80
447.32	159.16
447.51	191.92
447.69	133.41
447.88	170.86
448.06	224.69
448.25	147.45
448.43	147.45
448.62	191.92
448.80	173.20
448.99	215.33
449.17	149.79
449.36	215.33
449.54	140.43
449.73	189.58
449.91	168.52
450.10	154.48
450.28	215.33
450.46	243.42
450.65	208.31
450.83	201.29
451.02	222.35
451.20	126.39
451.39	189.58
451.57	177.88
451.76	121.71
451.94	203.63
452.13	159.16
452.31	152.13
452.49	203.63
452.68	189.58
452.86	184.90
453.05	189.58
453.23	189.58
453.42	173.20
453.60	175.54
453.78	262.14
453.97	243.42
454.15	166.18
454.34	149.79
454.52	184.90
454.70	196.60
454.89	159.16
455.07	110.01
455.26	177.88
455.44	142.77
455.62	201.29
455.81	182.56
455.99	180.22
456.17	222.35
456.36	222.35
456.54	205.97
456.73	145.11
456.91	142.77
457.09	177.88
457.28	234.05
457.46	229.37
457.64	205.97
457.83	168.52
458.01	170.86
458.19	252.78
458.38	170.86
458.56	135.75
458.74	154.48
458.93	248.10
459.11	149.79
459.29	234.05
459.48	156.82
459.66	175.54
459.84	198.95
460.03	374.49
460.21	135.75
460.39	72.56
460.57	208.31
460.76	184.90
460.94	236.39
461.12	222.35
461.31	217.67
461.49	168.52
461.67	156.82
461.85	152.13
462.04	198.95
462.22	582.79
462.40	285.55
462.59	180.22
462.77	217.67
462.95	278.52
463.13	147.45
463.32	262.14
463.50	227.03
463.68	264.48
463.86	163.84
464.05	198.95
464.23	208.31
464.41	196.60
464.59	175.54
464.78	220.01
464.96	191.92
465.14	217.67
465.32	252.78
465.50	163.84
465.69	205.97
465.87	163.84
466.05	227.03
466.23	189.58
466.41	184.90
466.60	135.75
466.78	280.86
466.96	212.99
467.14	231.71
467.32	234.05
467.51	189.58
467.69	156.82
467.87	201.29
468.05	161.50
468.23	168.52
468.41	175.54
468.60	194.26
468.78	191.92
468.96	128.73
469.14	166.18
469.32	177.88
469.50	224.69
469.69	290.23
469.87	187.24
470.05	184.90
470.23	189.58
470.41	159.16
470.59	201.29
470.77	177.88
470.95	126.39
471.14	180.22
471.32	238.73
471.50	241.08
471.68	187.24
471.86	168.52
472.04	187.24
472.22	212.99
472.40	159.16
472.58	170.86
472.77	159.16
472.95	227.03
473.13	227.03
473.31	224.69
473.49	184.90
473.67	117.03
473.85	198.95
474.03	175.54
474.21	217.67
474.39	212.99
474.57	257.46
474.75	194.26
474.93	215.33
475.12	159.16
475.30	81.92
475.48	191.92
475.66	205.97
475.84	203.63
476.02	245.76
476.20	234.05
476.38	224.69
476.56	276.18
476.74	203.63
476.92	212.99
477.10	198.95
477.28	220.01
477.46	184.90
477.64	145.11
477.82	205.97
478.00	133.41
478.18	201.29
478.36	208.31
478.54	163.84
478.72	215.33
478.90	208.31
479.08	156.82
479.26	243.42
479.44	217.67
479.62	224.69
479.80	236.39
479.98	203.63
480.16	182.56
480.34	196.60
480.52	177.88
480.70	208.31
480.88	234.05
481.06	201.29
481.24	112.35
481.41	234.05
481.59	215.33
481.77	175.54
481.95	154.48
482.13	245.76
482.31	259.80
482.49	159.16
482.67	227.03
482.85	243.42
483.03	177.88
483.21	280.86
483.39	191.92
483.57	224.69
483.74	280.86
483.92	198.95
484.10	196.60
484.28	285.55
484.46	318.31
484.64	287.89
484.82	250.44
485.00	229.37
485.18	222.35
485.35	248.10
485.53	215.33
485.71	245.76
485.89	215.33
486.07	140.43
486.25	308.95
486.43	231.71
486.61	245.76
486.78	243.42
486.96	255.12
487.14	243.42
487.32	283.20
487.50	330.02
487.68	248.10
487.85	269.16
488.03	297.25
488.21	297.25
488.39	177.88
488.57	290.23
488.75	273.84
488.92	465.77
489.10	212.99
489.28	290.23
489.46	210.65
489.64	224.69
489.81	208.31
489.99	175.54
490.17	198.95
490.35	294.91
490.53	215.33
490.70	198.95
490.88	290.23
491.06	238.73
491.24	262.14
491.41	299.59
491.59	201.29
491.77	243.42
491.95	229.37
492.13	180.22
492.30	262.14
492.48	152.13
492.66	250.44
492.84	255.12
493.01	224.69
493.19	231.71
493.37	224.69
493.54	220.01
493.72	248.10
493.90	299.59
494.08	222.35
494.25	271.50
494.43	262.14
494.61	271.50
494.79	182.56
494.96	227.03
495.14	337.04
495.32	168.52
495.49	243.42
495.67	266.82
495.85	231.71
496.02	241.08
496.20	222.35
496.38	250.44
496.55	271.50
496.73	313.63
496.91	252.78
497.09	255.12
497.26	212.99
497.44	180.22
497.62	210.65
497.79	220.01
497.97	313.63
498.14	222.35
498.32	259.80
498.50	208.31
498.67	271.50
498.85	273.84
499.03	297.25
499.20	224.69
499.38	168.52
499.56	210.65
499.73	299.59
499.91	264.48
500.08	280.86
500.26	278.52
500.44	245.76
500.61	191.92
500.79	266.82
500.97	283.20
501.14	311.29
501.32	257.46
501.49	311.29
501.67	215.33
501.84	248.10
502.02	215.33
502.20	210.65
502.37	264.48
502.55	212.99
502.72	227.03
502.90	194.26
503.07	220.01
503.25	287.89
503.43	287.89
503.60	278.52
503.78	301.93
503.95	276.18
504.13	250.44
504.30	229.37
504.48	229.37
504.65	271.50
504.83	259.80
505.01	297.25
505.18	273.84
505.36	255.12
505.53	276.18
505.71	245.76
505.88	285.55
506.06	241.08
506.23	231.71
506.41	255.12
506.58	245.76
506.76	215.33
506.93	271.50
507.11	222.35
507.28	215.33
507.46	180.22
507.63	301.93
507.81	205.97
507.98	280.86
508.16	234.05
508.33	271.50
508.50	252.78
508.68	198.95
508.85	217.67
509.03	224.69
509.20	215.33
509.38	248.10
509.55	220.01
509.73	189.58
509.90	294.91
510.08	334.70
510.25	234.05
510.42	250.44
510.60	231.71
510.77	318.31
510.95	313.63
511.12	217.67
511.30	245.76
511.47	301.93
511.64	308.95
511.82	276.18
511.99	290.23
512.17	236.39
512.34	210.65
512.51	231.71
512.69	217.67
512.86	308.95
513.04	262.14
513.21	248.10
513.38	234.05
513.56	177.88
513.73	285.55
513.90	283.20
514.08	236.39
514.25	245.76
514.43	285.55
514.60	315.97
514.77	241.08
514.95	229.37
515.12	241.08
515.29	241.08
515.47	304.27
515.64	231.71
515.81	320.65
515.99	332.36
516.16	252.78
516.33	276.18
516.51	175.54
516.68	217.67
516.85	304.27
517.03	210.65
517.20	208.31
517.37	156.82
517.54	198.95
517.72	173.20
517.89	217.67
518.06	227.03
518.24	278.52
518.41	304.27
518.58	203.63
518.75	208.31
518.93	311.29
519.10	184.90
519.27	290.23
519.45	308.95
519.62	224.69
519.79	304.27
519.96	271.50
520.14	290.23
520.31	308.95
520.48	276.18
520.65	346.40
520.83	358.10
521.00	252.78
521.17	243.42
521.34	322.99
521.52	301.93
521.69	283.20
521.86	306.61
522.03	208.31
522.20	285.55
522.38	276.18
522.55	187.24
522.72	222.35
522.89	255.12
523.07	322.99
523.24	182.56
523.41	311.29
523.58	280.86
523.75	322.99
523.92	301.93
524.10	327.68
524.27	257.46
524.44	238.73
524.61	339.38
524.78	222.35
524.96	245.76
525.13	212.99
525.30	278.52
525.47	248.10
525.64	262.14
525.81	332.36
525.98	278.52
526.16	224.69
526.33	248.10
526.50	229.37
526.67	198.95
526.84	245.76
527.01	257.46
527.18	299.59
527.36	269.16
527.53	220.01
527.70	257.46
527.87	269.16
528.04	344.06
528.21	290.23
528.38	308.95
528.55	337.04
528.72	299.59
528.89	381.51
529.07	301.93
529.24	252.78
529.41	330.02
529.58	236.39
529.75	250.44
529.92	327.68
530.09	301.93
530.26	224.69
530.43	287.89
530.60	259.80
530.77	365.12
530.94	306.61
531.11	243.42
531.28	224.69
531.46	245.76
531.63	278.52
531.80	297.25
531.97	320.65
532.14	203.63
532.31	264.48
532.48	348.74
532.65	383.85
532.82	416.62
532.99	402.57
533.16	402.57
533.33	318.31
533.50	308.95
533.67	411.93
533.84	376.83
534.01	510.24
534.18	442.36
534.35	383.85
534.52	348.74
534.69	322.99
534.86	313.63
535.03	292.57
535.20	290.23
535.37	315.97
535.54	315.97
535.71	325.33
535.88	276.18
536.05	313.63
536.22	299.59
536.38	304.27
536.55	327.68
536.72	369.80
536.89	241.08
537.06	360.44
537.23	241.08
537.40	308.95
537.57	231.71
537.74	311.29
537.91	304.27
538.08	367.46
538.25	348.74
538.42	269.16
538.59	283.20
538.75	252.78
538.92	285.55
539.09	311.29
539.26	255.12
539.43	573.43
539.60	1261.55
539.77	1933.28
539.94	1998.82
540.11	1345.81
540.28	924.51
540.44	662.37
540.61	449.38
540.78	369.80
540.95	423.64
541.12	430.66
541.29	444.70
541.46	496.19
541.62	463.43
541.79	435.34
541.96	414.27
542.13	470.45
542.30	456.40
542.47	454.06
542.63	461.09
542.80	465.77
542.97	465.77
543.14	369.80
543.31	447.04
543.48	454.06
543.64	458.74
543.81	442.36
543.98	390.87
544.15	355.76
544.32	447.04
544.48	414.27
544.65	454.06
544.82	477.47
544.99	449.38
545.16	470.45
545.32	451.72
545.49	655.35
545.66	791.10
545.83	896.43
546.00	814.51
546.16	622.58
546.33	470.45
546.50	402.57
546.67	510.24
546.83	388.53
547.00	418.96
547.17	383.85
547.34	360.44
547.50	315.97
547.67	390.87
547.84	383.85
548.00	414.27
548.17	397.89
548.34	339.38
548.51	463.43
548.67	365.12
548.84	355.76
549.01	320.65
549.18	320.65
549.34	290.23
549.51	383.85
549.68	447.04
549.84	280.86
550.01	351.08
550.18	418.96
550.34	451.72
550.51	376.83
550.68	381.51
550.84	330.02
551.01	330.02
551.18	313.63
551.34	327.68
551.51	318.31
551.68	320.65
551.84	290.23
552.01	304.27
552.18	229.37
552.34	372.15
552.51	266.82
552.68	306.61
552.84	332.36
553.01	334.70
553.18	318.31
553.34	308.95
553.51	313.63
553.67	245.76
553.84	299.59
554.01	365.12
554.17	346.40
554.34	290.23
554.51	358.10
554.67	388.53
554.84	264.48
555.00	257.46
555.17	346.40
555.33	306.61
555.50	332.36
555.67	285.55
555.83	334.70
556.00	290.23
556.16	437.68
556.33	348.74
556.50	238.73
556.66	184.90
556.83	243.42
556.99	273.84
557.16	299.59
557.32	337.04
557.49	243.42
557.65	287.89
557.82	248.10
557.98	224.69
558.15	280.86
558.32	245.76
558.48	320.65
558.65	292.57
558.81	290.23
558.98	266.82
559.14	259.80
559.31	187.24
559.47	243.42
559.64	243.42
559.80	271.50
559.97	201.29
560.13	271.50
560.30	278.52
560.46	250.44
560.63	271.50
560.79	273.84
560.96	285.55
561.12	262.14
561.29	241.08
561.45	276.18
561.61	276.18
561.78	353.42
561.94	252.78
562.11	252.78
562.27	313.63
562.44	297.25
562.60	264.48
562.77	210.65
562.93	285.55
563.10	278.52
563.26	252.78
563.42	285.55
563.59	290.23
563.75	194.26
563.92	276.18
564.08	259.80
564.24	332.36
564.41	341.72
564.57	283.20
564.74	294.91
564.90	306.61
565.07	327.68
565.23	280.86
565.39	262.14
565.56	341.72
565.72	332.36
565.88	334.70
566.05	330.02
566.21	255.12
566.38	222.35
566.54	248.10
566.70	252.78
566.87	227.03
567.03	294.91
567.19	243.42
567.36	313.63
567.52	259.80
567.68	280.86
567.85	259.80
568.01	238.73
568.17	217.67
568.34	229.37
568.50	292.57
568.66	355.76
568.83	271.50
568.99	264.48
569.15	334.70
569.32	285.55
569.48	245.76
569.64	250.44
569.81	311.29
569.97	299.59
570.13	252.78
570.30	210.65
570.46	297.25
570.62	234.05
570.78	243.42
570.95	220.01
571.11	266.82
571.27	238.73
571.43	229.37
571.60	266.82
571.76	341.72
571.92	280.86
572.09	198.95
572.25	229.37
572.41	308.95
572.57	271.50
572.74	367.46
572.90	264.48
573.06	201.29
573.22	297.25
573.38	332.36
573.55	231.71
573.71	332.36
573.87	227.03
574.03	278.52
574.20	238.73
574.36	355.76
574.52	332.36
574.68	393.21
574.84	297.25
575.01	404.91
575.17	243.42
575.33	355.76
575.49	290.23
575.65	308.95
575.82	369.80
575.98	645.99
576.14	802.80
576.30	905.79
576.46	706.84
576.62	543.00
576.79	510.24
576.95	444.70
577.11	395.55
577.27	337.04
577.43	351.08
577.59	322.99
577.75	306.61
577.92	381.51
578.08	294.91
578.24	283.20
578.40	379.17
578.56	418.96
578.72	461.09
578.88	416.62
579.04	379.17
579.21	372.15
579.37	402.57
579.53	381.51
579.69	369.80
579.85	433.00
580.01	477.47
580.17	435.34
580.33	500.87
580.49	491.51
580.65	421.30
580.82	402.57
580.98	376.83
581.14	369.80
581.30	416.62
581.46	533.64
581.62	674.07
581.78	770.04
581.94	765.36
582.10	592.16
582.26	566.41
582.42	538.32
582.58	601.52
582.74	559.39
582.90	498.53
583.06	531.30
583.22	528.96
583.38	571.09
583.54	653.01
583.70	688.12
583.86	814.51
584.02	978.34
584.18	1107.07
584.34	1404.32
584.50	3459.31
584.66	24751.17
584.82	59306.83
584.98	65535.00
585.14	65535.00
585.30	59040.01
585.46	35409.96
585.62	22204.66
585.78	10186.01
585.94	4114.66
586.10	1996.48
586.26	1341.13
586.42	1102.39
586.58	828.55
586.74	772.38
586.90	755.99
587.06	730.25
587.22	674.07
587.38	720.88
587.54	1376.24
587.70	3843.16
587.86	6761.81
588.02	7768.24
588.18	5458.13
588.34	3574.00
588.49	2392.03
588.65	1467.52
588.81	812.17
588.97	456.40
589.13	407.25
589.29	339.38
589.45	322.99
589.61	362.78
589.77	451.72
589.93	489.17
590.08	641.31
590.24	589.82
590.40	603.86
590.56	493.85
590.72	444.70
590.88	400.23
591.04	477.47
591.20	397.89
591.35	411.93
591.51	423.64
591.67	400.23
591.83	353.42
591.99	348.74
592.15	416.62
592.31	430.66
592.46	395.55
592.62	430.66
592.78	423.64
592.94	425.98
593.10	440.02
593.26	421.30
593.41	454.06
593.57	463.43
593.73	725.57
593.89	2951.42
594.05	8283.16
594.20	13252.11
594.36	12746.56
594.52	8381.46
594.68	5118.75
594.84	3538.89
594.99	1884.13
595.15	929.19
595.31	624.92
595.47	493.85
595.62	341.72
595.78	353.42
595.94	428.32
596.10	447.04
596.25	381.51
596.41	449.38
596.57	447.04
596.73	381.51
596.88	648.33
597.04	1582.20
597.20	2705.66
597.36	3316.54
597.51	2630.76
597.67	1710.93
597.83	1102.39
597.99	814.51
598.14	578.11
598.30	489.17
598.46	390.87
598.61	451.72
598.77	390.87
598.93	386.19
599.09	442.36
599.24	320.65
599.40	348.74
599.56	283.20
599.71	425.98
599.87	341.72
600.03	362.78
600.18	292.57
600.34	327.68
600.50	299.59
600.65	320.65
600.81	264.48
600.97	280.86
601.12	224.69
601.28	322.99
601.44	231.71
601.59	285.55
601.75	252.78
601.91	379.17
602.06	320.65
602.22	360.44
602.37	716.20
602.53	1909.88
602.69	3255.69
602.84	3428.88
603.00	2572.25
603.16	1762.42
603.31	1217.08
603.47	786.42
603.62	493.85
603.78	407.25
603.94	344.06
604.09	421.30
604.25	379.17
604.40	353.42
604.56	339.38
604.71	400.23
604.87	339.38
605.03	320.65
605.18	360.44
605.34	383.85
605.49	360.44
605.65	348.74
605.80	372.15
605.96	339.38
606.12	327.68
606.27	423.64
606.43	421.30
606.58	416.62
606.74	919.83
606.89	3653.58
607.05	7777.60
607.20	11297.77
607.36	9231.07
607.51	6258.59
607.67	4065.51
607.82	2768.85
607.98	1521.35
608.13	840.25
608.29	557.05
608.44	540.66
608.60	564.07
608.75	669.39
608.91	1287.29
609.06	5636.01
609.22	13497.87
609.37	19948.39
609.53	17689.77
609.68	11925.03
609.84	7503.76
609.99	4978.32
610.15	2803.96
610.30	1483.90
610.46	976.00
610.61	947.92
610.76	828.55
610.92	924.51
611.07	1013.45
611.23	1046.22
611.38	992.39
611.54	919.83
611.69	737.27
611.84	744.29
612.00	655.35
612.15	517.26
612.31	755.99
612.46	880.04
612.62	1074.31
612.77	961.96
612.92	917.49
613.08	926.85
613.23	732.59
613.39	711.52
613.54	1078.99
613.69	5170.24
613.85	15697.97
614.00	27655.77
614.15	30965.29
614.31	22010.40
614.46	13937.89
614.62	9432.36
614.77	5628.99
614.92	2773.53
615.08	1320.06
615.23	889.40
615.38	631.94
615.54	627.26
615.69	1034.52
615.84	3171.43
616.00	6246.89
616.15	8109.96
616.30	6654.14
616.46	4533.62
616.61	2960.78
616.76	2076.06
616.92	1177.29
617.07	711.52
617.22	491.51
617.37	451.72
617.53	379.17
617.68	461.09
617.83	423.64
617.99	428.32
618.14	425.98
618.29	397.89
618.45	355.76
618.60	362.78
618.75	301.93
618.90	362.78
619.06	292.57
619.21	397.89
619.36	313.63
619.51	280.86
619.67	353.42
619.82	325.33
619.97	315.97
620.12	269.16
620.28	414.27
620.43	386.19
620.58	362.78
620.73	337.04
620.89	418.96
621.04	641.31
621.19	1701.57
621.34	3316.54
621.49	4762.99
621.65	4360.42
621.80	3211.22
621.95	2104.14
622.10	1481.56
622.25	903.45
622.41	552.37
622.56	379.17
622.71	334.70
622.86	346.40
623.01	318.31
623.16	315.97
623.32	388.53
623.47	315.97
623.62	327.68
623.77	315.97
623.92	322.99
624.07	280.86
624.23	318.31
624.38	311.29
624.53	318.31
624.68	351.08
624.83	381.51
624.98	376.83
625.13	308.95
625.29	285.55
625.44	388.53
625.59	369.80
625.74	437.68
625.89	573.43
626.04	2583.95
626.19	7801.01
626.34	13633.62
626.49	16205.87
626.65	12025.67
626.80	7948.46
626.95	5430.04
627.10	3215.90
627.25	1638.38
627.40	851.96
627.55	538.32
627.70	388.53
627.85	411.93
628.00	369.80
628.15	386.19
628.30	337.04
628.45	339.38
628.60	290.23
628.76	341.72
628.91	266.82
629.06	344.06
629.21	299.59
629.36	374.49
629.51	369.80
629.66	346.40
629.81	545.34
629.96	1401.98
630.11	2871.84
630.26	4042.11
630.41	3775.28
630.56	2715.02
630.71	1891.15
630.86	1299.00
631.01	765.36
631.16	519.60
631.31	437.68
631.46	411.93
631.61	327.68
631.76	411.93
631.91	304.27
632.06	367.46
632.21	238.73
632.36	407.25
632.51	407.25
632.66	540.66
632.81	1231.12
632.96	4189.56
633.10	8100.59
633.25	10913.92
633.40	8826.16
633.55	6387.32
633.70	4287.86
633.85	2864.82
634.00	1432.41
634.15	774.72
634.30	500.87
634.45	330.02
634.60	327.68
634.75	283.20
634.90	322.99
635.05	372.15
635.19	227.03
635.34	276.18
635.49	285.55
635.64	297.25
635.79	271.50
635.94	383.85
636.09	423.64
636.24	325.33
636.39	287.89
636.53	315.97
636.68	287.89
636.83	355.76
636.98	369.80
637.13	304.27
637.28	330.02
637.43	512.58
637.57	774.72
637.72	3332.92
637.87	10118.14
638.02	17408.90
638.17	20304.15
638.32	15002.83
638.46	10083.03
638.61	6801.60
638.76	4049.13
638.91	2087.76
639.06	1039.20
639.20	844.93
639.35	746.63
639.50	1020.47
639.65	4964.28
639.80	15077.73
639.94	26008.03
640.09	30801.45
640.24	22745.33
640.39	15220.50
640.54	10038.56
640.68	6146.25
640.83	3038.02
640.98	1387.94
641.13	753.65
641.27	519.60
641.42	486.83
641.57	383.85
641.72	372.15
641.86	376.83
642.01	379.17
642.16	362.78
642.31	297.25
642.45	290.23
642.60	285.55
642.75	290.23
642.90	271.50
643.04	264.48
643.19	194.26
643.34	308.95
643.48	255.12
643.63	308.95
643.78	248.10
643.93	304.27
644.07	243.42
644.22	259.80
644.37	210.65
644.51	306.61
644.66	229.37
644.81	287.89
644.95	280.86
645.10	278.52
645.25	278.52
645.39	283.20
645.54	290.23
645.69	339.38
645.83	189.58
645.98	280.86
646.13	149.79
646.27	332.36
646.42	205.97
646.57	252.78
646.71	283.20
646.86	255.12
647.00	290.23
647.15	227.03
647.30	280.86
647.44	259.80
647.59	259.80
647.74	259.80
647.88	276.18
648.03	243.42
648.17	290.23
648.32	215.33
648.47	276.18
648.61	308.95
648.76	301.93
648.90	212.99
649.05	229.37
649.20	308.95
649.34	294.91
649.49	327.68
649.63	306.61
649.78	379.17
649.92	554.71
650.07	1928.60
650.21	6597.97
650.36	12379.09
650.51	16175.44
650.65	13184.24
650.80	9266.18
650.94	6076.03
651.09	3885.29
651.23	2094.78
651.38	964.30
651.52	568.75
651.67	428.32
651.81	397.89
651.96	315.97
652.10	376.83
652.25	325.33
652.39	285.55
652.54	344.06
652.68	678.76
652.83	2122.87
652.97	4273.82
653.12	5717.93
653.26	5015.77
653.41	3784.65
653.55	2600.34
653.70	1673.48
653.84	1057.92
653.99	608.54
654.13	393.21
654.27	365.12
654.42	330.02
654.56	301.93
654.71	334.70
654.85	180.22
655.00	205.97
655.14	217.67
655.29	224.69
655.43	245.76
655.57	187.24
655.72	231.71
655.86	231.71
656.01	243.42
656.15	184.90
656.30	238.73
656.44	330.02
656.58	285.55
656.73	236.39
656.87	241.08
657.01	231.71
657.16	287.89
657.30	259.80
657.45	278.52
657.59	175.54
657.73	222.35
657.88	306.61
658.02	315.97
658.16	250.44
658.31	224.69
658.45	182.56
658.60	208.31
658.74	294.91
658.88	273.84
659.03	257.46
659.17	362.78
659.31	828.55
659.46	3035.67
659.60	5830.27
659.74	8021.02
659.89	7157.36
660.03	5170.24
660.17	3517.83
660.32	2193.08
660.46	1294.32
660.60	770.04
660.74	498.53
660.89	369.80
661.03	315.97
661.17	194.26
661.32	243.42
661.46	245.76
661.60	215.33
661.74	250.44
661.89	191.92
662.03	252.78
662.17	238.73
662.31	287.89
662.46	212.99
662.60	212.99
662.74	276.18
662.88	262.14
663.03	241.08
663.17	238.73
663.31	236.39
663.45	191.92
663.60	262.14
663.74	220.01
663.88	210.65
664.02	220.01
664.17	220.01
664.31	241.08
664.45	201.29
664.59	220.01
664.73	283.20
664.88	283.20
665.02	250.44
665.16	227.03
665.30	304.27
665.44	297.25
665.59	276.18
665.73	238.73
665.87	252.78
666.01	208.31
666.15	234.05
666.29	189.58
666.44	266.82
666.58	290.23
666.72	367.46
666.86	280.86
667.00	365.12
667.14	421.30
667.28	1912.22
667.43	5696.86
667.57	10473.90
667.71	13949.59
667.85	11969.50
667.99	9205.33
668.13	5598.56
668.27	3318.88
668.41	1975.41
668.56	1097.71
668.70	723.23
668.84	477.47
668.98	318.31
669.12	304.27
669.26	262.14
669.40	315.97
669.54	259.80
669.68	294.91
669.82	229.37
669.96	259.80
670.10	217.67
670.25	278.52
670.39	262.14
670.53	234.05
670.67	320.65
670.81	283.20
670.95	430.66
671.09	535.98
671.23	2024.56
671.37	4786.40
671.51	7653.55
671.65	8865.95
671.79	6906.92
671.93	4741.93
672.07	2956.10
672.21	1757.74
672.35	1004.09
672.49	688.12
672.63	477.47
672.77	330.02
672.91	353.42
673.05	203.63
673.19	196.60
673.33	276.18
673.47	287.89
673.61	177.88
673.75	273.84
673.89	229.37
674.03	259.80
674.17	238.73
674.31	203.63
674.45	196.60
674.59	215.33
674.73	250.44
674.87	245.76
675.01	252.78
675.15	341.72
675.29	280.86
675.43	318.31
675.56	250.44
675.70	290.23
675.84	276.18
675.98	241.08
676.12	210.65
676.26	220.01
676.40	196.60
676.54	161.50
676.68	238.73
676.82	212.99
676.96	224.69
677.10	201.29
677.23	229.37
677.37	210.65
677.51	222.35
677.65	191.92
677.79	180.22
677.93	182.56
678.07	234.05
678.21	215.33
678.34	142.77
678.48	140.43
678.62	236.39
678.76	198.95
678.90	203.63
679.04	191.92
679.18	194.26
679.31	142.77
679.45	168.52
679.59	198.95
679.73	173.20
679.87	212.99
680.00	215.33
680.14	100.64
680.28	177.88
680.42	210.65
680.56	299.59
680.70	189.58
680.83	229.37
680.97	191.92
681.11	201.29
681.25	238.73
681.39	210.65
681.52	238.73
681.66	212.99
681.80	191.92
681.94	191.92
682.07	170.86
682.21	142.77
682.35	147.45
682.49	212.99
682.62	180.22
682.76	177.88
682.90	210.65
683.04	159.16
683.17	184.90
683.31	212.99
683.45	231.71
683.59	212.99
683.72	187.24
683.86	210.65
684.00	191.92
684.13	224.69
684.27	215.33
684.41	173.20
684.55	145.11
684.68	184.90
684.82	182.56
684.96	154.48
685.09	194.26
685.23	278.52
685.37	191.92
685.50	215.33
685.64	231.71
685.78	138.09
685.91	170.86
686.05	205.97
686.19	180.22
686.32	191.92
686.46	208.31
686.60	234.05
686.73	299.59
686.87	285.55
687.01	294.91
687.14	320.65
687.28	189.58
687.42	205.97
687.55	222.35
687.69	189.58
687.82	184.90
687.96	180.22
688.10	208.31
688.23	152.13
688.37	224.69
688.50	163.84
688.64	135.75
688.78	196.60
688.91	194.26
689.05	182.56
689.18	210.65
689.32	173.20
689.46	220.01
689.59	210.65
689.73	248.10
689.86	201.29
690.00	191.92
690.13	231.71
690.27	182.56
690.41	212.99
690.54	208.31
690.68	191.92
690.81	201.29
690.95	198.95
691.08	212.99
691.22	154.48
691.35	203.63
691.49	156.82
691.62	140.43
691.76	205.97
691.89	133.41
692.03	110.01
692.16	250.44
692.30	301.93
692.43	718.54
692.57	2232.87
692.70	4409.57
692.84	5863.04
692.97	5533.03
693.11	4238.71
693.24	3033.33
693.38	2033.93
693.51	1373.89
693.65	947.92
693.78	655.35
693.92	461.09
694.05	330.02
694.19	252.78
694.32	325.33
694.45	194.26
694.59	135.75
694.72	198.95
694.86	189.58
694.99	220.01
695.13	154.48
695.26	196.60
695.39	180.22
695.53	222.35
695.66	217.67
695.80	201.29
695.93	175.54
696.07	208.31
696.20	292.57
696.33	351.08
696.47	554.71
696.60	461.09
696.73	421.30
696.87	404.91
697.00	294.91
697.14	241.08
697.27	241.08
697.40	236.39
697.54	142.77
697.67	159.16
697.80	112.35
697.94	135.75
698.07	163.84
698.21	194.26
698.34	154.48
698.47	168.52
698.61	182.56
698.74	159.16
698.87	222.35
699.01	189.58
699.14	241.08
699.27	182.56
699.40	278.52
699.54	152.13
699.67	154.48
699.80	196.60
699.94	133.41
700.07	152.13
700.20	152.13
700.34	159.16
700.47	173.20
700.60	294.91
700.73	182.56
700.87	231.71
701.00	229.37
701.13	142.77
701.26	224.69
701.40	196.60
701.53	201.29
701.66	198.95
701.79	175.54
701.93	301.93
702.06	322.99
702.19	355.76
702.32	528.96
702.46	514.92
702.59	545.34
702.72	959.62
702.85	2928.01
702.99	6745.42
703.12	10368.57
703.25	12182.49
703.38	10242.18
703.51	8243.37
703.65	6553.50
703.78	4631.92
703.91	2956.10
704.04	1884.13
704.17	1261.55
704.31	697.48
704.44	543.00
704.57	393.21
704.70	299.59
704.83	227.03
704.96	248.10
705.10	212.99
705.23	250.44
>>>>>End Processed Spectral Data<<<<<
