SpectraSuite Data File
++++++++++++++++++++++++++++++++++++
Date: Fri Oct 04 11:33:47 GMT-05:00 2013
User: price-jones
Dark Spectrum Present: No
Reference Spectrum Present: No
Number of Sampled Component Spectra: 1
Spectrometers: USB2+H05261
Integration Time (usec): 100000 (USB2+H05261)
Spectra Averaged: 1 (USB2+H05261)
Boxcar Smoothing: 0 (USB2+H05261)
Correct for Electrical Dark: No (USB2+H05261)
Strobe/Lamp Enabled: No (USB2+H05261)
Correct for Detector Non-linearity: No (USB2+H05261)
Correct for Stray Light: No (USB2+H05261)
Number of Pixels in Processed Spectrum: 2048
>>>>>Begin Processed Spectral Data<<<<<
365.73	23.41
365.92	23.41
366.12	23.41
366.32	35.11
366.52	0.00
366.72	0.00
366.91	0.00
367.11	0.00
367.31	0.00
367.51	0.00
367.70	0.00
367.90	0.00
368.10	0.00
368.30	0.00
368.49	0.00
368.69	0.00
368.89	0.00
369.09	0.00
369.28	0.00
369.48	0.00
369.68	0.00
369.87	0.00
370.07	37.45
370.27	77.24
370.47	51.49
370.66	0.00
370.86	84.26
371.06	152.13
371.25	110.01
371.45	16.38
371.65	126.39
371.84	102.98
372.04	67.88
372.24	25.75
372.44	163.84
372.63	196.60
372.83	145.11
373.03	196.60
373.22	72.56
373.42	124.05
373.62	140.43
373.81	117.03
374.01	182.56
374.21	166.18
374.40	100.64
374.60	234.05
374.79	224.69
374.99	112.35
375.19	95.96
375.38	128.73
375.58	170.86
375.78	205.97
375.97	222.35
376.17	210.65
376.37	117.03
376.56	149.79
376.76	149.79
376.95	140.43
377.15	142.77
377.35	175.54
377.54	184.90
377.74	72.56
377.93	93.62
378.13	100.64
378.33	168.52
378.52	142.77
378.72	187.24
378.91	173.20
379.11	124.05
379.31	198.95
379.50	124.05
379.70	163.84
379.89	128.73
380.09	222.35
380.28	145.11
380.48	180.22
380.68	138.09
380.87	180.22
381.07	126.39
381.26	215.33
381.46	121.71
381.65	203.63
381.85	86.60
382.04	138.09
382.24	72.56
382.43	112.35
382.63	124.05
382.83	107.66
383.02	86.60
383.22	203.63
383.41	156.82
383.61	198.95
383.80	145.11
384.00	107.66
384.19	124.05
384.39	72.56
384.58	182.56
384.78	135.75
384.97	145.11
385.17	180.22
385.36	201.29
385.56	91.28
385.75	72.56
385.95	126.39
386.14	182.56
386.34	156.82
386.53	149.79
386.72	154.48
386.92	124.05
387.11	135.75
387.31	142.77
387.50	91.28
387.70	161.50
387.89	79.58
388.09	138.09
388.28	175.54
388.48	161.50
388.67	133.41
388.86	119.37
389.06	229.37
389.25	149.79
389.45	110.01
389.64	163.84
389.84	217.67
390.03	173.20
390.22	121.71
390.42	126.39
390.61	142.77
390.81	175.54
391.00	147.45
391.19	217.67
391.39	212.99
391.58	128.73
391.78	163.84
391.97	163.84
392.16	154.48
392.36	173.20
392.55	191.92
392.75	138.09
392.94	98.30
393.13	152.13
393.33	227.03
393.52	156.82
393.71	154.48
393.91	98.30
394.10	77.24
394.29	152.13
394.49	133.41
394.68	142.77
394.88	112.35
395.07	154.48
395.26	170.86
395.46	191.92
395.65	163.84
395.84	196.60
396.04	173.20
396.23	100.64
396.42	203.63
396.62	259.80
396.81	222.35
397.00	184.90
397.19	163.84
397.39	175.54
397.58	182.56
397.77	117.03
397.97	180.22
398.16	161.50
398.35	177.88
398.55	102.98
398.74	175.54
398.93	196.60
399.12	142.77
399.32	205.97
399.51	163.84
399.70	243.42
399.90	126.39
400.09	110.01
400.28	194.26
400.47	112.35
400.67	203.63
400.86	175.54
401.05	203.63
401.24	222.35
401.44	184.90
401.63	133.41
401.82	159.16
402.01	191.92
402.21	182.56
402.40	163.84
402.59	126.39
402.78	224.69
402.97	196.60
403.17	238.73
403.36	102.98
403.55	133.41
403.74	152.13
403.93	220.01
404.13	217.67
404.32	208.31
404.51	196.60
404.70	248.10
404.89	224.69
405.09	208.31
405.28	65.54
405.47	135.75
405.66	182.56
405.85	124.05
406.05	215.33
406.24	166.18
406.43	177.88
406.62	163.84
406.81	191.92
407.00	212.99
407.20	159.16
407.39	147.45
407.58	156.82
407.77	147.45
407.96	161.50
408.15	138.09
408.34	140.43
408.54	191.92
408.73	152.13
408.92	133.41
409.11	166.18
409.30	205.97
409.49	114.69
409.68	142.77
409.87	121.71
410.07	149.79
410.26	107.66
410.45	231.71
410.64	194.26
410.83	191.92
411.02	67.88
411.21	203.63
411.40	159.16
411.59	156.82
411.78	110.01
411.98	119.37
412.17	126.39
412.36	168.52
412.55	180.22
412.74	194.26
412.93	248.10
413.12	163.84
413.31	149.79
413.50	205.97
413.69	112.35
413.88	203.63
414.07	119.37
414.26	128.73
414.45	126.39
414.64	180.22
414.83	217.67
415.02	187.24
415.22	196.60
415.41	308.95
415.60	182.56
415.79	205.97
415.98	257.46
416.17	271.50
416.36	138.09
416.55	208.31
416.74	299.59
416.93	173.20
417.12	205.97
417.31	189.58
417.50	145.11
417.69	154.48
417.88	142.77
418.07	154.48
418.26	180.22
418.45	189.58
418.64	229.37
418.83	217.67
419.02	156.82
419.21	177.88
419.39	236.39
419.58	145.11
419.77	257.46
419.96	215.33
420.15	140.43
420.34	198.95
420.53	126.39
420.72	227.03
420.91	149.79
421.10	161.50
421.29	220.01
421.48	140.43
421.67	194.26
421.86	117.03
422.05	119.37
422.24	182.56
422.43	231.71
422.61	135.75
422.80	175.54
422.99	194.26
423.18	117.03
423.37	163.84
423.56	208.31
423.75	149.79
423.94	135.75
424.13	184.90
424.32	126.39
424.50	266.82
424.69	119.37
424.88	236.39
425.07	119.37
425.26	170.86
425.45	163.84
425.64	194.26
425.83	177.88
426.01	264.48
426.20	154.48
426.39	105.32
426.58	105.32
426.77	234.05
426.96	198.95
427.15	175.54
427.33	88.94
427.52	187.24
427.71	147.45
427.90	163.84
428.09	121.71
428.28	156.82
428.46	184.90
428.65	203.63
428.84	133.41
429.03	212.99
429.22	147.45
429.40	198.95
429.59	51.49
429.78	215.33
429.97	154.48
430.16	236.39
430.34	224.69
430.53	105.32
430.72	184.90
430.91	173.20
431.10	163.84
431.28	187.24
431.47	215.33
431.66	175.54
431.85	196.60
432.03	220.01
432.22	163.84
432.41	224.69
432.60	159.16
432.79	198.95
432.97	189.58
433.16	187.24
433.35	196.60
433.54	170.86
433.72	210.65
433.91	175.54
434.10	159.16
434.28	234.05
434.47	245.76
434.66	177.88
434.85	191.92
435.03	191.92
435.22	285.55
435.41	437.68
435.59	411.93
435.78	339.38
435.97	346.40
436.16	264.48
436.34	196.60
436.53	93.62
436.72	252.78
436.90	161.50
437.09	229.37
437.28	147.45
437.46	166.18
437.65	177.88
437.84	238.73
438.02	212.99
438.21	241.08
438.40	205.97
438.58	156.82
438.77	196.60
438.96	180.22
439.14	191.92
439.33	138.09
439.52	229.37
439.70	191.92
439.89	205.97
440.08	159.16
440.26	198.95
440.45	229.37
440.63	217.67
440.82	217.67
441.01	154.48
441.19	173.20
441.38	182.56
441.57	163.84
441.75	187.24
441.94	210.65
442.12	198.95
442.31	201.29
442.50	126.39
442.68	173.20
442.87	156.82
443.05	152.13
443.24	241.08
443.43	187.24
443.61	187.24
443.80	180.22
443.98	156.82
444.17	175.54
444.35	196.60
444.54	156.82
444.73	175.54
444.91	205.97
445.10	184.90
445.28	191.92
445.47	257.46
445.65	177.88
445.84	191.92
446.02	264.48
446.21	198.95
446.39	154.48
446.58	198.95
446.77	212.99
446.95	135.75
447.14	227.03
447.32	231.71
447.51	175.54
447.69	243.42
447.88	257.46
448.06	187.24
448.25	159.16
448.43	163.84
448.62	212.99
448.80	212.99
448.99	177.88
449.17	159.16
449.36	166.18
449.54	266.82
449.73	243.42
449.91	255.12
450.10	189.58
450.28	278.52
450.46	290.23
450.65	168.52
450.83	187.24
451.02	203.63
451.20	243.42
451.39	236.39
451.57	222.35
451.76	215.33
451.94	217.67
452.13	135.75
452.31	131.07
452.49	194.26
452.68	156.82
452.86	212.99
453.05	224.69
453.23	198.95
453.42	222.35
453.60	217.67
453.78	196.60
453.97	205.97
454.15	114.69
454.34	110.01
454.52	168.52
454.70	194.26
454.89	224.69
455.07	187.24
455.26	196.60
455.44	248.10
455.62	156.82
455.81	287.89
455.99	159.16
456.17	217.67
456.36	187.24
456.54	217.67
456.73	229.37
456.91	248.10
457.09	227.03
457.28	208.31
457.46	168.52
457.64	217.67
457.83	191.92
458.01	161.50
458.19	238.73
458.38	243.42
458.56	182.56
458.74	135.75
458.93	177.88
459.11	229.37
459.29	161.50
459.48	196.60
459.66	196.60
459.84	189.58
460.03	229.37
460.21	231.71
460.39	252.78
460.57	177.88
460.76	203.63
460.94	180.22
461.12	285.55
461.31	257.46
461.49	161.50
461.67	250.44
461.85	168.52
462.04	187.24
462.22	547.69
462.40	241.08
462.59	227.03
462.77	266.82
462.95	201.29
463.13	220.01
463.32	245.76
463.50	227.03
463.68	205.97
463.86	262.14
464.05	166.18
464.23	163.84
464.41	215.33
464.59	224.69
464.78	138.09
464.96	140.43
465.14	259.80
465.32	217.67
465.50	187.24
465.69	227.03
465.87	182.56
466.05	238.73
466.23	234.05
466.41	182.56
466.60	196.60
466.78	217.67
466.96	297.25
467.14	264.48
467.32	250.44
467.51	187.24
467.69	264.48
467.87	145.11
468.05	194.26
468.23	220.01
468.41	182.56
468.60	201.29
468.78	229.37
468.96	203.63
469.14	203.63
469.32	243.42
469.50	196.60
469.69	203.63
469.87	255.12
470.05	273.84
470.23	135.75
470.41	212.99
470.59	217.67
470.77	248.10
470.95	320.65
471.14	194.26
471.32	184.90
471.50	173.20
471.68	203.63
471.86	248.10
472.04	269.16
472.22	250.44
472.40	180.22
472.58	156.82
472.77	152.13
472.95	166.18
473.13	313.63
473.31	276.18
473.49	187.24
473.67	159.16
473.85	147.45
474.03	135.75
474.21	131.07
474.39	187.24
474.57	266.82
474.75	212.99
474.93	166.18
475.12	248.10
475.30	154.48
475.48	227.03
475.66	175.54
475.84	208.31
476.02	180.22
476.20	189.58
476.38	224.69
476.56	287.89
476.74	276.18
476.92	210.65
477.10	168.52
477.28	187.24
477.46	255.12
477.64	262.14
477.82	175.54
478.00	257.46
478.18	248.10
478.36	182.56
478.54	182.56
478.72	255.12
478.90	264.48
479.08	198.95
479.26	173.20
479.44	266.82
479.62	245.76
479.80	184.90
479.98	196.60
480.16	166.18
480.34	257.46
480.52	231.71
480.70	308.95
480.88	217.67
481.06	252.78
481.24	149.79
481.41	262.14
481.59	285.55
481.77	212.99
481.95	184.90
482.13	283.20
482.31	220.01
482.49	166.18
482.67	262.14
482.85	196.60
483.03	252.78
483.21	259.80
483.39	224.69
483.57	297.25
483.74	189.58
483.92	182.56
484.10	245.76
484.28	273.84
484.46	362.78
484.64	222.35
484.82	273.84
485.00	241.08
485.18	276.18
485.35	234.05
485.53	210.65
485.71	283.20
485.89	236.39
486.07	236.39
486.25	250.44
486.43	245.76
486.61	248.10
486.78	250.44
486.96	276.18
487.14	191.92
487.32	269.16
487.50	241.08
487.68	278.52
487.85	320.65
488.03	320.65
488.21	255.12
488.39	297.25
488.57	269.16
488.75	283.20
488.92	498.53
489.10	294.91
489.28	294.91
489.46	264.48
489.64	273.84
489.81	285.55
489.99	241.08
490.17	243.42
490.35	315.97
490.53	245.76
490.70	266.82
490.88	252.78
491.06	308.95
491.24	313.63
491.41	299.59
491.59	231.71
491.77	234.05
491.95	173.20
492.13	315.97
492.30	285.55
492.48	266.82
492.66	301.93
492.84	273.84
493.01	346.40
493.19	241.08
493.37	318.31
493.54	262.14
493.72	257.46
493.90	234.05
494.08	322.99
494.25	315.97
494.43	273.84
494.61	264.48
494.79	241.08
494.96	217.67
495.14	271.50
495.32	301.93
495.49	264.48
495.67	327.68
495.85	346.40
496.02	217.67
496.20	198.95
496.38	236.39
496.55	362.78
496.73	297.25
496.91	215.33
497.09	355.76
497.26	337.04
497.44	287.89
497.62	255.12
497.79	229.37
497.97	269.16
498.14	290.23
498.32	301.93
498.50	264.48
498.67	262.14
498.85	290.23
499.03	231.71
499.20	308.95
499.38	255.12
499.56	304.27
499.73	266.82
499.91	269.16
500.08	224.69
500.26	301.93
500.44	308.95
500.61	301.93
500.79	353.42
500.97	367.46
501.14	299.59
501.32	257.46
501.49	238.73
501.67	222.35
501.84	215.33
502.02	191.92
502.20	269.16
502.37	266.82
502.55	292.57
502.72	262.14
502.90	215.33
503.07	327.68
503.25	208.31
503.43	318.31
503.60	264.48
503.78	243.42
503.95	294.91
504.13	231.71
504.30	234.05
504.48	280.86
504.65	313.63
504.83	353.42
505.01	379.17
505.18	250.44
505.36	264.48
505.53	234.05
505.71	241.08
505.88	255.12
506.06	259.80
506.23	271.50
506.41	308.95
506.58	257.46
506.76	203.63
506.93	318.31
507.11	313.63
507.28	315.97
507.46	290.23
507.63	318.31
507.81	250.44
507.98	276.18
508.16	264.48
508.33	255.12
508.50	203.63
508.68	259.80
508.85	271.50
509.03	243.42
509.20	255.12
509.38	360.44
509.55	306.61
509.73	341.72
509.90	285.55
510.08	245.76
510.25	315.97
510.42	234.05
510.60	271.50
510.77	269.16
510.95	308.95
511.12	262.14
511.30	278.52
511.47	369.80
511.64	315.97
511.82	341.72
511.99	252.78
512.17	297.25
512.34	308.95
512.51	210.65
512.69	194.26
512.86	306.61
513.04	262.14
513.21	290.23
513.38	287.89
513.56	301.93
513.73	301.93
513.90	276.18
514.08	210.65
514.25	362.78
514.43	294.91
514.60	259.80
514.77	332.36
514.95	266.82
515.12	255.12
515.29	327.68
515.47	245.76
515.64	290.23
515.81	269.16
515.99	334.70
516.16	250.44
516.33	273.84
516.51	290.23
516.68	276.18
516.85	241.08
517.03	264.48
517.20	287.89
517.37	304.27
517.54	325.33
517.72	257.46
517.89	257.46
518.06	215.33
518.24	285.55
518.41	227.03
518.58	229.37
518.75	315.97
518.93	255.12
519.10	320.65
519.27	320.65
519.45	294.91
519.62	306.61
519.79	313.63
519.96	264.48
520.14	325.33
520.31	262.14
520.48	264.48
520.65	294.91
520.83	266.82
521.00	308.95
521.17	210.65
521.34	250.44
521.52	346.40
521.69	252.78
521.86	271.50
522.03	271.50
522.20	344.06
522.38	243.42
522.55	222.35
522.72	276.18
522.89	339.38
523.07	325.33
523.24	287.89
523.41	346.40
523.58	248.10
523.75	276.18
523.92	304.27
524.10	330.02
524.27	330.02
524.44	330.02
524.61	318.31
524.78	330.02
524.96	327.68
525.13	276.18
525.30	322.99
525.47	313.63
525.64	337.04
525.81	299.59
525.98	273.84
526.16	257.46
526.33	287.89
526.50	280.86
526.67	280.86
526.84	252.78
527.01	301.93
527.18	318.31
527.36	353.42
527.53	245.76
527.70	339.38
527.87	332.36
528.04	355.76
528.21	273.84
528.38	348.74
528.55	337.04
528.72	386.19
528.89	358.10
529.07	220.01
529.24	304.27
529.41	346.40
529.58	229.37
529.75	191.92
529.92	381.51
530.09	365.12
530.26	259.80
530.43	330.02
530.60	346.40
530.77	276.18
530.94	278.52
531.11	301.93
531.28	315.97
531.46	308.95
531.63	287.89
531.80	351.08
531.97	330.02
532.14	264.48
532.31	290.23
532.48	318.31
532.65	304.27
532.82	301.93
532.99	301.93
533.16	262.14
533.33	280.86
533.50	266.82
533.67	278.52
533.84	379.17
534.01	369.80
534.18	292.57
534.35	351.08
534.52	276.18
534.69	365.12
534.86	351.08
535.03	315.97
535.20	297.25
535.37	308.95
535.54	388.53
535.71	266.82
535.88	365.12
536.05	334.70
536.22	299.59
536.38	287.89
536.55	250.44
536.72	285.55
536.89	346.40
537.06	290.23
537.23	327.68
537.40	369.80
537.57	358.10
537.74	362.78
537.91	313.63
538.08	292.57
538.25	369.80
538.42	351.08
538.59	430.66
538.75	322.99
538.92	360.44
539.09	414.27
539.26	339.38
539.43	510.24
539.60	425.98
539.77	496.19
539.94	479.81
540.11	521.94
540.28	454.06
540.44	465.77
540.61	451.72
540.78	454.06
540.95	475.13
541.12	585.13
541.29	657.69
541.46	550.03
541.62	557.05
541.79	531.30
541.96	552.37
542.13	528.96
542.30	552.37
542.47	641.31
542.63	500.87
542.80	543.00
542.97	526.62
543.14	418.96
543.31	594.50
543.48	575.77
543.64	493.85
543.81	543.00
543.98	484.49
544.15	458.74
544.32	418.96
544.48	498.53
544.65	444.70
544.82	465.77
544.99	454.06
545.16	500.87
545.32	645.99
545.49	748.97
545.66	1032.18
545.83	1013.45
546.00	945.58
546.16	760.67
546.33	592.16
546.50	622.58
546.67	528.96
546.83	580.45
547.00	458.74
547.17	409.59
547.34	395.55
547.50	407.25
547.67	397.89
547.84	447.04
548.00	468.11
548.17	423.64
548.34	510.24
548.51	402.57
548.67	430.66
548.84	379.17
549.01	348.74
549.18	442.36
549.34	381.51
549.51	435.34
549.68	411.93
549.84	444.70
550.01	369.80
550.18	418.96
550.34	486.83
550.51	386.19
550.68	365.12
550.84	365.12
551.01	355.76
551.18	301.93
551.34	341.72
551.51	374.49
551.68	353.42
551.84	372.15
552.01	404.91
552.18	383.85
552.34	337.04
552.51	332.36
552.68	353.42
552.84	255.12
553.01	337.04
553.18	362.78
553.34	320.65
553.51	292.57
553.67	294.91
553.84	348.74
554.01	315.97
554.17	334.70
554.34	351.08
554.51	308.95
554.67	367.46
554.84	330.02
555.00	301.93
555.17	355.76
555.33	269.16
555.50	287.89
555.67	304.27
555.83	294.91
556.00	297.25
556.16	395.55
556.33	355.76
556.50	308.95
556.66	290.23
556.83	285.55
556.99	285.55
557.16	334.70
557.32	341.72
557.49	255.12
557.65	301.93
557.82	306.61
557.98	266.82
558.15	292.57
558.32	301.93
558.48	255.12
558.65	355.76
558.81	351.08
558.98	334.70
559.14	339.38
559.31	236.39
559.47	227.03
559.64	320.65
559.80	318.31
559.97	271.50
560.13	259.80
560.30	304.27
560.46	297.25
560.63	304.27
560.79	220.01
560.96	292.57
561.12	299.59
561.29	337.04
561.45	252.78
561.61	320.65
561.78	311.29
561.94	330.02
562.11	287.89
562.27	318.31
562.44	231.71
562.60	290.23
562.77	290.23
562.93	264.48
563.10	337.04
563.26	308.95
563.42	262.14
563.59	271.50
563.75	264.48
563.92	325.33
564.08	353.42
564.24	299.59
564.41	344.06
564.57	262.14
564.74	243.42
564.90	325.33
565.07	351.08
565.23	332.36
565.39	276.18
565.56	318.31
565.72	330.02
565.88	248.10
566.05	280.86
566.21	262.14
566.38	325.33
566.54	308.95
566.70	255.12
566.87	257.46
567.03	283.20
567.19	259.80
567.36	304.27
567.52	294.91
567.68	308.95
567.85	276.18
568.01	252.78
568.17	250.44
568.34	196.60
568.50	388.53
568.66	322.99
568.83	318.31
568.99	280.86
569.15	280.86
569.32	280.86
569.48	341.72
569.64	285.55
569.81	285.55
569.97	262.14
570.13	416.62
570.30	318.31
570.46	346.40
570.62	292.57
570.78	280.86
570.95	276.18
571.11	318.31
571.27	355.76
571.43	264.48
571.60	259.80
571.76	269.16
571.92	269.16
572.09	255.12
572.25	332.36
572.41	234.05
572.57	292.57
572.74	318.31
572.90	297.25
573.06	269.16
573.22	330.02
573.38	245.76
573.55	301.93
573.71	308.95
573.87	393.21
574.03	292.57
574.20	252.78
574.36	325.33
574.52	224.69
574.68	248.10
574.84	280.86
575.01	313.63
575.17	325.33
575.33	271.50
575.49	330.02
575.65	301.93
575.82	327.68
575.98	346.40
576.14	362.78
576.30	306.61
576.46	433.00
576.62	341.72
576.79	482.15
576.95	433.00
577.11	313.63
577.27	353.42
577.43	372.15
577.59	355.76
577.75	376.83
577.92	318.31
578.08	250.44
578.24	351.08
578.40	297.25
578.56	402.57
578.72	514.92
578.88	435.34
579.04	430.66
579.21	376.83
579.37	330.02
579.53	341.72
579.69	395.55
579.85	390.87
580.01	362.78
580.17	355.76
580.33	315.97
580.49	369.80
580.65	269.16
580.82	325.33
580.98	322.99
581.14	259.80
581.30	397.89
581.46	369.80
581.62	393.21
581.78	348.74
581.94	365.12
582.10	369.80
582.26	346.40
582.42	423.64
582.58	416.62
582.74	402.57
582.90	369.80
583.06	433.00
583.22	315.97
583.38	341.72
583.54	322.99
583.70	376.83
583.86	402.57
584.02	409.59
584.18	414.27
584.34	404.91
584.50	566.41
584.66	1834.98
584.82	4280.84
584.98	6298.38
585.14	5792.83
585.30	3894.65
585.46	2377.98
585.62	1565.82
585.78	966.64
585.94	547.69
586.10	386.19
586.26	465.77
586.42	372.15
586.58	428.32
586.74	372.15
586.90	372.15
587.06	404.91
587.22	468.11
587.38	362.78
587.54	362.78
587.70	564.07
587.86	819.19
588.02	713.86
588.18	559.39
588.34	468.11
588.49	390.87
588.65	411.93
588.81	379.17
588.97	269.16
589.13	311.29
589.29	304.27
589.45	393.21
589.61	339.38
589.77	337.04
589.93	297.25
590.08	290.23
590.24	332.36
590.40	330.02
590.56	313.63
590.72	320.65
590.88	271.50
591.04	292.57
591.20	322.99
591.35	315.97
591.51	332.36
591.67	351.08
591.83	360.44
591.99	383.85
592.15	318.31
592.31	304.27
592.46	372.15
592.62	418.96
592.78	344.06
592.94	358.10
593.10	330.02
593.26	344.06
593.41	369.80
593.57	362.78
593.73	369.80
593.89	521.94
594.05	800.46
594.20	1076.65
594.36	1076.65
594.52	716.20
594.68	589.82
594.84	449.38
594.99	414.27
595.15	325.33
595.31	315.97
595.47	353.42
595.62	304.27
595.78	257.46
595.94	294.91
596.10	374.49
596.25	285.55
596.41	271.50
596.57	217.67
596.73	269.16
596.88	365.12
597.04	414.27
597.20	475.13
597.36	524.28
597.51	365.12
597.67	341.72
597.83	360.44
597.99	379.17
598.14	325.33
598.30	365.12
598.46	290.23
598.61	337.04
598.77	280.86
598.93	332.36
599.09	297.25
599.24	325.33
599.40	365.12
599.56	306.61
599.71	348.74
599.87	271.50
600.03	250.44
600.18	353.42
600.34	395.55
600.50	297.25
600.65	299.59
600.81	306.61
600.97	271.50
601.12	344.06
601.28	337.04
601.44	325.33
601.59	280.86
601.75	341.72
601.91	257.46
602.06	290.23
602.22	365.12
602.37	334.70
602.53	369.80
602.69	521.94
602.84	540.66
603.00	430.66
603.16	449.38
603.31	337.04
603.47	292.57
603.62	241.08
603.78	257.46
603.94	318.31
604.09	264.48
604.25	322.99
604.40	346.40
604.56	308.95
604.71	348.74
604.87	330.02
605.03	346.40
605.18	339.38
605.34	308.95
605.49	271.50
605.65	337.04
605.80	304.27
605.96	252.78
606.12	327.68
606.27	301.93
606.43	290.23
606.58	262.14
606.74	337.04
606.89	573.43
607.05	837.91
607.20	933.87
607.36	873.02
607.51	770.04
607.67	543.00
607.82	547.69
607.98	428.32
608.13	358.10
608.29	390.87
608.44	416.62
608.60	360.44
608.75	393.21
608.91	489.17
609.06	784.08
609.22	1191.33
609.37	1579.86
609.53	1420.71
609.68	1074.31
609.84	847.27
609.99	788.76
610.15	713.86
610.30	786.42
610.46	781.74
610.61	875.36
610.76	959.62
610.92	1081.33
611.07	1022.81
611.23	1055.58
611.38	1118.78
611.54	912.81
611.69	821.53
611.84	772.38
612.00	608.54
612.15	655.35
612.31	620.24
612.46	585.13
612.62	496.19
612.77	484.49
612.92	486.83
613.08	512.58
613.23	493.85
613.39	507.90
613.54	524.28
613.69	814.51
613.85	1521.35
614.00	1989.46
614.15	2204.78
614.31	1748.38
614.46	1378.58
614.62	961.96
614.77	690.46
614.92	543.00
615.08	489.17
615.23	383.85
615.38	355.76
615.54	374.49
615.69	393.21
615.84	498.53
616.00	671.73
616.15	819.19
616.30	688.12
616.46	615.56
616.61	519.60
616.76	533.64
616.92	409.59
617.07	301.93
617.22	264.48
617.37	205.97
617.53	374.49
617.68	337.04
617.83	334.70
617.99	276.18
618.14	376.83
618.29	337.04
618.45	311.29
618.60	334.70
618.75	360.44
618.90	252.78
619.06	344.06
619.21	306.61
619.36	297.25
619.51	308.95
619.67	283.20
619.82	255.12
619.97	337.04
620.12	376.83
620.28	348.74
620.43	292.57
620.58	313.63
620.73	365.12
620.89	294.91
621.04	332.36
621.19	416.62
621.34	517.26
621.49	535.98
621.65	559.39
621.80	358.10
621.95	353.42
622.10	292.57
622.25	308.95
622.41	348.74
622.56	297.25
622.71	266.82
622.86	311.29
623.01	255.12
623.16	346.40
623.32	273.84
623.47	280.86
623.62	250.44
623.77	283.20
623.92	243.42
624.07	360.44
624.23	292.57
624.38	301.93
624.53	283.20
624.68	276.18
624.83	369.80
624.98	325.33
625.13	344.06
625.29	297.25
625.44	304.27
625.59	353.42
625.74	301.93
625.89	390.87
626.04	407.25
626.19	765.36
626.34	1081.33
626.49	1235.80
626.65	987.71
626.80	648.33
626.95	667.05
627.10	479.81
627.25	395.55
627.40	222.35
627.55	367.46
627.70	301.93
627.85	301.93
628.00	259.80
628.15	301.93
628.30	273.84
628.45	250.44
628.60	264.48
628.76	224.69
628.91	318.31
629.06	315.97
629.21	262.14
629.36	271.50
629.51	248.10
629.66	344.06
629.81	301.93
629.96	346.40
630.11	486.83
630.26	554.71
630.41	557.05
630.56	447.04
630.71	435.34
630.86	390.87
631.01	344.06
631.16	348.74
631.31	337.04
631.46	269.16
631.61	248.10
631.76	231.71
631.91	273.84
632.06	264.48
632.21	257.46
632.36	315.97
632.51	292.57
632.66	259.80
632.81	332.36
632.96	543.00
633.10	763.01
633.25	828.55
633.40	800.46
633.55	629.60
633.70	472.79
633.85	407.25
634.00	341.72
634.15	313.63
634.30	276.18
634.45	248.10
634.60	311.29
634.75	203.63
634.90	271.50
635.05	250.44
635.19	292.57
635.34	313.63
635.49	273.84
635.64	264.48
635.79	229.37
635.94	280.86
636.09	250.44
636.24	259.80
636.39	311.29
636.53	283.20
636.68	259.80
636.83	243.42
636.98	320.65
637.13	313.63
637.28	278.52
637.43	271.50
637.57	283.20
637.72	526.62
637.87	922.17
638.02	1313.04
638.17	1380.92
638.32	1055.58
638.46	770.04
638.61	653.01
638.76	463.43
638.91	381.51
639.06	259.80
639.20	266.82
639.35	337.04
639.50	287.89
639.65	601.52
639.80	1277.93
639.94	1820.94
640.09	2129.89
640.24	1511.99
640.39	1203.04
640.54	901.11
640.68	643.65
640.83	470.45
640.98	332.36
641.13	315.97
641.27	264.48
641.42	243.42
641.57	308.95
641.72	280.86
641.86	243.42
642.01	269.16
642.16	273.84
642.31	278.52
642.45	334.70
642.60	308.95
642.75	161.50
642.90	311.29
643.04	243.42
643.19	191.92
643.34	290.23
643.48	271.50
643.63	264.48
643.78	299.59
643.93	255.12
644.07	259.80
644.22	250.44
644.37	234.05
644.51	243.42
644.66	257.46
644.81	273.84
644.95	236.39
645.10	259.80
645.25	259.80
645.39	238.73
645.54	147.45
645.69	208.31
645.83	229.37
645.98	271.50
646.13	259.80
646.27	294.91
646.42	177.88
646.57	276.18
646.71	262.14
646.86	212.99
647.00	149.79
647.15	203.63
647.30	198.95
647.44	248.10
647.59	220.01
647.74	180.22
647.88	255.12
648.03	205.97
648.17	276.18
648.32	248.10
648.47	245.76
648.61	229.37
648.76	292.57
648.90	194.26
649.05	182.56
649.20	222.35
649.34	191.92
649.49	255.12
649.63	215.33
649.78	287.89
649.92	315.97
650.07	332.36
650.21	669.39
650.36	1041.54
650.51	1214.74
650.65	1057.92
650.80	746.63
650.94	615.56
651.09	489.17
651.23	365.12
651.38	311.29
651.52	266.82
651.67	255.12
651.81	229.37
651.96	322.99
652.10	212.99
652.25	201.29
652.39	294.91
652.54	224.69
652.68	201.29
652.83	390.87
652.97	510.24
653.12	645.99
653.26	505.56
653.41	397.89
653.55	365.12
653.70	308.95
653.84	304.27
653.99	262.14
654.13	175.54
654.27	222.35
654.42	203.63
654.56	138.09
654.71	212.99
654.85	231.71
655.00	278.52
655.14	227.03
655.29	198.95
655.43	259.80
655.57	234.05
655.72	248.10
655.86	210.65
656.01	220.01
656.15	250.44
656.30	259.80
656.44	208.31
656.58	177.88
656.73	210.65
656.87	180.22
657.01	224.69
657.16	262.14
657.30	283.20
657.45	304.27
657.59	210.65
657.73	210.65
657.88	173.20
658.02	255.12
658.16	229.37
658.31	194.26
658.45	205.97
658.60	175.54
658.74	152.13
658.88	149.79
659.03	222.35
659.17	191.92
659.31	269.16
659.46	447.04
659.60	554.71
659.74	650.67
659.89	631.94
660.03	573.43
660.17	390.87
660.32	400.23
660.46	276.18
660.60	248.10
660.74	290.23
660.89	236.39
661.03	184.90
661.17	154.48
661.32	182.56
661.46	208.31
661.60	224.69
661.74	234.05
661.89	271.50
662.03	280.86
662.17	245.76
662.31	259.80
662.46	231.71
662.60	273.84
662.74	287.89
662.88	266.82
663.03	259.80
663.17	273.84
663.31	285.55
663.45	184.90
663.60	236.39
663.74	191.92
663.88	248.10
664.02	231.71
664.17	278.52
664.31	180.22
664.45	255.12
664.59	236.39
664.73	210.65
664.88	156.82
665.02	212.99
665.16	184.90
665.30	217.67
665.44	147.45
665.59	297.25
665.73	236.39
665.87	194.26
666.01	210.65
666.15	189.58
666.29	234.05
666.44	238.73
666.58	276.18
666.72	196.60
666.86	243.42
667.00	248.10
667.14	266.82
667.28	365.12
667.43	594.50
667.57	898.77
667.71	1130.48
667.85	997.07
667.99	748.97
668.13	491.51
668.27	393.21
668.41	224.69
668.56	327.68
668.70	255.12
668.84	243.42
668.98	170.86
669.12	196.60
669.26	250.44
669.40	227.03
669.54	170.86
669.68	227.03
669.82	191.92
669.96	292.57
670.10	215.33
670.25	168.52
670.39	257.46
670.53	238.73
670.67	222.35
670.81	252.78
670.95	252.78
671.09	283.20
671.23	358.10
671.37	538.32
671.51	667.05
671.65	760.67
671.79	582.79
671.93	503.22
672.07	451.72
672.21	285.55
672.35	322.99
672.49	269.16
672.63	271.50
672.77	210.65
672.91	222.35
673.05	248.10
673.19	210.65
673.33	168.52
673.47	318.31
673.61	248.10
673.75	262.14
673.89	212.99
674.03	250.44
674.17	210.65
674.31	231.71
674.45	238.73
674.59	283.20
674.73	154.48
674.87	210.65
675.01	196.60
675.15	215.33
675.29	248.10
675.43	163.84
675.56	297.25
675.70	238.73
675.84	187.24
675.98	217.67
676.12	166.18
676.26	205.97
676.40	252.78
676.54	208.31
676.68	191.92
676.82	245.76
676.96	154.48
677.10	152.13
677.23	187.24
677.37	147.45
677.51	241.08
677.65	262.14
677.79	107.66
677.93	231.71
678.07	252.78
678.21	231.71
678.34	184.90
678.48	198.95
678.62	201.29
678.76	191.92
678.90	198.95
679.04	243.42
679.18	140.43
679.31	196.60
679.45	173.20
679.59	257.46
679.73	194.26
679.87	177.88
680.00	180.22
680.14	241.08
680.28	196.60
680.42	227.03
680.56	196.60
680.70	184.90
680.83	243.42
680.97	201.29
681.11	210.65
681.25	161.50
681.39	238.73
681.52	168.52
681.66	238.73
681.80	187.24
681.94	212.99
682.07	243.42
682.21	243.42
682.35	191.92
682.49	201.29
682.62	198.95
682.76	208.31
682.90	187.24
683.04	205.97
683.17	163.84
683.31	180.22
683.45	201.29
683.59	292.57
683.72	156.82
683.86	220.01
684.00	203.63
684.13	248.10
684.27	241.08
684.41	182.56
684.55	229.37
684.68	114.69
684.82	156.82
684.96	159.16
685.09	210.65
685.23	278.52
685.37	184.90
685.50	154.48
685.64	203.63
685.78	191.92
685.91	198.95
686.05	220.01
686.19	301.93
686.32	191.92
686.46	149.79
686.60	133.41
686.73	234.05
686.87	238.73
687.01	189.58
687.14	177.88
687.28	196.60
687.42	142.77
687.55	250.44
687.69	182.56
687.82	173.20
687.96	220.01
688.10	194.26
688.23	224.69
688.37	264.48
688.50	234.05
688.64	184.90
688.78	208.31
688.91	210.65
689.05	163.84
689.18	203.63
689.32	203.63
689.46	189.58
689.59	161.50
689.73	135.75
689.86	161.50
690.00	168.52
690.13	170.86
690.27	222.35
690.41	163.84
690.54	154.48
690.68	166.18
690.81	135.75
690.95	102.98
691.08	222.35
691.22	177.88
691.35	212.99
691.49	210.65
691.62	133.41
691.76	152.13
691.89	234.05
692.03	245.76
692.16	182.56
692.30	243.42
692.43	177.88
692.57	304.27
692.70	425.98
692.84	547.69
692.97	484.49
693.11	372.15
693.24	386.19
693.38	351.08
693.51	215.33
693.65	280.86
693.78	205.97
693.92	234.05
694.05	194.26
694.19	220.01
694.32	149.79
694.45	112.35
694.59	161.50
694.72	168.52
694.86	77.24
694.99	210.65
695.13	131.07
695.26	163.84
695.39	145.11
695.53	189.58
695.66	135.75
695.80	163.84
695.93	163.84
696.07	210.65
696.20	182.56
696.33	227.03
696.47	187.24
696.60	191.92
696.73	182.56
696.87	131.07
697.00	203.63
697.14	152.13
697.27	124.05
697.40	198.95
697.54	147.45
697.67	191.92
697.80	201.29
697.94	241.08
698.07	191.92
698.21	163.84
698.34	217.67
698.47	175.54
698.61	173.20
698.74	177.88
698.87	203.63
699.01	191.92
699.14	175.54
699.27	212.99
699.40	264.48
699.54	184.90
699.67	163.84
699.80	117.03
699.94	173.20
700.07	100.64
700.20	102.98
700.34	156.82
700.47	156.82
700.60	147.45
700.73	128.73
700.87	107.66
701.00	156.82
701.13	98.30
701.26	138.09
701.40	84.26
701.53	147.45
701.66	177.88
701.79	154.48
701.93	117.03
702.06	194.26
702.19	131.07
702.32	184.90
702.46	154.48
702.59	189.58
702.72	231.71
702.85	355.76
702.99	596.84
703.12	716.20
703.25	884.72
703.38	770.04
703.51	681.10
703.65	538.32
703.78	362.78
703.91	297.25
704.04	255.12
704.17	138.09
704.31	152.13
704.44	133.41
704.57	128.73
704.70	208.31
704.83	105.32
704.96	189.58
705.10	187.24
705.23	131.07
>>>>>End Processed Spectral Data<<<<<
