SpectraSuite Data File
++++++++++++++++++++++++++++++++++++
Date: Fri Oct 04 11:34:02 GMT-05:00 2013
User: price-jones
Dark Spectrum Present: No
Reference Spectrum Present: No
Number of Sampled Component Spectra: 1
Spectrometers: USB2+H05261
Integration Time (usec): 100000 (USB2+H05261)
Spectra Averaged: 1 (USB2+H05261)
Boxcar Smoothing: 0 (USB2+H05261)
Correct for Electrical Dark: No (USB2+H05261)
Strobe/Lamp Enabled: No (USB2+H05261)
Correct for Detector Non-linearity: No (USB2+H05261)
Correct for Stray Light: No (USB2+H05261)
Number of Pixels in Processed Spectrum: 2048
>>>>>Begin Processed Spectral Data<<<<<
365.73	119.37
365.92	119.37
366.12	119.37
366.32	0.00
366.52	0.00
366.72	0.00
366.91	0.00
367.11	0.00
367.31	0.00
367.51	46.81
367.70	0.00
367.90	0.00
368.10	0.00
368.30	0.00
368.49	0.00
368.69	0.00
368.89	7.02
369.09	0.00
369.28	0.00
369.48	51.49
369.68	58.51
369.87	51.49
370.07	39.79
370.27	58.51
370.47	72.56
370.66	21.06
370.86	42.13
371.06	117.03
371.25	100.64
371.45	95.96
371.65	145.11
371.84	86.60
372.04	67.88
372.24	145.11
372.44	58.51
372.63	166.18
372.83	145.11
373.03	142.77
373.22	140.43
373.42	100.64
373.62	105.32
373.81	133.41
374.01	105.32
374.21	138.09
374.40	138.09
374.60	173.20
374.79	168.52
374.99	138.09
375.19	184.90
375.38	184.90
375.58	189.58
375.78	128.73
375.97	117.03
376.17	163.84
376.37	168.52
376.56	152.13
376.76	142.77
376.95	86.60
377.15	198.95
377.35	147.45
377.54	117.03
377.74	161.50
377.93	117.03
378.13	131.07
378.33	166.18
378.52	166.18
378.72	194.26
378.91	145.11
379.11	168.52
379.31	163.84
379.50	128.73
379.70	154.48
379.89	173.20
380.09	161.50
380.28	203.63
380.48	117.03
380.68	74.90
380.87	142.77
381.07	138.09
381.26	224.69
381.46	156.82
381.65	133.41
381.85	201.29
382.04	149.79
382.24	110.01
382.43	124.05
382.63	173.20
382.83	149.79
383.02	149.79
383.22	170.86
383.41	154.48
383.61	161.50
383.80	126.39
384.00	215.33
384.19	145.11
384.39	126.39
384.58	182.56
384.78	170.86
384.97	159.16
385.17	105.32
385.36	161.50
385.56	170.86
385.75	154.48
385.95	152.13
386.14	163.84
386.34	91.28
386.53	217.67
386.72	81.92
386.92	131.07
387.11	131.07
387.31	140.43
387.50	119.37
387.70	114.69
387.89	95.96
388.09	166.18
388.28	102.98
388.48	161.50
388.67	184.90
388.86	135.75
389.06	124.05
389.25	105.32
389.45	175.54
389.64	175.54
389.84	119.37
390.03	135.75
390.22	140.43
390.42	98.30
390.61	156.82
390.81	65.54
391.00	140.43
391.19	184.90
391.39	161.50
391.58	142.77
391.78	163.84
391.97	140.43
392.16	114.69
392.36	173.20
392.55	168.52
392.75	121.71
392.94	175.54
393.13	159.16
393.33	140.43
393.52	163.84
393.71	170.86
393.91	145.11
394.10	110.01
394.29	98.30
394.49	217.67
394.68	170.86
394.88	208.31
395.07	135.75
395.26	147.45
395.46	159.16
395.65	208.31
395.84	170.86
396.04	198.95
396.23	170.86
396.42	117.03
396.62	110.01
396.81	117.03
397.00	93.62
397.19	128.73
397.39	138.09
397.58	168.52
397.77	138.09
397.97	60.85
398.16	170.86
398.35	175.54
398.55	180.22
398.74	217.67
398.93	152.13
399.12	81.92
399.32	102.98
399.51	175.54
399.70	114.69
399.90	140.43
400.09	215.33
400.28	191.92
400.47	177.88
400.67	138.09
400.86	245.76
401.05	231.71
401.24	149.79
401.44	180.22
401.63	255.12
401.82	161.50
402.01	135.75
402.21	131.07
402.40	107.66
402.59	145.11
402.78	177.88
402.97	121.71
403.17	170.86
403.36	117.03
403.55	147.45
403.74	231.71
403.93	149.79
404.13	280.86
404.32	271.50
404.51	299.59
404.70	224.69
404.89	149.79
405.09	112.35
405.28	133.41
405.47	138.09
405.66	182.56
405.85	173.20
406.05	177.88
406.24	182.56
406.43	119.37
406.62	177.88
406.81	182.56
407.00	173.20
407.20	196.60
407.39	170.86
407.58	93.62
407.77	227.03
407.96	250.44
408.15	201.29
408.34	173.20
408.54	154.48
408.73	149.79
408.92	170.86
409.11	208.31
409.30	161.50
409.49	142.77
409.68	149.79
409.87	128.73
410.07	189.58
410.26	208.31
410.45	128.73
410.64	201.29
410.83	156.82
411.02	128.73
411.21	182.56
411.40	189.58
411.59	133.41
411.78	154.48
411.98	173.20
412.17	147.45
412.36	107.66
412.55	86.60
412.74	212.99
412.93	159.16
413.12	98.30
413.31	168.52
413.50	131.07
413.69	163.84
413.88	203.63
414.07	131.07
414.26	140.43
414.45	93.62
414.64	128.73
414.83	182.56
415.02	112.35
415.22	182.56
415.41	210.65
415.60	173.20
415.79	159.16
415.98	248.10
416.17	222.35
416.36	191.92
416.55	168.52
416.74	170.86
416.93	154.48
417.12	156.82
417.31	133.41
417.50	112.35
417.69	184.90
417.88	255.12
418.07	241.08
418.26	196.60
418.45	168.52
418.64	208.31
418.83	243.42
419.02	245.76
419.21	203.63
419.39	177.88
419.58	175.54
419.77	203.63
419.96	255.12
420.15	266.82
420.34	215.33
420.53	180.22
420.72	184.90
420.91	217.67
421.10	210.65
421.29	224.69
421.48	170.86
421.67	220.01
421.86	173.20
422.05	138.09
422.24	173.20
422.43	210.65
422.61	112.35
422.80	152.13
422.99	215.33
423.18	142.77
423.37	262.14
423.56	198.95
423.75	138.09
423.94	110.01
424.13	168.52
424.32	168.52
424.50	131.07
424.69	138.09
424.88	168.52
425.07	189.58
425.26	217.67
425.45	184.90
425.64	257.46
425.83	259.80
426.01	208.31
426.20	257.46
426.39	161.50
426.58	142.77
426.77	152.13
426.96	84.26
427.15	159.16
427.33	147.45
427.52	198.95
427.71	100.64
427.90	140.43
428.09	131.07
428.28	184.90
428.46	102.98
428.65	161.50
428.84	163.84
429.03	212.99
429.22	182.56
429.40	135.75
429.59	142.77
429.78	210.65
429.97	227.03
430.16	166.18
430.34	177.88
430.53	175.54
430.72	163.84
430.91	198.95
431.10	135.75
431.28	177.88
431.47	145.11
431.66	208.31
431.85	198.95
432.03	149.79
432.22	224.69
432.41	182.56
432.60	287.89
432.79	212.99
432.97	236.39
433.16	245.76
433.35	269.16
433.54	245.76
433.72	220.01
433.91	212.99
434.10	222.35
434.28	168.52
434.47	236.39
434.66	248.10
434.85	105.32
435.03	231.71
435.22	376.83
435.41	521.94
435.59	465.77
435.78	435.34
435.97	271.50
436.16	255.12
436.34	234.05
436.53	201.29
436.72	290.23
436.90	161.50
437.09	241.08
437.28	154.48
437.46	184.90
437.65	196.60
437.84	121.71
438.02	196.60
438.21	152.13
438.40	154.48
438.58	184.90
438.77	112.35
438.96	229.37
439.14	161.50
439.33	196.60
439.52	177.88
439.70	205.97
439.89	149.79
440.08	175.54
440.26	166.18
440.45	191.92
440.63	138.09
440.82	177.88
441.01	241.08
441.19	241.08
441.38	170.86
441.57	201.29
441.75	201.29
441.94	135.75
442.12	173.20
442.31	166.18
442.50	234.05
442.68	173.20
442.87	112.35
443.05	63.19
443.24	187.24
443.43	273.84
443.61	163.84
443.80	131.07
443.98	231.71
444.17	191.92
444.35	231.71
444.54	222.35
444.73	229.37
444.91	149.79
445.10	98.30
445.28	126.39
445.47	131.07
445.65	175.54
445.84	163.84
446.02	222.35
446.21	205.97
446.39	215.33
446.58	217.67
446.77	154.48
446.95	154.48
447.14	159.16
447.32	170.86
447.51	205.97
447.69	187.24
447.88	126.39
448.06	196.60
448.25	198.95
448.43	248.10
448.62	84.26
448.80	236.39
448.99	262.14
449.17	191.92
449.36	198.95
449.54	184.90
449.73	159.16
449.91	191.92
450.10	201.29
450.28	189.58
450.46	276.18
450.65	229.37
450.83	159.16
451.02	217.67
451.20	145.11
451.39	205.97
451.57	166.18
451.76	243.42
451.94	154.48
452.13	224.69
452.31	217.67
452.49	194.26
452.68	152.13
452.86	182.56
453.05	262.14
453.23	147.45
453.42	203.63
453.60	194.26
453.78	147.45
453.97	191.92
454.15	175.54
454.34	283.20
454.52	91.28
454.70	184.90
454.89	269.16
455.07	187.24
455.26	292.57
455.44	220.01
455.62	145.11
455.81	175.54
455.99	273.84
456.17	117.03
456.36	203.63
456.54	215.33
456.73	203.63
456.91	168.52
457.09	187.24
457.28	145.11
457.46	231.71
457.64	210.65
457.83	224.69
458.01	175.54
458.19	201.29
458.38	210.65
458.56	245.76
458.74	182.56
458.93	154.48
459.11	234.05
459.29	128.73
459.48	173.20
459.66	255.12
459.84	170.86
460.03	339.38
460.21	217.67
460.39	257.46
460.57	177.88
460.76	112.35
460.94	245.76
461.12	175.54
461.31	234.05
461.49	117.03
461.67	154.48
461.85	149.79
462.04	168.52
462.22	671.73
462.40	278.52
462.59	208.31
462.77	180.22
462.95	234.05
463.13	177.88
463.32	187.24
463.50	222.35
463.68	210.65
463.86	196.60
464.05	154.48
464.23	210.65
464.41	177.88
464.59	135.75
464.78	156.82
464.96	168.52
465.14	175.54
465.32	133.41
465.50	168.52
465.69	210.65
465.87	231.71
466.05	194.26
466.23	201.29
466.41	266.82
466.60	224.69
466.78	224.69
466.96	182.56
467.14	175.54
467.32	224.69
467.51	217.67
467.69	238.73
467.87	271.50
468.05	184.90
468.23	212.99
468.41	182.56
468.60	177.88
468.78	156.82
468.96	161.50
469.14	145.11
469.32	142.77
469.50	180.22
469.69	280.86
469.87	168.52
470.05	180.22
470.23	163.84
470.41	173.20
470.59	180.22
470.77	243.42
470.95	222.35
471.14	224.69
471.32	187.24
471.50	257.46
471.68	177.88
471.86	210.65
472.04	147.45
472.22	234.05
472.40	196.60
472.58	191.92
472.77	238.73
472.95	124.05
473.13	238.73
473.31	182.56
473.49	203.63
473.67	180.22
473.85	212.99
474.03	149.79
474.21	224.69
474.39	198.95
474.57	283.20
474.75	227.03
474.93	152.13
475.12	212.99
475.30	112.35
475.48	156.82
475.66	236.39
475.84	142.77
476.02	161.50
476.20	292.57
476.38	152.13
476.56	201.29
476.74	220.01
476.92	227.03
477.10	152.13
477.28	212.99
477.46	163.84
477.64	224.69
477.82	245.76
478.00	191.92
478.18	250.44
478.36	210.65
478.54	210.65
478.72	133.41
478.90	191.92
479.08	177.88
479.26	173.20
479.44	250.44
479.62	201.29
479.80	177.88
479.98	217.67
480.16	262.14
480.34	248.10
480.52	208.31
480.70	191.92
480.88	128.73
481.06	191.92
481.24	224.69
481.41	227.03
481.59	229.37
481.77	201.29
481.95	224.69
482.13	315.97
482.31	248.10
482.49	245.76
482.67	248.10
482.85	285.55
483.03	198.95
483.21	217.67
483.39	147.45
483.57	189.58
483.74	236.39
483.92	217.67
484.10	287.89
484.28	271.50
484.46	304.27
484.64	266.82
484.82	238.73
485.00	210.65
485.18	252.78
485.35	257.46
485.53	243.42
485.71	198.95
485.89	238.73
486.07	184.90
486.25	301.93
486.43	245.76
486.61	248.10
486.78	290.23
486.96	257.46
487.14	273.84
487.32	227.03
487.50	220.01
487.68	212.99
487.85	184.90
488.03	222.35
488.21	271.50
488.39	287.89
488.57	241.08
488.75	227.03
488.92	543.00
489.10	276.18
489.28	285.55
489.46	252.78
489.64	212.99
489.81	163.84
489.99	234.05
490.17	262.14
490.35	264.48
490.53	257.46
490.70	201.29
490.88	252.78
491.06	227.03
491.24	283.20
491.41	264.48
491.59	262.14
491.77	149.79
491.95	241.08
492.13	255.12
492.30	208.31
492.48	222.35
492.66	149.79
492.84	257.46
493.01	187.24
493.19	308.95
493.37	325.33
493.54	299.59
493.72	201.29
493.90	236.39
494.08	194.26
494.25	262.14
494.43	315.97
494.61	269.16
494.79	334.70
494.96	220.01
495.14	234.05
495.32	276.18
495.49	278.52
495.67	266.82
495.85	231.71
496.02	252.78
496.20	283.20
496.38	278.52
496.55	189.58
496.73	229.37
496.91	301.93
497.09	238.73
497.26	229.37
497.44	313.63
497.62	271.50
497.79	250.44
497.97	245.76
498.14	297.25
498.32	294.91
498.50	273.84
498.67	243.42
498.85	191.92
499.03	201.29
499.20	212.99
499.38	166.18
499.56	245.76
499.73	269.16
499.91	266.82
500.08	231.71
500.26	259.80
500.44	234.05
500.61	308.95
500.79	297.25
500.97	280.86
501.14	264.48
501.32	304.27
501.49	290.23
501.67	257.46
501.84	229.37
502.02	262.14
502.20	337.04
502.37	294.91
502.55	210.65
502.72	287.89
502.90	187.24
503.07	322.99
503.25	250.44
503.43	278.52
503.60	220.01
503.78	250.44
503.95	290.23
504.13	248.10
504.30	306.61
504.48	217.67
504.65	285.55
504.83	229.37
505.01	264.48
505.18	231.71
505.36	269.16
505.53	290.23
505.71	252.78
505.88	173.20
506.06	243.42
506.23	257.46
506.41	215.33
506.58	201.29
506.76	198.95
506.93	238.73
507.11	215.33
507.28	224.69
507.46	250.44
507.63	285.55
507.81	299.59
507.98	259.80
508.16	238.73
508.33	304.27
508.50	297.25
508.68	297.25
508.85	290.23
509.03	201.29
509.20	184.90
509.38	278.52
509.55	280.86
509.73	250.44
509.90	369.80
510.08	252.78
510.25	266.82
510.42	231.71
510.60	212.99
510.77	325.33
510.95	287.89
511.12	294.91
511.30	276.18
511.47	294.91
511.64	259.80
511.82	217.67
511.99	292.57
512.17	245.76
512.34	257.46
512.51	259.80
512.69	245.76
512.86	294.91
513.04	184.90
513.21	205.97
513.38	266.82
513.56	182.56
513.73	318.31
513.90	184.90
514.08	299.59
514.25	297.25
514.43	276.18
514.60	304.27
514.77	271.50
514.95	245.76
515.12	290.23
515.29	287.89
515.47	234.05
515.64	322.99
515.81	220.01
515.99	297.25
516.16	241.08
516.33	269.16
516.51	212.99
516.68	269.16
516.85	229.37
517.03	236.39
517.20	234.05
517.37	229.37
517.54	376.83
517.72	278.52
517.89	262.14
518.06	231.71
518.24	318.31
518.41	248.10
518.58	292.57
518.75	292.57
518.93	290.23
519.10	292.57
519.27	322.99
519.45	264.48
519.62	220.01
519.79	208.31
519.96	241.08
520.14	266.82
520.31	358.10
520.48	224.69
520.65	259.80
520.83	348.74
521.00	269.16
521.17	241.08
521.34	285.55
521.52	212.99
521.69	245.76
521.86	227.03
522.03	269.16
522.20	337.04
522.38	234.05
522.55	257.46
522.72	220.01
522.89	231.71
523.07	351.08
523.24	285.55
523.41	269.16
523.58	255.12
523.75	273.84
523.92	217.67
524.10	292.57
524.27	252.78
524.44	227.03
524.61	238.73
524.78	203.63
524.96	297.25
525.13	259.80
525.30	306.61
525.47	285.55
525.64	287.89
525.81	318.31
525.98	266.82
526.16	301.93
526.33	196.60
526.50	243.42
526.67	266.82
526.84	222.35
527.01	269.16
527.18	234.05
527.36	287.89
527.53	220.01
527.70	325.33
527.87	262.14
528.04	308.95
528.21	311.29
528.38	318.31
528.55	297.25
528.72	341.72
528.89	264.48
529.07	210.65
529.24	292.57
529.41	283.20
529.58	276.18
529.75	276.18
529.92	355.76
530.09	264.48
530.26	287.89
530.43	292.57
530.60	280.86
530.77	325.33
530.94	362.78
531.11	285.55
531.28	257.46
531.46	262.14
531.63	290.23
531.80	262.14
531.97	220.01
532.14	210.65
532.31	330.02
532.48	313.63
532.65	454.06
532.82	407.25
532.99	435.34
533.16	301.93
533.33	330.02
533.50	346.40
533.67	381.51
533.84	440.02
534.01	386.19
534.18	479.81
534.35	327.68
534.52	348.74
534.69	365.12
534.86	276.18
535.03	280.86
535.20	269.16
535.37	285.55
535.54	283.20
535.71	297.25
535.88	285.55
536.05	337.04
536.22	212.99
536.38	348.74
536.55	318.31
536.72	365.12
536.89	353.42
537.06	318.31
537.23	351.08
537.40	266.82
537.57	381.51
537.74	304.27
537.91	273.84
538.08	341.72
538.25	348.74
538.42	234.05
538.59	337.04
538.75	266.82
538.92	381.51
539.09	402.57
539.26	383.85
539.43	610.88
539.60	1118.78
539.77	1827.96
539.94	1839.66
540.11	1259.21
540.28	901.11
540.44	662.37
540.61	547.69
540.78	493.85
540.95	528.96
541.12	486.83
541.29	578.11
541.46	627.26
541.62	615.56
541.79	491.51
541.96	566.41
542.13	592.16
542.30	489.17
542.47	538.32
542.63	500.87
542.80	491.51
542.97	524.28
543.14	486.83
543.31	543.00
543.48	468.11
543.64	535.98
543.81	463.43
543.98	486.83
544.15	545.34
544.32	528.96
544.48	507.90
544.65	543.00
544.82	463.43
544.99	489.17
545.16	582.79
545.32	500.87
545.49	751.31
545.66	978.34
545.83	1095.37
546.00	992.39
546.16	833.23
546.33	636.63
546.50	512.58
546.67	547.69
546.83	465.77
547.00	395.55
547.17	491.51
547.34	454.06
547.50	425.98
547.67	425.98
547.84	430.66
548.00	397.89
548.17	315.97
548.34	400.23
548.51	383.85
548.67	402.57
548.84	388.53
549.01	407.25
549.18	383.85
549.34	390.87
549.51	332.36
549.68	255.12
549.84	351.08
550.01	369.80
550.18	400.23
550.34	322.99
550.51	374.49
550.68	414.27
550.84	318.31
551.01	332.36
551.18	299.59
551.34	339.38
551.51	337.04
551.68	346.40
551.84	402.57
552.01	315.97
552.18	264.48
552.34	269.16
552.51	292.57
552.68	320.65
552.84	290.23
553.01	285.55
553.18	355.76
553.34	320.65
553.51	262.14
553.67	238.73
553.84	376.83
554.01	320.65
554.17	339.38
554.34	238.73
554.51	318.31
554.67	290.23
554.84	318.31
555.00	264.48
555.17	262.14
555.33	325.33
555.50	299.59
555.67	315.97
555.83	292.57
556.00	283.20
556.16	430.66
556.33	344.06
556.50	205.97
556.66	271.50
556.83	278.52
556.99	194.26
557.16	255.12
557.32	276.18
557.49	259.80
557.65	308.95
557.82	215.33
557.98	327.68
558.15	227.03
558.32	224.69
558.48	215.33
558.65	320.65
558.81	278.52
558.98	220.01
559.14	332.36
559.31	301.93
559.47	227.03
559.64	313.63
559.80	241.08
559.97	220.01
560.13	262.14
560.30	215.33
560.46	250.44
560.63	278.52
560.79	341.72
560.96	255.12
561.12	245.76
561.29	306.61
561.45	203.63
561.61	276.18
561.78	360.44
561.94	248.10
562.11	217.67
562.27	292.57
562.44	250.44
562.60	339.38
562.77	257.46
562.93	386.19
563.10	332.36
563.26	236.39
563.42	262.14
563.59	269.16
563.75	290.23
563.92	334.70
564.08	278.52
564.24	234.05
564.41	273.84
564.57	273.84
564.74	280.86
564.90	308.95
565.07	311.29
565.23	266.82
565.39	306.61
565.56	414.27
565.72	301.93
565.88	397.89
566.05	297.25
566.21	276.18
566.38	259.80
566.54	212.99
566.70	259.80
566.87	215.33
567.03	280.86
567.19	301.93
567.36	212.99
567.52	229.37
567.68	248.10
567.85	280.86
568.01	341.72
568.17	236.39
568.34	231.71
568.50	245.76
568.66	330.02
568.83	297.25
568.99	245.76
569.15	297.25
569.32	220.01
569.48	273.84
569.64	229.37
569.81	297.25
569.97	234.05
570.13	278.52
570.30	241.08
570.46	224.69
570.62	238.73
570.78	308.95
570.95	238.73
571.11	322.99
571.27	271.50
571.43	259.80
571.60	301.93
571.76	266.82
571.92	306.61
572.09	304.27
572.25	262.14
572.41	280.86
572.57	273.84
572.74	276.18
572.90	255.12
573.06	330.02
573.22	252.78
573.38	264.48
573.55	273.84
573.71	339.38
573.87	337.04
574.03	224.69
574.20	245.76
574.36	304.27
574.52	376.83
574.68	435.34
574.84	383.85
575.01	287.89
575.17	290.23
575.33	208.31
575.49	266.82
575.65	285.55
575.82	407.25
575.98	636.63
576.14	741.95
576.30	814.51
576.46	741.95
576.62	587.47
576.79	526.62
576.95	547.69
577.11	423.64
577.27	313.63
577.43	376.83
577.59	365.12
577.75	344.06
577.92	301.93
578.08	245.76
578.24	318.31
578.40	437.68
578.56	435.34
578.72	496.19
578.88	512.58
579.04	526.62
579.21	301.93
579.37	360.44
579.53	407.25
579.69	430.66
579.85	397.89
580.01	486.83
580.17	472.79
580.33	510.24
580.49	491.51
580.65	376.83
580.82	449.38
580.98	423.64
581.14	339.38
581.30	454.06
581.46	510.24
581.62	645.99
581.78	739.61
581.94	732.59
582.10	613.22
582.26	517.26
582.42	440.02
582.58	531.30
582.74	510.24
582.90	550.03
583.06	566.41
583.22	636.63
583.38	685.78
583.54	643.65
583.70	709.18
583.86	744.29
584.02	947.92
584.18	973.66
584.34	1352.83
584.50	3258.03
584.66	23304.71
584.82	57691.86
584.98	65535.00
585.14	65219.03
585.30	52299.27
585.46	33017.94
585.62	19922.64
585.78	9252.14
585.94	3625.49
586.10	1799.87
586.26	1238.14
586.42	973.66
586.58	814.51
586.74	760.67
586.90	732.59
587.06	774.72
587.22	709.18
587.38	706.84
587.54	1313.04
587.70	3815.07
587.86	6244.55
588.02	7176.08
588.18	5032.15
588.34	3234.62
588.49	2064.35
588.65	1313.04
588.81	748.97
588.97	505.56
589.13	411.93
589.29	433.00
589.45	400.23
589.61	360.44
589.77	465.77
589.93	507.90
590.08	587.47
590.24	484.49
590.40	514.92
590.56	571.09
590.72	433.00
590.88	472.79
591.04	433.00
591.20	430.66
591.35	578.11
591.51	367.46
591.67	437.68
591.83	369.80
591.99	421.30
592.15	493.85
592.31	369.80
592.46	421.30
592.62	386.19
592.78	472.79
592.94	360.44
593.10	477.47
593.26	433.00
593.41	437.68
593.57	477.47
593.73	706.84
593.89	2984.18
594.05	7705.04
594.20	12032.69
594.36	11763.53
594.52	7508.44
594.68	4849.59
594.84	3276.75
594.99	1776.47
595.15	903.45
595.31	554.71
595.47	479.81
595.62	388.53
595.78	381.51
595.94	440.02
596.10	348.74
596.25	425.98
596.41	484.49
596.57	423.64
596.73	332.36
596.88	655.35
597.04	1490.92
597.20	2553.52
597.36	3007.59
597.51	2221.17
597.67	1621.99
597.83	1062.60
597.99	765.36
598.14	493.85
598.30	491.51
598.46	386.19
598.61	393.21
598.77	430.66
598.93	360.44
599.09	444.70
599.24	351.08
599.40	351.08
599.56	344.06
599.71	306.61
599.87	337.04
600.03	400.23
600.18	250.44
600.34	341.72
600.50	372.15
600.65	393.21
600.81	229.37
600.97	400.23
601.12	372.15
601.28	271.50
601.44	311.29
601.59	322.99
601.75	330.02
601.91	360.44
602.06	344.06
602.22	458.74
602.37	737.27
602.53	1858.39
602.69	2920.99
602.84	3082.49
603.00	2270.32
603.16	1621.99
603.31	1196.01
603.47	835.57
603.62	543.00
603.78	418.96
603.94	348.74
604.09	341.72
604.25	379.17
604.40	257.46
604.56	287.89
604.71	320.65
604.87	355.76
605.03	418.96
605.18	271.50
605.34	353.42
605.49	301.93
605.65	411.93
605.80	308.95
605.96	330.02
606.12	449.38
606.27	447.04
606.43	369.80
606.58	484.49
606.74	919.83
606.89	3517.83
607.05	7412.48
607.20	10281.97
607.36	8627.21
607.51	5729.63
607.67	3709.75
607.82	2530.12
607.98	1575.18
608.13	856.64
608.29	601.52
608.44	589.82
608.60	587.47
608.75	634.29
608.91	1301.34
609.06	5621.97
609.22	12917.42
609.37	18029.15
609.53	15712.02
609.68	10509.01
609.84	6965.43
609.99	4692.77
610.15	2684.59
610.30	1460.49
610.46	1062.60
610.61	1041.54
610.76	973.66
610.92	1198.35
611.07	1188.99
611.23	1294.32
611.38	1191.33
611.54	1137.50
611.69	983.02
611.84	858.98
612.00	760.67
612.15	732.59
612.31	732.59
612.46	954.94
612.62	1071.97
612.77	1015.79
612.92	898.77
613.08	844.93
613.23	826.21
613.39	798.12
613.54	1025.15
613.69	4985.34
613.85	15363.28
614.00	26314.64
614.15	28451.55
614.31	20276.06
614.46	13132.75
614.62	8887.01
614.77	5352.81
614.92	2544.16
615.08	1291.98
615.23	849.61
615.38	753.65
615.54	674.07
615.69	952.60
615.84	2991.20
616.00	5678.14
616.15	7407.80
616.30	6150.93
616.46	4540.64
616.61	2944.39
616.76	2008.18
616.92	1121.12
617.07	638.97
617.22	517.26
617.37	479.81
617.53	414.27
617.68	400.23
617.83	397.89
617.99	390.87
618.14	428.32
618.29	407.25
618.45	372.15
618.60	393.21
618.75	353.42
618.90	325.33
619.06	304.27
619.21	337.04
619.36	362.78
619.51	320.65
619.67	252.78
619.82	271.50
619.97	330.02
620.12	411.93
620.28	376.83
620.43	365.12
620.58	423.64
620.73	311.29
620.89	395.55
621.04	627.26
621.19	1577.52
621.34	3311.86
621.49	4308.93
621.65	3946.14
621.80	2736.09
621.95	2010.52
622.10	1369.21
622.25	903.45
622.41	493.85
622.56	444.70
622.71	325.33
622.86	372.15
623.01	435.34
623.16	388.53
623.32	325.33
623.47	276.18
623.62	304.27
623.77	334.70
623.92	315.97
624.07	304.27
624.23	318.31
624.38	294.91
624.53	353.42
624.68	325.33
624.83	428.32
624.98	285.55
625.13	339.38
625.29	311.29
625.44	393.21
625.59	360.44
625.74	458.74
625.89	690.46
626.04	2410.75
626.19	7433.54
626.34	12561.66
626.49	14445.79
626.65	10754.76
626.80	7274.38
626.95	4882.36
627.10	3021.63
627.25	1544.75
627.40	821.53
627.55	559.39
627.70	393.21
627.85	402.57
628.00	390.87
628.15	304.27
628.30	372.15
628.45	222.35
628.60	229.37
628.76	360.44
628.91	241.08
629.06	386.19
629.21	330.02
629.36	311.29
629.51	348.74
629.66	320.65
629.81	578.11
629.96	1490.92
630.11	2773.53
630.26	3754.22
630.41	3382.07
630.56	2429.48
630.71	1778.81
630.86	1296.66
631.01	833.23
631.16	587.47
631.31	428.32
631.46	351.08
631.61	315.97
631.76	337.04
631.91	320.65
632.06	376.83
632.21	418.96
632.36	440.02
632.51	397.89
632.66	400.23
632.81	1116.44
632.96	4180.20
633.10	7927.39
633.25	9914.51
633.40	8138.04
633.55	5778.78
633.70	3765.92
633.85	2600.34
634.00	1420.71
634.15	702.16
634.30	454.06
634.45	440.02
634.60	386.19
634.75	334.70
634.90	358.10
635.05	306.61
635.19	229.37
635.34	299.59
635.49	308.95
635.64	304.27
635.79	315.97
635.94	402.57
636.09	280.86
636.24	306.61
636.39	322.99
636.53	313.63
636.68	287.89
636.83	418.96
636.98	414.27
637.13	337.04
637.28	451.72
637.43	477.47
637.57	737.27
637.72	3241.64
637.87	9767.06
638.02	16858.88
638.17	18417.68
638.32	13537.66
638.46	9149.15
638.61	6384.98
638.76	3836.14
638.91	2040.95
639.06	1034.52
639.20	734.93
639.35	674.07
639.50	947.92
639.65	4767.67
639.80	14731.33
639.94	25280.13
640.09	28439.85
640.24	21120.99
640.39	14230.46
640.54	9327.03
640.68	5809.21
640.83	2829.71
640.98	1345.81
641.13	765.36
641.27	592.16
641.42	435.34
641.57	435.34
641.72	358.10
641.86	318.31
642.01	367.46
642.16	369.80
642.31	285.55
642.45	355.76
642.60	283.20
642.75	369.80
642.90	294.91
643.04	315.97
643.19	255.12
643.34	397.89
643.48	220.01
643.63	320.65
643.78	297.25
643.93	287.89
644.07	297.25
644.22	325.33
644.37	285.55
644.51	196.60
644.66	257.46
644.81	297.25
644.95	266.82
645.10	255.12
645.25	252.78
645.39	248.10
645.54	259.80
645.69	224.69
645.83	180.22
645.98	271.50
646.13	138.09
646.27	327.68
646.42	257.46
646.57	259.80
646.71	227.03
646.86	241.08
647.00	241.08
647.15	330.02
647.30	189.58
647.44	255.12
647.59	224.69
647.74	236.39
647.88	315.97
648.03	250.44
648.17	393.21
648.32	189.58
648.47	292.57
648.61	241.08
648.76	191.92
648.90	320.65
649.05	304.27
649.20	292.57
649.34	304.27
649.49	304.27
649.63	299.59
649.78	304.27
649.92	528.96
650.07	1942.64
650.21	6300.72
650.36	11564.59
650.51	14471.53
650.65	11889.92
650.80	8292.52
650.94	5603.24
651.09	3592.72
651.23	1977.75
651.38	929.19
651.52	547.69
651.67	383.85
651.81	292.57
651.96	381.51
652.10	301.93
652.25	313.63
652.39	341.72
652.54	325.33
652.68	606.20
652.83	2050.31
652.97	3896.99
653.12	5266.21
653.26	4674.05
653.41	3241.64
653.55	2434.16
653.70	1614.97
653.84	889.40
653.99	589.82
654.13	395.55
654.27	348.74
654.42	205.97
654.56	290.23
654.71	227.03
654.85	187.24
655.00	217.67
655.14	271.50
655.29	245.76
655.43	203.63
655.57	292.57
655.72	243.42
655.86	208.31
656.01	250.44
656.15	234.05
656.30	212.99
656.44	292.57
656.58	168.52
656.73	220.01
656.87	250.44
657.01	252.78
657.16	264.48
657.30	191.92
657.45	278.52
657.59	259.80
657.73	266.82
657.88	229.37
658.02	332.36
658.16	236.39
658.31	290.23
658.45	208.31
658.60	229.37
658.74	250.44
658.88	236.39
659.03	262.14
659.17	341.72
659.31	950.26
659.46	2871.84
659.60	5504.94
659.74	7220.55
659.89	6429.45
660.03	4812.14
660.17	3300.16
660.32	2134.57
660.46	1210.06
660.60	674.07
660.74	433.00
660.89	386.19
661.03	229.37
661.17	241.08
661.32	201.29
661.46	222.35
661.60	145.11
661.74	236.39
661.89	222.35
662.03	210.65
662.17	220.01
662.31	255.12
662.46	325.33
662.60	269.16
662.74	297.25
662.88	278.52
663.03	217.67
663.17	231.71
663.31	229.37
663.45	259.80
663.60	222.35
663.74	248.10
663.88	215.33
664.02	205.97
664.17	248.10
664.31	180.22
664.45	215.33
664.59	222.35
664.73	313.63
664.88	280.86
665.02	203.63
665.16	306.61
665.30	313.63
665.44	278.52
665.59	266.82
665.73	315.97
665.87	203.63
666.01	234.05
666.15	287.89
666.29	308.95
666.44	257.46
666.58	301.93
666.72	301.93
666.86	257.46
667.00	297.25
667.14	491.51
667.28	1832.64
667.43	5448.77
667.57	9799.82
667.71	12938.48
667.85	10988.82
667.99	8072.51
668.13	5291.95
668.27	3005.25
668.41	1748.38
668.56	1001.75
668.70	725.57
668.84	430.66
668.98	372.15
669.12	229.37
669.26	278.52
669.40	386.19
669.54	198.95
669.68	262.14
669.82	191.92
669.96	262.14
670.10	215.33
670.25	287.89
670.39	285.55
670.53	337.04
670.67	301.93
670.81	243.42
670.95	315.97
671.09	517.26
671.23	2132.23
671.37	4648.30
671.51	7246.30
671.65	8056.12
671.79	6310.08
671.93	4355.74
672.07	2675.23
672.21	1624.33
672.35	926.85
672.49	648.33
672.63	411.93
672.77	297.25
672.91	337.04
673.05	224.69
673.19	229.37
673.33	212.99
673.47	318.31
673.61	250.44
673.75	208.31
673.89	203.63
674.03	301.93
674.17	163.84
674.31	271.50
674.45	250.44
674.59	210.65
674.73	156.82
674.87	285.55
675.01	308.95
675.15	360.44
675.29	205.97
675.43	301.93
675.56	262.14
675.70	248.10
675.84	191.92
675.98	250.44
676.12	191.92
676.26	119.37
676.40	175.54
676.54	163.84
676.68	222.35
676.82	208.31
676.96	196.60
677.10	210.65
677.23	131.07
677.37	210.65
677.51	138.09
677.65	245.76
677.79	163.84
677.93	191.92
678.07	208.31
678.21	238.73
678.34	184.90
678.48	205.97
678.62	140.43
678.76	112.35
678.90	227.03
679.04	248.10
679.18	170.86
679.31	159.16
679.45	266.82
679.59	156.82
679.73	166.18
679.87	259.80
680.00	189.58
680.14	229.37
680.28	184.90
680.42	201.29
680.56	170.86
680.70	189.58
680.83	128.73
680.97	191.92
681.11	215.33
681.25	222.35
681.39	175.54
681.52	262.14
681.66	210.65
681.80	208.31
681.94	142.77
682.07	210.65
682.21	182.56
682.35	196.60
682.49	189.58
682.62	147.45
682.76	241.08
682.90	224.69
683.04	189.58
683.17	145.11
683.31	149.79
683.45	245.76
683.59	212.99
683.72	227.03
683.86	191.92
684.00	166.18
684.13	210.65
684.27	175.54
684.41	201.29
684.55	175.54
684.68	215.33
684.82	138.09
684.96	173.20
685.09	173.20
685.23	138.09
685.37	217.67
685.50	208.31
685.64	231.71
685.78	201.29
685.91	156.82
686.05	241.08
686.19	161.50
686.32	201.29
686.46	142.77
686.60	124.05
686.73	259.80
686.87	299.59
687.01	203.63
687.14	264.48
687.28	224.69
687.42	142.77
687.55	131.07
687.69	227.03
687.82	220.01
687.96	201.29
688.10	156.82
688.23	201.29
688.37	208.31
688.50	231.71
688.64	252.78
688.78	191.92
688.91	156.82
689.05	245.76
689.18	194.26
689.32	189.58
689.46	145.11
689.59	269.16
689.73	301.93
689.86	149.79
690.00	220.01
690.13	159.16
690.27	180.22
690.41	241.08
690.54	222.35
690.68	156.82
690.81	203.63
690.95	145.11
691.08	159.16
691.22	222.35
691.35	149.79
691.49	175.54
691.62	205.97
691.76	142.77
691.89	208.31
692.03	262.14
692.16	217.67
692.30	278.52
692.43	767.70
692.57	2190.74
692.70	4210.62
692.84	5469.83
692.97	5146.84
693.11	3564.64
693.24	2670.55
693.38	2003.50
693.51	1277.93
693.65	854.30
693.78	435.34
693.92	407.25
694.05	351.08
694.19	278.52
694.32	241.08
694.45	196.60
694.59	220.01
694.72	210.65
694.86	212.99
694.99	220.01
695.13	196.60
695.26	217.67
695.39	203.63
695.53	208.31
695.66	184.90
695.80	318.31
695.93	196.60
696.07	259.80
696.20	379.17
696.33	407.25
696.47	484.49
696.60	500.87
696.73	421.30
696.87	404.91
697.00	355.76
697.14	259.80
697.27	257.46
697.40	238.73
697.54	133.41
697.67	222.35
697.80	269.16
697.94	161.50
698.07	198.95
698.21	180.22
698.34	234.05
698.47	191.92
698.61	201.29
698.74	177.88
698.87	220.01
699.01	184.90
699.14	198.95
699.27	201.29
699.40	299.59
699.54	124.05
699.67	222.35
699.80	212.99
699.94	222.35
700.07	133.41
700.20	93.62
700.34	145.11
700.47	166.18
700.60	203.63
700.73	133.41
700.87	133.41
701.00	184.90
701.13	142.77
701.26	159.16
701.40	245.76
701.53	222.35
701.66	189.58
701.79	266.82
701.93	241.08
702.06	299.59
702.19	386.19
702.32	566.41
702.46	512.58
702.59	444.70
702.72	891.74
702.85	2832.05
702.99	6331.15
703.12	9474.49
703.25	10511.35
703.38	9111.71
703.51	7461.63
703.65	5582.18
703.78	3929.76
703.91	2593.31
704.04	1668.80
704.17	1095.37
704.31	613.22
704.44	435.34
704.57	348.74
704.70	278.52
704.83	273.84
704.96	205.97
705.10	154.48
705.23	212.99
>>>>>End Processed Spectral Data<<<<<
