SpectraSuite Data File
++++++++++++++++++++++++++++++++++++
Date: Mon Oct 07 14:54:54 GMT-05:00 2013
User: price-jones
Dark Spectrum Present: No
Reference Spectrum Present: No
Number of Sampled Component Spectra: 1
Spectrometers: USB2+H05261
Integration Time (usec): 10000 (USB2+H05261)
Spectra Averaged: 1 (USB2+H05261)
Boxcar Smoothing: 0 (USB2+H05261)
Correct for Electrical Dark: No (USB2+H05261)
Strobe/Lamp Enabled: No (USB2+H05261)
Correct for Detector Non-linearity: No (USB2+H05261)
Correct for Stray Light: No (USB2+H05261)
Number of Pixels in Processed Spectrum: 2048
>>>>>Begin Processed Spectral Data<<<<<
365.73	0.00
365.92	0.00
366.12	0.00
366.32	0.00
366.52	0.00
366.72	0.00
366.91	0.00
367.11	0.00
367.31	0.00
367.51	0.00
367.70	0.00
367.90	0.00
368.10	0.00
368.30	0.00
368.49	0.00
368.69	0.00
368.89	0.00
369.09	0.00
369.28	0.00
369.48	0.00
369.68	0.00
369.87	0.00
370.07	0.00
370.27	0.00
370.47	0.00
370.66	0.00
370.86	18.72
371.06	7.02
371.25	21.06
371.45	0.00
371.65	0.00
371.84	28.09
372.04	0.00
372.24	7.02
372.44	28.09
372.63	0.00
372.83	0.00
373.03	0.00
373.22	0.00
373.42	0.00
373.62	51.49
373.81	30.43
374.01	18.72
374.21	4.68
374.40	0.00
374.60	21.06
374.79	37.45
374.99	42.13
375.19	147.45
375.38	110.01
375.58	84.26
375.78	67.88
375.97	74.90
376.17	149.79
376.37	112.35
376.56	88.94
376.76	114.69
376.95	180.22
377.15	180.22
377.35	121.71
377.54	154.48
377.74	133.41
377.93	208.31
378.13	121.71
378.33	156.82
378.52	205.97
378.72	60.85
378.91	119.37
379.11	133.41
379.31	28.09
379.50	84.26
379.70	156.82
379.89	166.18
380.09	191.92
380.28	198.95
380.48	205.97
380.68	182.56
380.87	163.84
381.07	147.45
381.26	70.22
381.46	107.66
381.65	88.94
381.85	77.24
382.04	110.01
382.24	11.70
382.43	0.00
382.63	0.00
382.83	0.00
383.02	0.00
383.22	0.00
383.41	16.38
383.61	11.70
383.80	79.58
384.00	39.79
384.19	133.41
384.39	212.99
384.58	161.50
384.78	140.43
384.97	198.95
385.17	175.54
385.36	161.50
385.56	84.26
385.75	142.77
385.95	67.88
386.14	175.54
386.34	182.56
386.53	173.20
386.72	238.73
386.92	196.60
387.11	152.13
387.31	112.35
387.50	121.71
387.70	210.65
387.89	156.82
388.09	177.88
388.28	187.24
388.48	231.71
388.67	212.99
388.86	315.97
389.06	154.48
389.25	344.06
389.45	238.73
389.64	311.29
389.84	322.99
390.03	332.36
390.22	313.63
390.42	273.84
390.61	334.70
390.81	367.46
391.00	372.15
391.19	332.36
391.39	337.04
391.58	411.93
391.78	250.44
391.97	330.02
392.16	191.92
392.36	114.69
392.55	70.22
392.75	91.28
392.94	14.04
393.13	42.13
393.33	18.72
393.52	156.82
393.71	133.41
393.91	203.63
394.10	311.29
394.29	304.27
394.49	393.21
394.68	425.98
394.88	414.27
395.07	404.91
395.26	507.90
395.46	423.64
395.65	355.76
395.84	287.89
396.04	105.32
396.23	131.07
396.42	11.70
396.62	67.88
396.81	166.18
397.00	189.58
397.19	344.06
397.39	416.62
397.58	451.72
397.77	573.43
397.97	617.90
398.16	580.45
398.35	629.60
398.55	655.35
398.74	610.88
398.93	683.44
399.12	667.05
399.32	608.54
399.51	664.71
399.70	772.38
399.90	683.44
400.09	641.31
400.28	690.46
400.47	763.01
400.67	718.54
400.86	842.59
401.05	826.21
401.24	814.51
401.44	814.51
401.63	791.10
401.82	781.74
402.01	917.49
402.21	802.80
402.40	753.65
402.59	891.74
402.78	718.54
402.97	685.78
403.17	760.67
403.36	844.93
403.55	854.30
403.74	844.93
403.93	739.61
404.13	741.95
404.32	767.70
404.51	732.59
404.70	875.36
404.89	873.02
405.09	763.01
405.28	760.67
405.47	786.42
405.66	814.51
405.85	739.61
406.05	751.31
406.24	725.57
406.43	805.14
406.62	828.55
406.81	812.17
407.00	734.93
407.20	779.40
407.39	884.72
407.58	781.74
407.77	873.02
407.96	891.74
408.15	882.38
408.34	985.37
408.54	903.45
408.73	889.40
408.92	985.37
409.11	980.68
409.30	866.00
409.49	777.06
409.68	741.95
409.87	697.48
410.07	730.25
410.26	784.08
410.45	877.70
410.64	950.26
410.83	938.55
411.02	957.28
411.21	1013.45
411.40	964.30
411.59	1048.56
411.78	990.05
411.98	1036.86
412.17	1034.52
412.36	1013.45
412.55	985.37
412.74	1004.09
412.93	919.83
413.12	847.27
413.31	1062.60
413.50	1088.35
413.69	1088.35
413.88	1116.44
414.07	1006.43
414.26	1004.09
414.45	1011.11
414.64	1071.97
414.83	1032.18
415.02	1114.10
415.22	1090.69
415.41	1034.52
415.60	1107.07
415.79	1181.97
415.98	1181.97
416.17	1165.59
416.36	1191.33
416.55	1228.78
416.74	1116.44
416.93	1050.90
417.12	1018.13
417.31	1116.44
417.50	1083.67
417.69	1057.92
417.88	1109.41
418.07	1097.71
418.26	1022.81
418.45	1144.52
418.64	1224.10
418.83	1104.73
419.02	1268.57
419.21	1233.46
419.39	1151.54
419.58	1048.56
419.77	1071.97
419.96	1088.35
420.15	1146.86
420.34	1165.59
420.53	1261.55
420.72	1247.51
420.91	1390.28
421.10	1142.18
421.29	1210.06
421.48	1303.68
421.67	1331.76
421.86	1188.99
422.05	1160.91
422.24	1013.45
422.43	1060.26
422.61	1011.11
422.80	1254.53
422.99	1235.80
423.18	1233.46
423.37	1102.39
423.56	1219.42
423.75	1193.67
423.94	1214.74
424.13	1100.05
424.32	1167.93
424.50	1142.18
424.69	1032.18
424.88	1174.95
425.07	1069.62
425.26	1121.12
425.45	1062.60
425.64	1027.50
425.83	1062.60
426.01	1167.93
426.20	1200.69
426.39	1097.71
426.58	1116.44
426.77	983.02
426.96	851.96
427.15	912.81
427.33	1022.81
427.52	1109.41
427.71	1146.86
427.90	1048.56
428.09	1039.20
428.28	1022.81
428.46	966.64
428.65	987.71
428.84	1029.84
429.03	1025.15
429.22	1071.97
429.40	880.04
429.59	835.57
429.78	760.67
429.97	732.59
430.16	683.44
430.34	737.27
430.53	706.84
430.72	739.61
430.91	866.00
431.10	973.66
431.28	1203.04
431.47	1352.83
431.66	1348.15
431.85	1158.57
432.03	1191.33
432.22	1146.86
432.41	1121.12
432.60	1228.78
432.79	1186.65
432.97	1371.55
433.16	1235.80
433.35	1196.01
433.54	1034.52
433.72	908.13
433.91	1015.79
434.10	1170.27
434.28	1252.19
434.47	1376.24
434.66	1387.94
434.85	1214.74
435.03	1231.12
435.22	1254.53
435.41	1299.00
435.59	1348.15
435.78	1514.33
435.97	1488.58
436.16	1446.45
436.34	1390.28
436.53	1336.45
436.72	1387.94
436.90	1273.25
437.09	1387.94
437.28	1233.46
437.46	1338.79
437.65	1341.13
437.84	1252.19
438.02	1100.05
438.21	1090.69
438.40	1205.38
438.58	1233.46
438.77	1282.61
438.96	1128.14
439.14	1394.96
439.33	1385.60
439.52	1453.47
439.70	1446.45
439.89	1341.13
440.08	1366.87
440.26	1261.55
440.45	1294.32
440.63	1334.11
440.82	1504.96
441.01	1547.09
441.19	1554.12
441.38	1476.88
441.57	1584.54
441.75	1605.61
441.94	1671.14
442.12	1598.59
442.31	1652.42
442.50	1612.63
442.68	1603.27
442.87	1619.65
443.05	1577.52
443.24	1694.55
443.43	1563.48
443.61	1624.33
443.80	1610.29
443.98	1497.94
444.17	1582.20
444.35	1612.63
444.54	1626.67
444.73	1626.67
444.91	1614.97
445.10	1629.01
445.28	1406.66
445.47	1462.83
445.65	1423.05
445.84	1554.12
446.02	1523.69
446.21	1610.29
446.39	1582.20
446.58	1598.59
446.77	1600.93
446.95	1682.85
447.14	1774.13
447.32	1727.32
447.51	1626.67
447.69	1654.76
447.88	1451.13
448.06	1636.03
448.25	1624.33
448.43	1696.89
448.62	1535.39
448.80	1561.14
448.99	1605.61
449.17	1605.61
449.36	1572.84
449.54	1699.23
449.73	1701.57
449.91	1753.06
450.10	1813.92
450.28	1863.07
450.46	1921.58
450.65	1853.70
450.83	1755.40
451.02	1825.62
451.20	1781.15
451.39	1743.70
451.57	1678.16
451.76	1734.34
451.94	1818.60
452.13	1717.95
452.31	1680.50
452.49	1577.52
452.68	1614.97
452.86	1561.14
453.05	1547.09
453.23	1605.61
453.42	1682.85
453.60	1666.46
453.78	1732.00
453.97	1703.91
454.15	1778.81
454.34	1640.72
454.52	1776.47
454.70	1586.88
454.89	1687.53
455.07	1589.22
455.26	1633.69
455.44	1741.36
455.62	1781.15
455.81	1884.13
455.99	1748.38
456.17	1818.60
456.36	1757.74
456.54	1797.53
456.73	1921.58
456.91	1851.36
457.09	1809.23
457.28	1937.96
457.46	1750.72
457.64	1860.73
457.83	1790.51
458.01	1629.01
458.19	1717.95
458.38	1736.68
458.56	1851.36
458.74	1825.62
458.93	1863.07
459.11	1764.76
459.29	1839.66
459.48	1792.85
459.66	1853.70
459.84	1818.60
460.03	1849.02
460.21	1757.74
460.39	1809.23
460.57	1748.38
460.76	1886.47
460.94	1865.41
461.12	1870.09
461.31	1865.41
461.49	1818.60
461.67	1893.49
461.85	1849.02
462.04	1940.30
462.22	1937.96
462.40	1919.24
462.59	1937.96
462.77	1891.15
462.95	1895.83
463.13	1919.24
463.32	1832.64
463.50	1701.57
463.68	1762.42
463.86	1799.87
464.05	1769.44
464.23	1832.64
464.41	1816.26
464.59	1739.02
464.78	1823.28
464.96	1823.28
465.14	1760.08
465.32	1916.90
465.50	1827.96
465.69	1902.86
465.87	1935.62
466.05	1842.00
466.23	1732.00
466.41	1657.10
466.60	1764.76
466.78	1706.25
466.96	1739.02
467.14	1783.49
467.32	1973.07
467.51	1764.76
467.69	1736.68
467.87	1806.89
468.05	1832.64
468.23	1816.26
468.41	1788.17
468.60	1783.49
468.78	1884.13
468.96	1776.47
469.14	1732.00
469.32	1813.92
469.50	1708.59
469.69	1678.16
469.87	1717.95
470.05	1734.34
470.23	1849.02
470.41	1699.23
470.59	1739.02
470.77	1682.85
470.95	1884.13
471.14	1870.09
471.32	1884.13
471.50	1930.94
471.68	1806.89
471.86	2017.54
472.04	2033.93
472.22	1912.22
472.40	1944.99
472.58	1959.03
472.77	1856.04
472.95	1919.24
473.13	1909.88
473.31	1900.52
473.49	1893.49
473.67	1926.26
473.85	1980.09
474.03	1921.58
474.21	1844.34
474.39	1968.39
474.57	1984.77
474.75	1994.14
474.93	2015.20
475.12	2080.74
475.30	2022.22
475.48	1912.22
475.66	2026.90
475.84	2010.52
476.02	1944.99
476.20	1996.48
476.38	2040.95
476.56	2031.58
476.74	2106.48
476.92	2066.69
477.10	2132.23
477.28	2195.42
477.46	2249.25
477.64	2122.87
477.82	2092.44
478.00	2183.72
478.18	2160.31
478.36	2153.29
478.54	2223.51
478.72	2118.18
478.90	2211.81
479.08	2324.15
479.26	2256.28
479.44	2321.81
479.62	2361.60
479.80	2406.07
479.98	2321.81
480.16	2317.13
480.34	2286.70
480.52	2242.23
480.70	2349.90
480.88	2267.98
481.06	2403.73
481.24	2431.82
481.41	2457.56
481.59	2513.74
481.77	2565.23
481.95	2408.41
482.13	2492.67
482.31	2427.14
482.49	2560.55
482.67	2553.52
482.85	2455.22
483.03	2605.02
483.21	2597.99
483.39	2626.08
483.57	2518.42
483.74	2387.35
483.92	2537.14
484.10	2511.39
484.28	2642.46
484.46	2597.99
484.64	2689.28
484.82	2513.74
485.00	2588.63
485.18	2518.42
485.35	2382.67
485.53	2270.32
485.71	1984.77
485.89	1916.90
486.07	2143.93
486.25	2286.70
486.43	2370.96
486.61	2389.69
486.78	2441.18
486.96	2459.90
487.14	2546.50
487.32	2682.25
487.50	2679.91
487.68	2796.94
487.85	2834.39
488.03	2796.94
488.21	2841.41
488.39	2822.69
488.57	2729.06
488.75	2726.72
488.92	2740.77
489.10	2956.10
489.28	3089.51
489.46	3119.93
489.64	3171.43
489.81	3166.74
489.99	3108.23
490.17	3045.04
490.35	3159.72
490.53	3021.63
490.70	3038.02
490.88	2930.35
491.06	3159.72
491.24	3005.25
491.41	3002.91
491.59	2958.44
491.77	2801.62
491.95	2810.98
492.13	2977.16
492.30	3164.40
492.48	3386.76
492.66	3288.45
492.84	3300.16
493.01	3169.09
493.19	3260.37
493.37	3208.87
493.54	3063.76
493.72	3133.98
493.90	3232.28
494.08	3342.28
494.25	3346.97
494.43	3393.78
494.61	3508.46
494.79	3506.12
494.96	3513.14
495.14	3435.91
495.32	3232.28
495.49	3183.13
495.67	3295.47
495.85	3545.91
496.02	3487.40
496.20	3520.17
496.38	3576.34
496.55	3499.10
496.73	3363.35
496.91	3637.19
497.09	3646.55
497.26	3637.19
497.44	3382.07
497.62	3433.57
497.79	3379.73
497.97	3272.07
498.14	3283.77
498.32	3377.39
498.50	3473.36
498.67	3536.55
498.85	3485.06
499.03	3681.66
499.20	3578.68
499.38	3478.04
499.56	3684.00
499.73	3501.44
499.91	3531.87
500.08	3295.47
500.26	3335.26
500.44	3365.69
500.61	3414.84
500.79	3396.12
500.97	3384.41
501.14	3363.35
501.32	3403.14
501.49	3351.65
501.67	3391.44
501.84	3449.95
502.02	3417.18
502.20	3496.76
502.37	3492.08
502.55	3562.30
502.72	3583.36
502.90	3672.30
503.07	3637.19
503.25	3522.51
503.43	3463.99
503.60	3405.48
503.78	3253.34
503.95	3412.50
504.13	3578.68
504.30	3761.24
504.48	3627.83
504.65	3613.79
504.83	3597.40
505.01	3660.60
505.18	3623.15
505.36	3634.85
505.53	3756.56
505.71	3946.14
505.88	3803.37
506.06	3679.32
506.23	3721.45
506.41	3527.19
506.58	3632.51
506.76	3716.77
506.93	3630.17
507.11	3644.21
507.28	3693.37
507.46	3606.77
507.63	3461.65
507.81	3447.61
507.98	3499.10
508.16	3520.17
508.33	3749.54
508.50	3794.01
508.68	3667.62
508.85	3847.84
509.03	3887.63
509.20	3784.65
509.38	3756.56
509.55	3639.53
509.73	3510.80
509.90	3627.83
510.08	3625.49
510.25	3747.20
510.42	3637.19
510.60	3698.05
510.77	3620.81
510.95	3791.67
511.12	3723.79
511.30	3817.41
511.47	3861.88
511.64	3997.64
511.82	3801.03
511.99	3599.74
512.17	3499.10
512.34	3637.19
512.51	3595.06
512.69	3492.08
512.86	3714.43
513.04	3733.15
513.21	3810.39
513.38	3676.98
513.56	3620.81
513.73	3513.14
513.90	3463.99
514.08	3452.29
514.25	3660.60
514.43	3494.42
514.60	3541.23
514.77	3686.34
514.95	3616.13
515.12	3625.49
515.29	3676.98
515.47	3798.69
515.64	3815.07
515.81	3644.21
515.99	3461.65
516.16	3398.46
516.33	3201.85
516.51	3000.57
516.68	2878.86
516.85	2841.41
517.03	2904.60
517.20	3070.78
517.37	3431.23
517.54	3618.47
517.72	3520.17
517.89	3227.60
518.06	2979.50
518.24	2979.50
518.41	3323.56
518.58	3433.57
518.75	3506.12
518.93	3482.72
519.10	3513.14
519.27	3571.66
519.45	3637.19
519.62	3667.62
519.79	3719.11
519.96	3611.45
520.14	3625.49
520.31	3393.78
520.48	3548.25
520.65	3574.00
520.83	3660.60
521.00	3719.11
521.17	3599.74
521.34	3555.27
521.52	3782.31
521.69	3775.28
521.86	3782.31
522.03	3714.43
522.20	3581.02
522.38	3407.82
522.55	3496.76
522.72	3585.70
522.89	3463.99
523.07	3538.89
523.24	3410.16
523.41	3665.28
523.58	3885.29
523.75	3735.50
523.92	3779.97
524.10	3779.97
524.27	3716.77
524.44	3791.67
524.61	3798.69
524.78	3550.59
524.96	3669.96
525.13	3606.77
525.30	3524.85
525.47	3791.67
525.64	3892.31
525.81	3618.47
525.98	3510.80
526.16	3330.58
526.33	3159.72
526.50	3171.43
526.67	3206.53
526.84	3262.71
527.01	3403.14
527.18	3508.46
527.36	3538.89
527.53	3583.36
527.70	3681.66
527.87	3658.26
528.04	3566.98
528.21	3684.00
528.38	3698.05
528.55	3819.75
528.72	4002.32
528.89	3868.91
529.07	3772.94
529.24	3669.96
529.41	3693.37
529.58	3644.21
529.75	3728.47
529.92	3676.98
530.09	3595.06
530.26	3674.64
530.43	3672.30
530.60	3831.46
530.77	3721.45
530.94	3805.71
531.11	3719.11
531.28	3658.26
531.46	3630.17
531.63	3749.54
531.80	3588.04
531.97	3508.46
532.14	3494.42
532.31	3304.84
532.48	3449.95
532.65	3206.53
532.82	3517.83
532.99	3641.87
533.16	3686.34
533.33	3770.60
533.50	3672.30
533.67	3625.49
533.84	3403.14
534.01	3492.08
534.18	3471.01
534.35	3552.93
534.52	3604.42
534.69	3637.19
534.86	3571.66
535.03	3653.58
535.20	3749.54
535.37	3761.24
535.54	3709.75
535.71	3796.35
535.88	3756.56
536.05	3625.49
536.22	3456.97
536.38	3562.30
536.55	3389.10
536.72	3384.41
536.89	3344.63
537.06	3471.01
537.23	3721.45
537.40	3709.75
537.57	3581.02
537.74	3524.85
537.91	3702.73
538.08	3611.45
538.25	3487.40
538.42	3623.15
538.59	3524.85
538.75	3442.93
538.92	3471.01
539.09	3435.91
539.26	3393.78
539.43	3384.41
539.60	3414.84
539.77	3555.27
539.94	3403.14
540.11	3192.49
540.28	3180.79
540.44	3211.22
540.61	3414.84
540.78	3426.54
540.95	3389.10
541.12	3445.27
541.29	3548.25
541.46	3368.03
541.62	3566.98
541.79	3520.17
541.96	3386.76
542.13	3435.91
542.30	3454.63
542.47	3412.50
542.63	3463.99
542.80	3283.77
542.97	3342.28
543.14	3311.86
543.31	3393.78
543.48	3447.61
543.64	3602.08
543.81	3559.95
543.98	3611.45
544.15	3674.64
544.32	3346.97
544.48	3569.32
544.65	3634.85
544.82	3499.10
544.99	3440.59
545.16	3412.50
545.32	3323.56
545.49	3503.78
545.66	3648.90
545.83	3630.17
546.00	3485.06
546.16	3321.22
546.33	3384.41
546.50	3384.41
546.67	3356.33
546.83	3311.86
547.00	3391.44
547.17	3426.54
547.34	3431.23
547.50	3389.10
547.67	3164.40
547.84	3255.69
548.00	3246.32
548.17	3365.69
548.34	3314.20
548.51	3440.59
548.67	3377.39
548.84	3314.20
549.01	3386.76
549.18	3368.03
549.34	3346.97
549.51	3440.59
549.68	3440.59
549.84	3297.81
550.01	3295.47
550.18	3410.16
550.34	3365.69
550.51	3286.11
550.68	3302.50
550.84	3283.77
551.01	3157.38
551.18	3295.47
551.34	3187.81
551.51	3356.33
551.68	3351.65
551.84	3290.79
552.01	3358.67
552.18	3239.30
552.34	3321.22
552.51	3246.32
552.68	3183.13
552.84	3150.36
553.01	3248.66
553.18	3295.47
553.34	3180.79
553.51	3269.73
553.67	3325.90
553.84	3194.83
554.01	3332.92
554.17	3328.24
554.34	3283.77
554.51	3307.18
554.67	3417.18
554.84	3344.63
555.00	3276.75
555.17	3176.11
555.33	3286.11
555.50	3309.52
555.67	3321.22
555.83	3208.87
556.00	3162.06
556.16	3208.87
556.33	3229.94
556.50	3183.13
556.66	3063.76
556.83	3218.24
556.99	3103.55
557.16	3148.02
557.32	3080.14
557.49	3297.81
557.65	3108.23
557.82	3119.93
557.98	3155.04
558.15	3075.46
558.32	3045.04
558.48	2972.48
558.65	2850.77
558.81	2998.23
558.98	2998.23
559.14	3040.36
559.31	3119.93
559.47	3126.96
559.64	2939.71
559.80	2937.37
559.97	2993.55
560.13	2949.08
560.30	3131.64
560.46	3204.19
560.63	3239.30
560.79	3119.93
560.96	3089.51
561.12	3150.36
561.29	2946.73
561.45	2946.73
561.61	3000.57
561.78	2991.20
561.94	2977.16
562.11	2974.82
562.27	2862.48
562.44	2986.52
562.60	3094.19
562.77	3145.68
562.93	3225.26
563.10	3204.19
563.26	3028.65
563.42	2918.65
563.59	3084.83
563.75	2909.29
563.92	3054.40
564.08	3077.80
564.24	2925.67
564.41	2923.33
564.57	2967.80
564.74	3096.53
564.90	2916.31
565.07	2967.80
565.23	2867.16
565.39	2860.13
565.56	2703.32
565.72	2799.28
565.88	2906.95
566.05	2925.67
566.21	2806.30
566.38	2979.50
566.54	2878.86
566.70	2986.52
566.87	2885.88
567.03	2967.80
567.19	2909.29
567.36	2963.12
567.52	2897.58
567.68	2925.67
567.85	2623.74
568.01	2818.00
568.17	2782.90
568.34	2757.15
568.50	2810.98
568.66	2792.26
568.83	2853.11
568.99	2836.73
569.15	2773.53
569.32	2949.08
569.48	2850.77
569.64	2841.41
569.81	2895.24
569.97	2759.49
570.13	2768.85
570.30	2656.51
570.46	2649.49
570.62	2572.25
570.78	2724.38
570.95	2558.21
571.11	2794.60
571.27	2637.78
571.43	2761.83
571.60	2759.49
571.76	2815.66
571.92	2909.29
572.09	2731.41
572.25	2899.92
572.41	2888.22
572.57	2794.60
572.74	2841.41
572.90	2672.89
573.06	2766.51
573.22	2799.28
573.38	2708.00
573.55	2722.04
573.71	2712.68
573.87	2860.13
574.03	2698.64
574.20	2780.56
574.36	2703.32
574.52	2759.49
574.68	2726.72
574.84	2724.38
575.01	2647.15
575.17	2490.33
575.33	2672.89
575.49	2607.36
575.65	2682.25
575.82	2649.49
575.98	2588.63
576.14	2544.16
576.30	2551.18
576.46	2647.15
576.62	2640.12
576.79	2733.75
576.95	2649.49
577.11	2715.02
577.27	2590.97
577.43	2600.34
577.59	2600.34
577.75	2567.57
577.92	2450.54
578.08	2434.16
578.24	2450.54
578.40	2483.31
578.56	2670.55
578.72	2647.15
578.88	2588.63
579.04	2551.18
579.21	2607.36
579.37	2516.08
579.53	2551.18
579.69	2642.46
579.85	2686.94
580.01	2593.31
580.17	2581.61
580.33	2532.46
580.49	2567.57
580.65	2537.14
580.82	2581.61
580.98	2605.02
581.14	2527.78
581.30	2684.59
581.46	2644.81
581.62	2576.93
581.78	2537.14
581.94	2551.18
582.10	2478.63
582.26	2441.18
582.42	2497.35
582.58	2663.53
582.74	2602.68
582.90	2544.16
583.06	2626.08
583.22	2590.97
583.38	2649.49
583.54	2588.63
583.70	2513.74
583.86	2516.08
584.02	2349.90
584.18	2567.57
584.34	2401.39
584.50	2560.55
584.66	2462.24
584.82	2509.05
584.98	2499.69
585.14	2443.52
585.30	2345.22
585.46	2293.72
585.62	2265.64
585.78	2370.96
585.94	2450.54
586.10	2490.33
586.26	2431.82
586.42	2546.50
586.58	2495.01
586.74	2382.67
586.90	2399.05
587.06	2380.32
587.22	2387.35
587.38	2495.01
587.54	2368.62
587.70	2394.37
587.86	2434.16
588.02	2410.75
588.18	2363.94
588.34	2326.49
588.49	2066.69
588.65	1952.01
588.81	1895.83
588.97	2050.31
589.13	1928.60
589.29	1891.15
589.45	1998.82
589.61	2050.31
589.77	2218.83
589.93	2223.51
590.08	2249.25
590.24	2275.00
590.40	2279.68
590.56	2340.54
590.72	2265.64
590.88	2216.49
591.04	2179.04
591.20	2272.66
591.35	2211.81
591.51	2193.08
591.67	2195.42
591.83	2235.21
591.99	2207.13
592.15	2200.10
592.31	2321.81
592.46	2172.02
592.62	2293.72
592.78	2305.43
592.94	2211.81
593.10	2113.50
593.26	2132.23
593.41	2256.28
593.57	2120.53
593.73	2162.66
593.89	2218.83
594.05	2209.47
594.20	2279.68
594.36	2157.97
594.52	2113.50
594.68	2216.49
594.84	2064.35
594.99	2153.29
595.15	2202.44
595.31	2289.04
595.47	2134.57
595.62	2305.43
595.78	2223.51
595.94	2207.13
596.10	2193.08
596.25	2139.25
596.41	2153.29
596.57	2209.47
596.73	2253.94
596.88	2186.06
597.04	2172.02
597.20	2190.74
597.36	2200.10
597.51	2146.27
597.67	2242.23
597.83	2167.34
597.99	2179.04
598.14	2139.25
598.30	2157.97
598.46	2139.25
598.61	2153.29
598.77	2125.21
598.93	2165.00
599.09	2251.60
599.24	2176.70
599.40	2211.81
599.56	2169.68
599.71	2122.87
599.87	2076.06
600.03	2108.82
600.18	2129.89
600.34	2120.53
600.50	2050.31
600.65	2015.20
600.81	2029.24
600.97	2200.10
601.12	2127.55
601.28	2087.76
601.44	2022.22
601.59	1944.99
601.75	2036.27
601.91	2092.44
602.06	1980.09
602.22	1942.64
602.37	1968.39
602.53	2071.37
602.69	2024.56
602.84	2047.97
603.00	2090.10
603.16	2118.18
603.31	2132.23
603.47	1994.14
603.62	1989.46
603.78	2026.90
603.94	2062.01
604.09	2054.99
604.25	2101.80
604.40	2104.14
604.56	2150.95
604.71	1956.69
604.87	2019.88
605.03	2026.90
605.18	2015.20
605.34	2073.71
605.49	2040.95
605.65	2038.61
605.80	2019.88
605.96	2015.20
606.12	2026.90
606.27	2047.97
606.43	1968.39
606.58	2078.40
606.74	2059.67
606.89	2059.67
607.05	2094.78
607.20	2003.50
607.36	1975.41
607.51	1989.46
607.67	1987.11
607.82	1919.24
607.98	1961.37
608.13	1898.17
608.29	1982.43
608.44	2001.16
608.60	2012.86
608.75	1879.45
608.91	1842.00
609.06	1959.03
609.22	2047.97
609.37	1919.24
609.53	1886.47
609.68	1846.68
609.84	1820.94
609.99	1802.21
610.15	1771.79
610.30	1912.22
610.46	1926.26
610.61	1928.60
610.76	1982.43
610.92	2001.16
611.07	1996.48
611.23	2031.58
611.38	1952.01
611.54	1834.98
611.69	1867.75
611.84	1954.35
612.00	1804.55
612.15	1760.08
612.31	1893.49
612.46	1863.07
612.62	1846.68
612.77	1851.36
612.92	1790.51
613.08	1818.60
613.23	1825.62
613.39	1783.49
613.54	1811.57
613.69	1727.32
613.85	1795.19
614.00	1589.22
614.15	1746.04
614.31	1785.83
614.46	1874.77
614.62	1813.92
614.77	1713.27
614.92	1706.25
615.08	1781.15
615.23	1774.13
615.38	1820.94
615.54	1732.00
615.69	1680.50
615.84	1682.85
616.00	1715.61
616.15	1526.03
616.30	1687.53
616.46	1568.16
616.61	1643.06
616.76	1629.01
616.92	1633.69
617.07	1703.91
617.22	1699.23
617.37	1666.46
617.53	1685.19
617.68	1783.49
617.83	1687.53
617.99	1703.91
618.14	1774.13
618.29	1689.87
618.45	1682.85
618.60	1708.59
618.75	1701.57
618.90	1664.12
619.06	1673.48
619.21	1629.01
619.36	1720.29
619.51	1612.63
619.67	1666.46
619.82	1699.23
619.97	1605.61
620.12	1624.33
620.28	1680.50
620.43	1647.74
620.58	1710.93
620.73	1633.69
620.89	1645.40
621.04	1692.21
621.19	1549.43
621.34	1614.97
621.49	1549.43
621.65	1631.35
621.80	1607.95
621.95	1720.29
622.10	1710.93
622.25	1638.38
622.41	1551.78
622.56	1629.01
622.71	1530.71
622.86	1526.03
623.01	1554.12
623.16	1626.67
623.32	1633.69
623.47	1490.92
623.62	1586.88
623.77	1533.05
623.92	1624.33
624.07	1519.01
624.23	1544.75
624.38	1455.81
624.53	1511.99
624.68	1474.54
624.83	1516.67
624.98	1481.56
625.13	1441.77
625.29	1455.81
625.44	1526.03
625.59	1427.73
625.74	1554.12
625.89	1582.20
626.04	1413.68
626.19	1558.80
626.34	1533.05
626.49	1521.35
626.65	1434.75
626.80	1455.81
626.95	1528.37
627.10	1488.58
627.25	1418.36
627.40	1366.87
627.55	1399.64
627.70	1411.34
627.85	1277.93
628.00	1357.51
628.15	1423.05
628.30	1385.60
628.45	1413.68
628.60	1460.49
628.76	1483.90
628.91	1371.55
629.06	1448.79
629.21	1416.02
629.36	1376.24
629.51	1476.88
629.66	1423.05
629.81	1310.70
629.96	1301.34
630.11	1357.51
630.26	1406.66
630.41	1357.51
630.56	1366.87
630.71	1448.79
630.86	1343.47
631.01	1383.26
631.16	1263.89
631.31	1254.53
631.46	1289.64
631.61	1308.36
631.76	1315.38
631.91	1458.15
632.06	1387.94
632.21	1453.47
632.36	1409.00
632.51	1380.92
632.66	1378.58
632.81	1362.19
632.96	1345.81
633.10	1296.66
633.25	1373.89
633.40	1350.49
633.55	1233.46
633.70	1329.42
633.85	1310.70
634.00	1392.62
634.15	1348.15
634.30	1270.91
634.45	1299.00
634.60	1352.83
634.75	1392.62
634.90	1254.53
635.05	1359.85
635.19	1385.60
635.34	1275.59
635.49	1369.21
635.64	1235.80
635.79	1331.76
635.94	1324.74
636.09	1380.92
636.24	1242.82
636.39	1256.87
636.53	1207.72
636.68	1198.35
636.83	1249.85
636.98	1235.80
637.13	1364.53
637.28	1322.40
637.43	1261.55
637.57	1359.85
637.72	1270.91
637.87	1348.15
638.02	1310.70
638.17	1289.64
638.32	1231.12
638.46	1266.23
638.61	1334.11
638.76	1366.87
638.91	1306.02
639.06	1254.53
639.20	1299.00
639.35	1217.08
639.50	1191.33
639.65	1163.25
639.80	1266.23
639.94	1270.91
640.09	1198.35
640.24	1235.80
640.39	1142.18
640.54	1181.97
640.68	1170.27
640.83	1160.91
640.98	1086.01
641.13	1184.31
641.27	1277.93
641.42	1238.14
641.57	1144.52
641.72	1233.46
641.86	1214.74
642.01	1191.33
642.16	1191.33
642.31	1174.95
642.45	1146.86
642.60	1266.23
642.75	1219.42
642.90	1203.04
643.04	1139.84
643.19	1125.80
643.34	1252.19
643.48	1261.55
643.63	1102.39
643.78	1184.31
643.93	1252.19
644.07	1254.53
644.22	1245.16
644.37	1146.86
644.51	1231.12
644.66	1093.03
644.81	1142.18
644.95	1142.18
645.10	1123.46
645.25	1228.78
645.39	1277.93
645.54	1121.12
645.69	1114.10
645.83	1151.54
645.98	1146.86
646.13	1036.86
646.27	1114.10
646.42	1097.71
646.57	1050.90
646.71	1118.78
646.86	1114.10
647.00	1036.86
647.15	1034.52
647.30	1043.88
647.44	1027.50
647.59	1088.35
647.74	1032.18
647.88	997.07
648.03	1074.31
648.17	1025.15
648.32	990.05
648.47	1097.71
648.61	1093.03
648.76	1125.80
648.90	1067.28
649.05	922.17
649.20	985.37
649.34	947.92
649.49	968.98
649.63	999.41
649.78	1029.84
649.92	1062.60
650.07	1158.57
650.21	994.73
650.36	1146.86
650.51	1057.92
650.65	1083.67
650.80	1057.92
650.94	1128.14
651.09	985.37
651.23	1006.43
651.38	1046.22
651.52	924.51
651.67	978.34
651.81	954.94
651.96	1001.75
652.10	1067.28
652.25	1011.11
652.39	1036.86
652.54	1093.03
652.68	994.73
652.83	922.17
652.97	1050.90
653.12	1032.18
653.26	957.28
653.41	987.71
653.55	1071.97
653.70	1034.52
653.84	968.98
653.99	943.24
654.13	987.71
654.27	968.98
654.42	1032.18
654.56	938.55
654.71	940.90
654.85	1020.47
655.00	884.72
655.14	866.00
655.29	905.79
655.43	854.30
655.57	800.46
655.72	809.83
655.86	695.14
656.01	622.58
656.15	617.90
656.30	788.76
656.44	713.86
656.58	786.42
656.73	903.45
656.87	868.34
657.01	887.06
657.16	940.90
657.30	781.74
657.45	910.47
657.59	1006.43
657.73	858.98
657.88	961.96
658.02	1093.03
658.16	990.05
658.31	919.83
658.45	847.27
658.60	931.53
658.74	990.05
658.88	903.45
659.03	933.87
659.17	922.17
659.31	793.44
659.46	753.65
659.60	891.74
659.74	889.40
659.89	997.07
660.03	837.91
660.17	943.24
660.32	908.13
660.46	880.04
660.60	844.93
660.74	940.90
660.89	868.34
661.03	950.26
661.17	919.83
661.32	809.83
661.46	889.40
661.60	926.85
661.74	973.66
661.89	964.30
662.03	851.96
662.17	943.24
662.31	908.13
662.46	844.93
662.60	840.25
662.74	894.08
662.88	821.53
663.03	847.27
663.17	753.65
663.31	851.96
663.45	770.04
663.60	858.98
663.74	812.17
663.88	798.12
664.02	774.72
664.17	877.70
664.31	826.21
664.45	894.08
664.59	833.23
664.73	903.45
664.88	922.17
665.02	805.14
665.16	875.36
665.30	781.74
665.44	875.36
665.59	793.44
665.73	791.10
665.87	858.98
666.01	791.10
666.15	760.67
666.29	793.44
666.44	748.97
666.58	767.70
666.72	760.67
666.86	751.31
667.00	863.66
667.14	784.08
667.28	807.48
667.43	847.27
667.57	720.88
667.71	795.78
667.85	814.51
667.99	781.74
668.13	807.48
668.27	741.95
668.41	765.36
668.56	730.25
668.70	713.86
668.84	835.57
668.98	809.83
669.12	791.10
669.26	751.31
669.40	739.61
669.54	763.01
669.68	723.23
669.82	702.16
669.96	730.25
670.10	688.12
670.25	755.99
670.39	720.88
670.53	753.65
670.67	741.95
670.81	732.59
670.95	631.94
671.09	720.88
671.23	730.25
671.37	634.29
671.51	697.48
671.65	671.73
671.79	678.76
671.93	634.29
672.07	634.29
672.21	641.31
672.35	788.76
672.49	725.57
672.63	695.14
672.77	697.48
672.91	699.82
673.05	699.82
673.19	636.63
673.33	636.63
673.47	760.67
673.61	641.31
673.75	638.97
673.89	674.07
674.03	690.46
674.17	697.48
674.31	739.61
674.45	704.50
674.59	613.22
674.73	650.67
674.87	648.33
675.01	636.63
675.15	634.29
675.29	566.41
675.43	610.88
675.56	678.76
675.70	622.58
675.84	676.41
675.98	566.41
676.12	603.86
676.26	622.58
676.40	627.26
676.54	615.56
676.68	613.22
676.82	585.13
676.96	697.48
677.10	578.11
677.23	601.52
677.37	587.47
677.51	697.48
677.65	629.60
677.79	578.11
677.93	636.63
678.07	526.62
678.21	578.11
678.34	573.43
678.48	514.92
678.62	533.64
678.76	627.26
678.90	559.39
679.04	620.24
679.18	559.39
679.31	547.69
679.45	540.66
679.59	517.26
679.73	575.77
679.87	554.71
680.00	496.19
680.14	486.83
680.28	545.34
680.42	468.11
680.56	531.30
680.70	503.22
680.83	533.64
680.97	449.38
681.11	468.11
681.25	552.37
681.39	531.30
681.52	489.17
681.66	496.19
681.80	514.92
681.94	404.91
682.07	547.69
682.21	510.24
682.35	386.19
682.49	500.87
682.62	545.34
682.76	369.80
682.90	524.28
683.04	547.69
683.17	566.41
683.31	449.38
683.45	528.96
683.59	411.93
683.72	468.11
683.86	423.64
684.00	430.66
684.13	437.68
684.27	390.87
684.41	400.23
684.55	411.93
684.68	374.49
684.82	447.04
684.96	386.19
685.09	369.80
685.23	393.21
685.37	407.25
685.50	416.62
685.64	390.87
685.78	381.51
685.91	449.38
686.05	428.32
686.19	327.68
686.32	395.55
686.46	306.61
686.60	264.48
686.73	149.79
686.87	32.77
687.01	203.63
687.14	180.22
687.28	168.52
687.42	299.59
687.55	266.82
687.69	315.97
687.82	278.52
687.96	234.05
688.10	306.61
688.23	308.95
688.37	224.69
688.50	255.12
688.64	330.02
688.78	205.97
688.91	271.50
689.05	191.92
689.18	184.90
689.32	196.60
689.46	227.03
689.59	229.37
689.73	177.88
689.86	238.73
690.00	210.65
690.13	201.29
690.27	287.89
690.41	402.57
690.54	264.48
690.68	234.05
690.81	358.10
690.95	245.76
691.08	229.37
691.22	250.44
691.35	252.78
691.49	313.63
691.62	271.50
691.76	351.08
691.89	292.57
692.03	243.42
692.16	215.33
692.30	245.76
692.43	208.31
692.57	177.88
692.70	210.65
692.84	273.84
692.97	241.08
693.11	217.67
693.24	259.80
693.38	224.69
693.51	208.31
693.65	255.12
693.78	306.61
693.92	250.44
694.05	243.42
694.19	255.12
694.32	173.20
694.45	189.58
694.59	161.50
694.72	180.22
694.86	170.86
694.99	170.86
695.13	255.12
695.26	229.37
695.39	163.84
695.53	194.26
695.66	236.39
695.80	102.98
695.93	194.26
696.07	208.31
696.20	215.33
696.33	124.05
696.47	201.29
696.60	184.90
696.73	241.08
696.87	180.22
697.00	217.67
697.14	210.65
697.27	191.92
697.40	191.92
697.54	126.39
697.67	149.79
697.80	138.09
697.94	135.75
698.07	175.54
698.21	37.45
698.34	156.82
698.47	238.73
698.61	208.31
698.74	100.64
698.87	201.29
699.01	138.09
699.14	145.11
699.27	131.07
699.40	135.75
699.54	145.11
699.67	154.48
699.80	110.01
699.94	156.82
700.07	95.96
700.20	105.32
700.34	163.84
700.47	173.20
700.60	32.77
700.73	159.16
700.87	102.98
701.00	140.43
701.13	133.41
701.26	110.01
701.40	93.62
701.53	60.85
701.66	119.37
701.79	161.50
701.93	86.60
702.06	56.17
702.19	102.98
702.32	51.49
702.46	79.58
702.59	58.51
702.72	42.13
702.85	147.45
702.99	65.54
703.12	105.32
703.25	110.01
703.38	105.32
703.51	32.77
703.65	58.51
703.78	44.47
703.91	128.73
704.04	152.13
704.17	74.90
704.31	37.45
704.44	21.06
704.57	79.58
704.70	58.51
704.83	39.79
704.96	16.38
705.10	79.58
705.23	100.64
>>>>>End Processed Spectral Data<<<<<
