SpectraSuite Data File
++++++++++++++++++++++++++++++++++++
Date: Mon Oct 07 14:53:40 GMT-05:00 2013
User: price-jones
Dark Spectrum Present: No
Reference Spectrum Present: No
Number of Sampled Component Spectra: 1
Spectrometers: USB2+H05261
Integration Time (usec): 100000 (USB2+H05261)
Spectra Averaged: 1 (USB2+H05261)
Boxcar Smoothing: 0 (USB2+H05261)
Correct for Electrical Dark: No (USB2+H05261)
Strobe/Lamp Enabled: No (USB2+H05261)
Correct for Detector Non-linearity: No (USB2+H05261)
Correct for Stray Light: No (USB2+H05261)
Number of Pixels in Processed Spectrum: 2048
>>>>>Begin Processed Spectral Data<<<<<
365.73	0.00
365.92	0.00
366.12	0.00
366.32	0.00
366.52	0.00
366.72	0.00
366.91	0.00
367.11	0.00
367.31	0.00
367.51	0.00
367.70	0.00
367.90	0.00
368.10	0.00
368.30	0.00
368.49	0.00
368.69	0.00
368.89	0.00
369.09	0.00
369.28	0.00
369.48	0.00
369.68	0.00
369.87	0.00
370.07	0.00
370.27	0.00
370.47	311.29
370.66	2010.52
370.86	2483.31
371.06	2677.57
371.25	2759.49
371.45	2347.56
371.65	2239.89
371.84	1849.02
372.04	2094.78
372.24	2464.58
372.44	2443.52
372.63	2366.28
372.83	2265.64
373.03	1989.46
373.22	1799.87
373.42	1942.64
373.62	2310.11
373.81	2399.05
374.01	2492.67
374.21	2160.31
374.40	2022.22
374.60	2174.36
374.79	2422.45
374.99	2895.24
375.19	3164.40
375.38	2897.58
375.58	2862.48
375.78	2829.71
375.97	2890.56
376.17	2974.82
376.37	2928.01
376.56	3070.78
376.76	3162.06
376.95	3358.67
377.15	3779.97
377.35	3786.99
377.54	4084.23
377.74	4145.09
377.93	4227.01
378.13	3997.64
378.33	3948.48
378.52	3529.53
378.72	3480.38
378.91	3431.23
379.11	3262.71
379.31	2988.86
379.50	3108.23
379.70	3384.41
379.89	3616.13
380.09	3939.12
380.28	3978.91
380.48	3988.27
380.68	4051.47
380.87	3782.31
381.07	3637.19
381.26	3222.92
381.46	3091.85
381.65	3047.38
381.85	2958.44
382.04	2623.74
382.24	2705.66
382.43	2476.29
382.63	2282.02
382.83	2408.41
383.02	2282.02
383.22	2476.29
383.41	2464.58
383.61	2626.08
383.80	3023.97
384.00	3314.20
384.19	3864.22
384.39	4124.02
384.58	4107.64
384.78	3843.16
384.97	3838.48
385.17	3737.84
385.36	3487.40
385.56	3300.16
385.75	3332.92
385.95	3791.67
386.14	4007.00
386.34	4072.53
386.53	4035.08
386.72	3676.98
386.92	3836.14
387.11	3925.08
387.31	4119.34
387.50	4100.62
387.70	3896.99
387.89	3857.20
388.09	3840.82
388.28	3887.63
388.48	3882.95
388.67	4198.92
388.86	4702.14
389.06	4983.00
389.25	5390.25
389.45	5284.93
389.64	5408.98
389.84	5254.50
390.03	5256.84
390.22	5191.31
390.42	5401.96
390.61	5832.62
390.81	6139.23
391.00	6333.49
391.19	6251.57
391.39	5935.60
391.58	5624.31
391.78	5387.91
391.97	5074.28
392.16	4821.50
392.36	4325.31
392.55	3452.29
392.75	2808.64
392.94	2265.64
393.13	2167.34
393.33	2693.96
393.52	3344.63
393.71	4217.65
393.91	4709.16
394.10	5071.94
394.29	5575.16
394.49	6059.65
394.68	6576.91
394.88	6448.18
395.07	6768.83
395.26	6827.34
395.46	6417.75
395.65	6057.31
395.84	5444.09
396.04	4615.54
396.23	3730.81
396.42	3070.78
396.62	2951.42
396.81	3499.10
397.00	4561.70
397.19	5638.35
397.39	6569.88
397.58	7433.54
397.77	8098.25
397.97	8238.69
398.16	8255.07
398.35	8798.07
398.55	8767.65
398.74	9242.78
398.93	9261.50
399.12	9231.07
399.32	8997.02
399.51	9048.51
399.70	9703.86
399.90	9537.68
400.09	9628.96
400.28	9423.00
400.47	9500.23
400.67	10120.48
400.86	10143.88
401.05	10377.94
401.24	10361.55
401.44	10670.50
401.63	10384.96
401.82	10588.58
402.01	10703.27
402.21	10768.80
402.40	10796.89
402.59	10600.29
402.78	10176.65
402.97	9682.80
403.17	10108.77
403.36	10670.50
403.55	11159.67
403.74	11171.38
403.93	10967.75
404.13	10038.56
404.32	9547.05
404.51	10319.42
404.70	11075.42
404.89	11042.65
405.09	10909.24
405.28	10527.73
405.47	10525.39
405.66	10572.20
405.85	10485.60
406.05	9956.64
406.24	9912.17
406.43	10736.04
406.62	10890.51
406.81	11103.50
407.00	10626.03
407.20	10499.64
407.39	10438.79
407.58	10787.53
407.77	11501.39
407.96	11882.90
408.15	12006.95
408.34	11857.15
408.54	12629.53
408.73	12711.45
408.92	12435.27
409.11	12053.76
409.30	11496.71
409.49	10663.48
409.68	9987.07
409.87	9750.67
410.07	10441.13
410.26	11222.87
410.45	11946.09
410.64	12255.04
410.83	12358.03
411.02	12760.60
411.21	13490.85
411.40	13004.02
411.59	13329.35
411.78	13048.49
411.98	13034.44
412.17	13092.96
412.36	13219.35
412.55	13001.68
412.74	12737.20
412.93	12533.57
413.12	12545.27
413.31	13720.22
413.50	13614.90
413.69	14354.51
413.88	13312.97
414.07	13350.42
414.26	13319.99
414.45	13788.10
414.64	14146.20
414.83	13860.65
415.02	13905.12
415.22	13626.60
415.41	14097.05
415.60	14317.06
415.79	14824.95
415.98	15403.07
416.17	15342.21
416.36	15009.86
416.55	14794.53
416.74	14333.44
416.93	13895.76
417.12	14097.05
417.31	13970.66
417.50	14342.80
417.69	14860.06
417.88	14654.09
418.07	14450.47
418.26	14375.57
418.45	14581.54
418.64	15007.52
418.83	15527.11
419.02	15534.14
419.21	15035.60
419.39	14724.31
419.58	13612.56
419.77	13806.82
419.96	14279.61
420.15	15061.35
420.34	15798.62
420.53	16322.90
420.72	16690.36
420.91	16325.24
421.10	16105.23
421.29	16418.86
421.48	15442.85
421.67	16400.13
421.86	15669.89
422.05	15028.58
422.24	13226.37
422.43	13195.94
422.61	14504.30
422.80	15805.64
422.99	15742.44
423.18	15360.94
423.37	15002.83
423.56	14860.06
423.75	15260.29
423.94	15358.60
424.13	14508.98
424.32	14712.61
424.50	14977.09
424.69	14623.67
424.88	14789.85
425.07	14586.22
425.26	14658.78
425.45	14534.73
425.64	14431.74
425.83	14019.81
426.01	15073.05
426.20	15466.26
426.39	15382.00
426.58	14394.29
426.77	13348.08
426.96	12739.54
427.15	13118.70
427.33	14129.81
427.52	14939.64
427.71	14883.47
427.90	14731.33
428.09	14820.27
428.28	14466.85
428.46	13839.59
428.65	13715.54
428.84	14108.75
429.03	14218.75
429.22	13331.69
429.40	12802.73
429.59	11466.28
429.78	10345.17
429.97	10274.95
430.16	10281.97
430.34	10445.81
430.53	10361.55
430.72	10541.77
430.91	11611.40
431.10	13755.33
431.28	16278.43
431.47	17624.23
431.66	17731.90
431.85	16273.74
432.03	15077.73
432.22	14083.00
432.41	14761.76
432.60	16425.88
432.79	17245.07
432.97	17734.24
433.16	16886.97
433.35	15845.43
433.54	14040.87
433.72	13261.48
433.91	13626.60
434.10	15047.30
434.28	16528.86
434.47	17324.65
434.66	17074.21
434.85	16552.27
435.03	16386.09
435.22	16924.41
435.41	17994.04
435.59	18127.45
435.78	18324.05
435.97	18670.45
436.16	18885.78
436.34	18387.25
436.53	18092.34
436.72	18389.59
436.90	16975.91
437.09	17001.65
437.28	16861.22
437.46	17467.42
437.65	17137.40
437.84	16259.70
438.02	14827.29
438.21	14771.12
438.40	15356.25
438.58	17003.99
438.77	17376.14
438.96	17764.67
439.14	18473.85
439.33	18497.25
439.52	19021.53
439.70	18670.45
439.89	18202.35
440.08	17659.34
440.26	17954.25
440.45	18251.50
440.63	19283.67
440.82	20350.96
441.01	20407.13
441.19	19803.27
441.38	20194.14
441.57	21200.57
441.75	21364.41
441.94	21448.67
442.12	21549.31
442.31	21671.02
442.50	21572.72
442.68	21572.72
442.87	20987.58
443.05	20744.17
443.24	20992.26
443.43	21865.28
443.61	21769.32
443.80	22464.46
443.98	20957.16
444.17	21036.74
444.35	21947.20
444.54	22492.55
444.73	22405.95
444.91	21376.11
445.10	20709.06
445.28	19866.47
445.47	19204.10
445.65	19658.16
445.84	20140.31
446.02	20905.66
446.21	21336.32
446.39	21413.56
446.58	21413.56
446.77	21738.90
446.95	22237.43
447.14	22242.11
447.32	23051.94
447.51	22551.06
447.69	21774.00
447.88	21338.66
448.06	21806.77
448.25	22309.99
448.43	22295.94
448.62	22146.15
448.80	21692.08
448.99	21944.86
449.17	22539.36
449.36	22333.39
449.54	23185.35
449.73	23192.37
449.91	23747.08
450.10	24414.13
450.28	24570.94
450.46	24329.87
450.65	24996.92
450.83	24421.15
451.02	23786.86
451.20	23770.48
451.39	23721.33
451.57	23197.05
451.76	23576.22
451.94	23608.98
452.13	22843.63
452.31	21832.52
452.49	20924.39
452.68	21015.67
452.86	21259.09
453.05	21834.86
453.23	22122.74
453.42	22637.66
453.60	23239.18
453.78	23513.02
453.97	23000.44
454.15	23349.18
454.34	22567.45
454.52	22494.89
454.70	22438.72
454.89	22576.81
455.07	22541.70
455.26	23449.83
455.44	24116.88
455.62	24299.44
455.81	24491.37
455.99	24276.04
456.17	23906.23
456.36	24067.73
456.54	24783.93
456.73	24769.89
456.91	25057.78
457.09	24950.11
457.28	26003.35
457.46	24758.19
457.64	24315.83
457.83	23892.19
458.01	23501.32
458.19	23885.17
458.38	24004.53
458.56	24837.76
458.74	24711.38
458.93	24463.28
459.11	24456.26
459.29	24140.29
459.48	24233.91
459.66	23882.83
459.84	24395.40
460.03	24556.90
460.21	24545.20
460.39	25263.74
460.57	25188.85
460.76	25734.19
460.94	25390.13
461.12	25245.02
461.31	25296.51
461.49	25514.18
461.67	25284.81
461.85	25984.63
462.04	25912.07
462.22	26579.12
462.40	25909.73
462.59	25755.26
462.77	26071.23
462.95	26106.34
463.13	25654.61
463.32	25612.48
463.50	25160.76
463.68	25495.46
463.86	25359.70
464.05	24982.88
464.23	24325.19
464.41	24252.63
464.59	24198.80
464.78	25062.46
464.96	25034.37
465.14	24746.48
465.32	25207.57
465.50	26300.60
465.69	26237.41
465.87	26211.66
466.05	25069.48
466.23	24189.44
466.41	23428.76
466.60	24285.40
466.78	24175.39
466.96	25092.88
467.14	25120.97
467.32	25163.10
467.51	25343.32
467.69	24065.39
467.87	24833.08
468.05	25064.80
468.23	25422.90
468.41	25170.12
468.60	25081.18
468.78	25539.93
468.96	25165.44
469.14	25685.04
469.32	26139.10
469.50	24959.47
469.69	24608.39
469.87	24521.79
470.05	24240.93
470.23	24404.77
470.41	24524.13
470.59	25177.14
470.77	24694.99
470.95	25722.49
471.14	25996.33
471.32	25532.90
471.50	27227.45
471.68	27222.77
471.86	28154.30
472.04	27494.27
472.22	27758.75
472.40	26183.57
472.58	26115.70
472.77	25907.39
472.95	26408.26
473.13	27337.46
473.31	26616.57
473.49	26338.05
473.67	26691.47
473.85	27204.05
474.03	27524.70
474.21	27428.74
474.39	27999.83
474.57	28315.80
474.75	28599.01
474.93	28271.33
475.12	27477.89
475.30	27637.05
475.48	28095.79
475.66	28107.49
475.84	27641.73
476.02	27395.97
476.20	26815.52
476.38	27948.34
476.56	28023.23
476.74	28631.77
476.92	29200.52
477.10	29448.62
477.28	30742.94
477.46	30059.50
477.64	30417.60
477.82	30988.69
478.00	30771.02
478.18	30356.75
478.36	30347.39
478.54	30218.66
478.72	30295.89
478.90	31248.49
479.08	31934.27
479.26	32385.99
479.44	32245.56
479.62	32285.35
479.80	32407.06
479.98	32322.80
480.16	32545.15
480.34	32250.24
480.52	32772.18
480.70	32762.82
480.88	32837.72
481.06	33635.84
481.24	33696.69
481.41	34473.75
481.59	34946.54
481.77	34560.35
481.95	34122.67
482.13	34312.25
482.31	34061.82
482.49	34539.29
482.67	34586.10
482.85	35061.22
483.03	35386.56
483.21	35742.32
483.39	35974.03
483.57	35232.08
483.74	34841.21
483.92	35108.04
484.10	35264.85
484.28	36107.44
484.46	36381.29
484.64	37081.11
484.82	36098.08
485.00	35693.17
485.18	34969.94
485.35	34188.21
485.53	31463.82
485.71	28713.69
485.89	28137.92
486.07	29149.03
486.25	32070.02
486.43	33645.20
486.61	34597.80
486.78	35019.10
486.96	34670.36
487.14	36172.98
487.32	36809.61
487.50	38174.14
487.68	39140.78
487.85	39775.06
488.03	39819.53
488.21	39150.14
488.39	38389.47
488.57	37390.06
488.75	37361.97
488.92	38129.67
489.10	40636.38
489.28	42333.27
489.46	43814.83
489.64	43189.91
489.81	43440.34
489.99	42983.94
490.17	42827.12
490.35	43358.42
490.53	42824.78
490.70	42237.31
490.88	42424.55
491.06	43538.65
491.24	43288.21
491.41	42206.88
491.59	40334.45
491.77	39374.83
491.95	40495.95
492.13	42026.66
492.30	43531.62
492.48	44877.43
492.66	45595.98
492.84	45684.92
493.01	44938.29
493.19	44566.14
493.37	43950.58
493.54	43592.48
493.72	44488.90
493.90	46153.02
494.08	46471.34
494.25	47178.18
494.43	47407.55
494.61	48128.44
494.79	47988.00
494.96	47283.50
495.14	46904.34
495.32	45787.90
495.49	44905.52
495.67	46246.65
495.85	47964.60
496.02	48484.20
496.20	48547.39
496.38	47880.34
496.55	47557.35
496.73	48477.18
496.91	48500.58
497.09	49593.61
497.26	49507.01
497.44	48832.94
497.62	48006.73
497.79	47019.02
497.97	45359.58
498.14	45282.34
498.32	46623.47
498.50	48144.82
498.67	49125.50
498.85	48926.56
499.03	49125.50
499.20	49249.55
499.38	49235.51
499.56	49144.23
499.73	48507.60
499.91	48198.65
500.08	47276.48
500.26	46286.43
500.44	46904.34
500.61	47950.56
500.79	47906.08
500.97	46986.25
501.14	46607.09
501.32	46794.33
501.49	46780.29
501.67	46993.28
501.84	47793.74
502.02	48561.44
502.20	48619.95
502.37	48762.72
502.55	49256.57
502.72	49762.13
502.90	50471.31
503.07	49743.41
503.25	49235.51
503.43	48175.25
503.60	47075.19
503.78	46354.31
503.95	46958.17
504.13	48961.67
504.30	50197.47
504.48	49792.56
504.65	49141.89
504.83	49579.57
505.01	50115.55
505.18	50698.34
505.36	51552.64
505.53	51491.79
505.71	51592.43
505.88	51697.75
506.06	51044.74
506.23	50410.46
506.41	50101.51
506.58	50174.06
506.76	50340.24
506.93	50518.12
507.11	50010.23
507.28	50337.90
507.46	49429.77
507.63	48842.30
507.81	48664.42
507.98	49034.22
508.16	49645.10
508.33	50174.06
508.50	50955.80
508.68	51562.00
508.85	51903.72
509.03	51896.70
509.20	51693.07
509.38	51037.72
509.55	49956.39
509.73	49844.05
509.90	50855.16
510.08	51292.84
510.25	50923.04
510.42	50731.11
510.60	50677.28
510.77	51157.09
510.95	51697.75
511.12	51810.10
511.30	52250.12
511.47	53095.05
511.64	52420.98
511.82	51969.26
511.99	51187.52
512.17	50960.48
512.34	49977.46
512.51	50401.10
512.69	50604.72
512.86	50770.90
513.04	51175.81
513.21	51114.96
513.38	50665.58
513.56	50059.38
513.73	49523.40
513.90	49677.87
514.08	49621.70
514.25	50010.23
514.43	50394.07
514.60	50358.97
514.77	50511.10
514.95	50972.19
515.12	50770.90
515.29	51093.89
515.47	51267.09
515.64	51877.97
515.81	51320.93
515.99	50719.41
516.16	48598.88
516.33	45617.04
516.51	43536.30
516.68	42754.57
516.85	42277.10
517.03	42384.76
517.20	46263.03
517.37	49607.65
517.54	50745.15
517.72	50560.25
517.89	47082.22
518.06	43758.66
518.24	44062.93
518.41	47126.69
518.58	49029.54
518.75	49179.34
518.93	49439.14
519.10	49219.13
519.27	49724.68
519.45	50497.06
519.62	51187.52
519.79	51402.85
519.96	51327.95
520.14	50857.50
520.31	50047.68
520.48	49874.48
520.65	49844.05
520.83	51330.29
521.00	51550.30
521.17	51447.32
521.34	50527.48
521.52	51075.17
521.69	51774.99
521.86	52413.96
522.03	52229.05
522.20	50555.57
522.38	49132.53
522.55	49460.20
522.72	50241.94
522.89	50586.00
523.07	50433.86
523.24	51044.74
523.41	52116.71
523.58	52261.82
523.75	52830.57
523.92	52898.45
524.10	52762.70
524.27	52479.49
524.44	52193.95
524.61	52212.67
524.78	51833.50
524.96	51746.90
525.13	51936.49
525.30	52060.54
525.47	52966.32
525.64	52474.81
525.81	51817.12
525.98	49539.78
526.16	47749.27
526.33	47157.11
526.50	46356.65
526.67	45904.93
526.84	46660.92
527.01	48662.08
527.18	49464.88
527.36	50473.65
527.53	51709.46
527.70	52018.41
527.87	51276.46
528.04	50916.01
528.21	51367.74
528.38	52252.46
528.55	52765.04
528.72	53289.32
528.89	53462.52
529.07	53064.63
529.24	52212.67
529.41	51550.30
529.58	51011.98
529.75	51199.22
529.92	51655.62
530.09	52261.82
530.26	52545.03
530.43	52933.56
530.60	52720.57
530.77	53139.52
530.94	53214.42
531.11	52727.59
531.28	52456.09
531.46	52156.50
531.63	52418.64
531.80	52170.54
531.97	51751.59
532.14	50740.47
532.31	49429.77
532.48	48673.78
532.65	48435.05
532.82	49574.89
532.99	51419.23
533.16	51461.36
533.33	52465.45
533.50	52451.41
533.67	51009.64
533.84	50279.39
534.01	51049.42
534.18	51459.02
534.35	51739.88
534.52	51208.58
534.69	51709.46
534.86	52289.91
535.03	52341.40
535.20	53050.58
535.37	53097.39
535.54	53251.87
535.71	53134.84
535.88	52868.02
536.05	51655.62
536.22	51096.24
536.38	50684.30
536.55	50347.26
536.72	49794.90
536.89	49507.01
537.06	50658.56
537.23	51643.92
537.40	52023.09
537.57	51908.40
537.74	52097.98
537.91	51751.59
538.08	51636.90
538.25	51657.96
538.42	51856.91
538.59	51290.50
538.75	51206.24
538.92	50780.26
539.09	50466.63
539.26	49839.37
539.43	50021.93
539.60	50031.29
539.77	50244.28
539.94	50143.64
540.11	49027.20
540.28	48933.58
540.44	48751.02
540.61	49169.97
540.78	49244.87
540.95	49986.82
541.12	50223.22
541.29	50808.35
541.46	51117.30
541.62	51440.29
541.79	50623.45
541.96	50096.83
542.13	50230.24
542.30	50590.68
542.47	50616.43
542.63	50337.90
542.80	50101.51
542.97	50337.90
543.14	50085.12
543.31	50237.26
543.48	51058.79
543.64	52016.07
543.81	52048.83
543.98	52069.90
544.15	51154.75
544.32	50494.72
544.48	50539.19
544.65	51164.11
544.82	51601.79
544.99	51210.92
545.16	50607.06
545.32	49993.84
545.49	51356.03
545.66	51861.59
545.83	51533.92
546.00	51117.30
546.16	50571.96
546.33	50511.10
546.50	50433.86
546.67	51356.03
546.83	50370.67
547.00	50370.67
547.17	49961.08
547.34	48982.73
547.50	49085.72
547.67	49605.31
547.84	49556.16
548.00	50068.74
548.17	50637.49
548.34	50447.91
548.51	50586.00
548.67	50286.41
548.84	50731.11
549.01	50721.75
549.18	50468.97
549.34	50426.84
549.51	50410.46
549.68	50412.80
549.84	50057.04
550.01	49979.80
550.18	49921.29
550.34	49619.36
550.51	49937.67
550.68	49750.43
550.84	49340.83
551.01	49638.08
551.18	49191.04
551.34	49958.73
551.51	50258.32
551.68	50391.73
551.84	50644.51
552.01	50588.34
552.18	50141.30
552.34	49275.30
552.51	48718.25
552.68	48446.75
552.84	49495.31
553.01	49607.65
553.18	49663.83
553.34	49478.92
553.51	49553.82
553.67	50218.53
553.84	50183.43
554.01	49951.71
554.17	50078.10
554.34	49818.30
554.51	50244.28
554.67	50536.85
554.84	50445.57
555.00	49610.00
555.17	49455.52
555.33	49284.66
555.50	49521.05
555.67	49787.88
555.83	49270.62
556.00	48898.47
556.16	48905.49
556.33	48573.14
556.50	48177.59
556.66	48306.32
556.83	47784.38
556.99	48378.87
557.16	48287.59
557.32	48772.08
557.49	48692.50
557.65	48697.19
557.82	48746.34
557.98	48421.00
558.15	47395.85
558.32	46686.67
558.48	45394.69
558.65	45993.87
558.81	46351.97
558.98	47250.74
559.14	47065.83
559.31	47428.62
559.47	47370.10
559.64	46972.21
559.80	46265.37
559.97	46319.20
560.13	46892.63
560.30	48231.42
560.46	49081.03
560.63	49378.28
560.79	49420.41
560.96	49106.78
561.12	47173.50
561.29	45874.50
561.45	46019.61
561.61	46951.15
561.78	47775.02
561.94	46937.10
562.11	46909.02
562.27	47185.20
562.44	47334.99
562.60	47995.03
562.77	48409.30
562.93	48006.73
563.10	48037.16
563.26	46983.91
563.42	47377.12
563.59	46969.87
563.75	46691.35
563.92	46866.89
564.08	46834.12
564.24	47334.99
564.41	47360.74
564.57	47140.73
564.74	46773.27
564.90	46454.95
565.07	46986.25
565.23	46358.99
565.39	45357.24
565.56	45036.59
565.72	44818.92
565.88	45724.71
566.05	45677.90
566.21	45347.88
566.38	45986.85
566.54	46333.24
566.70	46824.76
566.87	46635.17
567.03	46698.37
567.19	47271.80
567.36	46773.27
567.52	46766.24
567.68	46618.79
567.85	45249.58
568.01	44788.49
568.17	44229.10
568.34	44423.37
568.50	44137.82
568.66	44458.48
568.83	45223.83
568.99	44837.64
569.15	45233.19
569.32	45340.86
569.48	45247.24
569.64	44839.98
569.81	44437.41
569.97	44399.96
570.13	44126.12
570.30	43379.49
570.46	42635.20
570.62	42101.56
570.78	42171.77
570.95	42710.10
571.11	43430.98
571.27	43480.13
571.43	43718.87
571.60	44336.77
571.76	44495.92
571.92	45045.95
572.09	45743.43
572.25	45731.73
572.41	45111.49
572.57	44947.65
572.74	44896.16
572.90	44383.58
573.06	44467.84
573.22	44327.41
573.38	44332.09
573.55	44645.72
573.71	44545.08
573.87	44456.14
574.03	44198.68
574.20	44346.13
574.36	43412.26
574.52	43669.72
574.68	43129.05
574.84	43084.58
575.01	42611.79
575.17	42110.92
575.33	42557.96
575.49	42707.76
575.65	42951.17
575.82	43030.75
575.98	42349.65
576.14	42836.48
576.30	43477.79
576.46	42981.60
576.62	43400.55
576.79	42829.46
576.95	42967.55
577.11	42572.00
577.27	42712.44
577.43	43248.42
577.59	42124.96
577.75	42227.95
577.92	41097.47
578.08	41036.61
578.24	40802.56
578.40	41308.11
578.56	41799.63
578.72	41837.08
578.88	41972.83
579.04	42073.47
579.21	42033.68
579.37	42370.72
579.53	42583.71
579.69	42333.27
579.85	43030.75
580.01	42607.11
580.17	42101.56
580.33	41940.06
580.49	41586.64
580.65	42181.13
580.82	42405.83
580.98	42300.50
581.14	42490.09
581.30	42319.23
581.46	42059.43
581.62	42515.83
581.78	42417.53
581.94	42635.20
582.10	42763.93
582.26	42834.14
582.42	42689.03
582.58	42810.74
582.74	42775.63
582.90	42501.79
583.06	42962.87
583.22	42869.25
583.38	42251.35
583.54	41930.70
583.70	41979.85
583.86	42454.98
584.02	41734.09
584.18	42230.29
584.34	41811.33
584.50	42307.52
584.66	41736.43
584.82	41268.33
584.98	41130.23
585.14	40470.20
585.30	40030.18
585.46	39313.98
585.62	39679.10
585.78	39950.60
585.94	39889.75
586.10	40502.97
586.26	40416.37
586.42	40914.90
586.58	41413.44
586.74	40896.18
586.90	40739.36
587.06	40823.62
587.22	40861.07
587.38	40210.40
587.54	40264.24
587.70	40102.74
587.86	39412.28
588.02	39150.14
588.18	39695.49
588.34	37797.31
588.49	35981.06
588.65	33972.88
588.81	33649.88
588.97	34225.65
589.13	34026.71
589.29	34155.44
589.45	34550.99
589.61	35386.56
589.77	37123.24
589.93	37771.57
590.08	38532.24
590.24	38635.22
590.40	38838.85
590.56	38768.63
590.72	38543.94
590.88	37902.64
591.04	37996.26
591.20	37996.26
591.35	37439.21
591.51	37759.86
591.67	37642.84
591.83	37764.54
591.99	38096.90
592.15	38309.89
592.31	38396.49
592.46	38267.76
592.62	37965.83
592.78	37855.82
592.94	37801.99
593.10	38010.30
593.26	38440.96
593.41	38499.47
593.57	38480.75
593.73	37549.21
593.89	37652.20
594.05	37542.19
594.20	37160.69
594.36	36652.79
594.52	36196.38
594.68	36676.19
594.84	36498.31
594.99	37457.93
595.15	36624.70
595.31	36978.12
595.47	37376.01
595.62	37242.60
595.78	37755.18
595.94	37390.06
596.10	38127.33
596.25	37523.47
596.41	37113.87
596.57	37127.92
596.73	37336.23
596.88	37371.33
597.04	37160.69
597.20	36563.85
597.36	36676.19
597.51	36596.62
597.67	36924.29
597.83	36748.75
597.99	37001.53
598.14	36638.75
598.30	35798.49
598.46	36011.48
598.61	36346.18
598.77	36062.97
598.93	36765.14
599.09	36449.16
599.24	36708.96
599.40	36561.51
599.56	36690.24
599.71	36172.98
599.87	37062.38
600.03	36112.13
600.18	35950.63
600.34	35725.94
600.50	36060.63
600.65	35634.66
600.81	35702.53
600.97	35622.95
601.12	35655.72
601.28	35536.35
601.44	35424.01
601.59	35185.27
601.75	35260.17
601.91	35112.72
602.06	34911.43
602.22	35325.71
602.37	34850.58
602.53	35498.91
602.69	35641.68
602.84	35679.13
603.00	36519.38
603.16	36802.58
603.31	36278.30
603.47	36381.29
603.62	35906.16
603.78	35969.35
603.94	35571.46
604.09	35634.66
604.25	35859.35
604.40	35606.57
604.56	35461.46
604.71	36074.68
604.87	35473.16
605.03	34909.09
605.18	35161.87
605.34	35150.17
605.49	34836.53
605.65	35920.20
605.80	35281.24
605.96	35374.86
606.12	34642.27
606.27	34499.50
606.43	34785.04
606.58	35166.55
606.74	34927.81
606.89	35070.59
607.05	35070.59
607.20	35199.32
607.36	34710.14
607.51	33886.28
607.67	34639.93
607.82	34038.41
607.98	34267.78
608.13	33708.40
608.29	34164.80
608.44	33727.12
608.60	33724.78
608.75	34082.88
608.91	33766.91
609.06	33940.11
609.22	34424.60
609.37	33659.24
609.53	33621.80
609.68	33034.32
609.84	32755.80
609.99	32514.72
610.15	32900.91
610.30	33322.21
610.46	33317.53
610.61	34134.37
610.76	33907.34
610.92	34291.19
611.07	34422.26
611.23	34082.88
611.38	34431.62
611.54	33912.02
611.69	32952.40
611.84	32287.69
612.00	32173.00
612.15	32308.76
612.31	32664.52
612.46	32563.87
612.62	32800.27
612.77	32835.38
612.92	33132.62
613.08	32144.92
613.23	31754.05
613.39	31131.47
613.54	31082.31
613.69	31470.84
613.85	31187.64
614.00	31997.46
614.15	31929.59
614.31	31793.84
614.46	32063.00
614.62	31646.38
614.77	31634.68
614.92	31777.45
615.08	31342.11
615.23	31721.28
615.38	31700.22
615.54	30864.64
615.69	30270.15
615.84	29586.71
616.00	29460.32
616.15	29631.18
616.30	29961.20
616.46	29773.95
616.61	29930.77
616.76	29893.32
616.92	30398.88
617.07	30597.82
617.22	30412.92
617.37	30771.02
617.53	30829.54
617.68	31227.43
617.83	31569.15
617.99	30984.01
618.14	30974.65
618.29	31087.00
618.45	30382.49
618.60	30401.22
618.75	29748.21
618.90	29888.64
619.06	29989.28
619.21	30679.74
619.36	30764.00
619.51	30764.00
619.67	29986.94
619.82	30237.38
619.97	30752.30
620.12	30190.57
620.28	29942.47
620.43	30499.52
620.58	29944.81
620.73	30230.36
620.89	30008.01
621.04	29947.15
621.19	29720.12
621.34	29226.27
621.49	29219.25
621.65	28821.36
621.80	29289.46
621.95	29352.66
622.10	29326.91
622.25	29385.43
622.41	28919.66
622.56	28903.28
622.71	28568.58
622.86	28477.30
623.01	28797.95
623.16	28947.75
623.32	28573.26
623.47	28694.97
623.62	28657.52
623.77	28453.89
623.92	28250.27
624.07	27735.35
624.23	27459.16
624.38	27400.65
624.53	28002.17
624.68	27796.20
624.83	27948.34
624.98	27358.52
625.13	26984.04
625.29	27316.39
625.44	27047.23
625.59	27161.92
625.74	27222.77
625.89	27393.63
626.04	27590.24
626.19	27421.72
626.34	27393.63
626.49	27564.49
626.65	27311.71
626.80	27564.49
626.95	27374.91
627.10	27122.13
627.25	26766.37
627.40	26036.12
627.55	25488.43
627.70	25088.20
627.85	25390.13
628.00	25511.84
628.15	25886.32
628.30	26312.30
628.45	26176.55
628.60	25928.45
628.76	26101.65
628.91	26267.83
629.06	26005.69
629.21	26235.06
629.36	26218.68
629.51	25626.53
629.66	25333.96
629.81	24907.98
629.96	25387.79
630.11	25479.07
630.26	25837.17
630.41	25736.53
630.56	25802.07
630.71	25839.51
630.86	25893.35
631.01	25312.89
631.16	25305.87
631.31	24964.15
631.46	24528.81
631.61	24650.52
631.76	25057.78
631.91	24870.53
632.06	25301.19
632.21	25443.96
632.36	25883.98
632.51	25584.40
632.66	25647.59
632.81	25329.28
632.96	25692.06
633.10	25497.80
633.25	25165.44
633.40	25057.78
633.55	24994.58
633.70	24753.51
633.85	24971.18
634.00	24697.33
634.15	24783.93
634.30	25291.83
634.45	25228.63
634.60	25006.28
634.75	25174.80
634.90	25015.65
635.05	25170.12
635.19	25032.03
635.34	24985.22
635.49	24638.82
635.64	24739.46
635.79	24465.62
635.94	24416.47
636.09	24390.72
636.24	24521.79
636.39	24189.44
636.53	24732.44
636.68	24662.22
636.83	24711.38
636.98	24879.89
637.13	24739.46
637.28	24781.59
637.43	24910.32
637.57	24748.82
637.72	24594.35
637.87	24474.98
638.02	24739.46
638.17	24746.48
638.32	24224.54
638.46	24608.39
638.61	24404.77
638.76	24276.04
638.91	23889.85
639.06	23805.59
639.20	23836.02
639.35	23772.82
639.50	23714.31
639.65	23328.12
639.80	23782.18
639.94	23379.61
640.09	23826.65
640.24	23648.77
640.39	23826.65
640.54	23187.69
640.68	23365.57
640.83	23049.60
640.98	23232.16
641.13	22927.89
641.27	23087.04
641.42	23070.66
641.57	22590.85
641.72	23122.15
641.86	22855.33
642.01	22850.65
642.16	23276.63
642.31	23168.96
642.45	23510.68
642.60	23201.73
642.75	22855.33
642.90	22677.45
643.04	22801.50
643.19	22899.80
643.34	22590.85
643.48	22396.59
643.63	22478.50
643.78	22654.05
643.93	22764.05
644.07	23009.81
644.22	22991.08
644.37	22827.24
644.51	22778.09
644.66	22628.30
644.81	22579.15
644.95	22464.46
645.10	22099.34
645.25	21895.71
645.39	21874.65
645.54	22045.51
645.69	22061.89
645.83	21479.10
645.98	21661.66
646.13	21537.61
646.27	21598.46
646.42	21518.89
646.57	21256.75
646.71	21565.70
646.86	21645.27
647.00	21298.88
647.15	21277.81
647.30	20882.26
647.44	20704.38
647.59	20975.88
647.74	20718.42
647.88	20959.50
648.03	20875.24
648.17	20896.30
648.32	21186.53
648.47	21076.52
648.61	20886.94
648.76	20945.45
648.90	20402.45
649.05	19896.89
649.20	19302.40
649.34	19337.51
649.49	19433.47
649.63	19707.31
649.78	19894.55
649.92	20533.52
650.07	20910.35
650.21	20725.44
650.36	21277.81
650.51	21050.78
650.65	21067.16
650.80	21074.18
650.94	21120.99
651.09	20512.46
651.23	20100.52
651.38	19948.39
651.52	19641.78
651.67	19995.20
651.81	20044.35
651.96	20212.87
652.10	20418.83
652.25	20414.15
652.39	20297.13
652.54	20280.74
652.68	20388.41
652.83	20367.34
652.97	19880.51
653.12	20304.15
653.26	20149.67
653.41	20559.27
653.55	20346.28
653.70	20042.01
653.84	20163.72
653.99	19623.05
654.13	19587.94
654.27	19377.30
654.42	19323.46
654.56	19257.93
654.71	19440.49
654.85	19166.65
655.00	19241.54
655.14	18813.23
655.29	18721.95
655.43	18405.97
655.57	17493.16
655.72	16180.12
655.86	15044.96
656.01	14328.76
656.15	14647.07
656.30	15253.27
656.44	15922.66
656.58	16566.31
656.73	17303.58
656.87	17734.24
657.01	18207.03
657.16	18443.42
657.30	18384.91
657.45	18747.69
657.59	18853.02
657.73	19080.05
657.88	18906.85
658.02	19075.37
658.16	19035.58
658.31	18705.56
658.45	18710.24
658.60	18743.01
658.74	18588.53
658.88	18464.49
659.03	18221.07
659.17	18441.08
659.31	18579.17
659.46	18298.31
659.60	18579.17
659.74	18525.34
659.89	18775.78
660.03	18602.58
660.17	18768.76
660.32	18665.77
660.46	18665.77
660.60	18448.10
660.74	18354.48
660.89	18377.89
661.03	18207.03
661.17	18532.36
661.32	18595.56
661.46	18382.57
661.60	18267.88
661.74	18576.83
661.89	18403.63
662.03	18258.52
662.17	18377.89
662.31	18129.79
662.46	18427.04
662.60	18354.48
662.74	17909.78
662.88	18003.40
663.03	17727.22
663.17	17539.97
663.31	17523.59
663.45	17617.21
663.60	17458.06
663.74	17390.18
663.88	17378.48
664.02	17565.72
664.17	17570.40
664.31	17661.68
664.45	17556.36
664.59	17563.38
664.73	17273.15
664.88	17420.61
665.02	17420.61
665.16	17532.95
665.30	17420.61
665.44	17448.69
665.59	17205.28
665.73	17345.71
665.87	16786.32
666.01	16917.39
666.15	16893.99
666.29	16517.16
666.44	16587.38
666.58	16877.60
666.72	16697.38
666.86	17041.44
667.00	16776.96
667.14	16858.88
667.28	16720.79
667.43	16624.83
667.57	16428.22
667.71	16573.33
667.85	16411.84
667.99	16732.49
668.13	16315.87
668.27	16629.51
668.41	16683.34
668.56	16215.23
668.70	16526.52
668.84	16339.28
668.98	16306.51
669.12	16402.47
669.26	15852.45
669.40	16280.77
669.54	16137.99
669.68	16046.71
669.82	16088.84
669.96	15747.12
670.10	15693.29
670.25	15885.22
670.39	15749.46
670.53	15697.97
670.67	15833.72
670.81	15510.73
670.95	15426.47
671.09	15602.01
671.23	15393.70
671.37	15218.16
671.51	15398.38
671.65	15379.66
671.79	15080.07
671.93	15304.76
672.07	15342.21
672.21	15213.48
672.35	15372.64
672.49	15353.91
672.63	15433.49
672.77	14979.43
672.91	15342.21
673.05	15054.33
673.19	15236.89
673.33	14960.70
673.47	14743.03
673.61	15016.88
673.75	14853.04
673.89	14478.55
674.03	14927.94
674.17	14764.10
674.31	14719.63
674.45	14757.08
674.59	14834.32
674.73	14572.18
674.87	14356.85
675.01	14377.91
675.15	14361.53
675.29	14593.24
675.43	14541.75
675.56	14321.74
675.70	14146.20
675.84	14190.67
675.98	14214.07
676.12	14291.31
676.26	14352.16
676.40	14298.33
676.54	13867.67
676.68	13729.58
676.82	13673.41
676.96	13507.23
677.10	13628.94
677.23	13783.41
677.37	13666.39
677.51	13650.00
677.65	13654.69
677.79	13458.08
677.93	13341.05
678.07	13376.16
678.21	13163.17
678.34	13102.32
678.48	13170.19
678.62	13064.87
678.76	13139.77
678.90	12889.33
679.04	12952.52
679.18	13067.21
679.31	12674.00
679.45	12945.50
679.59	13090.62
679.73	12779.32
679.87	12652.94
680.00	12814.43
680.14	12697.41
680.28	12475.06
680.42	12421.22
680.56	12404.84
680.70	12549.95
680.83	12327.60
680.97	12320.58
681.11	12259.73
681.25	12395.48
681.39	12519.53
681.52	12369.73
681.66	12173.13
681.80	12196.53
681.94	12262.07
682.07	12133.34
682.21	12018.65
682.35	11815.02
682.49	11709.70
682.62	11939.07
682.76	11571.61
682.90	11779.92
683.04	11744.81
683.17	11592.67
683.31	11283.72
683.45	11470.97
683.59	11494.37
683.72	11199.46
683.86	11030.94
684.00	10934.98
684.13	10885.83
684.27	10995.84
684.41	11047.33
684.55	10913.92
684.68	11236.91
684.82	11073.07
684.96	10916.26
685.09	10960.73
685.23	10703.27
685.37	10604.97
685.50	10562.84
685.64	10775.83
685.78	10326.44
685.91	10382.62
686.05	10509.01
686.19	10146.22
686.32	9593.86
686.46	8636.58
686.60	7597.38
686.73	7126.93
686.87	6726.70
687.01	6448.18
687.14	6532.44
687.28	6946.71
687.42	7187.79
687.55	7709.72
687.69	8011.65
687.82	8315.92
687.96	8365.07
688.10	8650.62
688.23	8528.91
688.37	8491.46
688.50	8180.17
688.64	8276.13
688.78	7936.76
688.91	7763.56
689.05	7950.80
689.18	7871.22
689.32	7810.37
689.46	7906.33
689.59	7913.35
689.73	8210.60
689.86	7946.12
690.00	8039.74
690.13	8067.83
690.27	8255.07
690.41	8067.83
690.54	8023.36
690.68	8196.56
690.81	8313.58
690.95	8372.10
691.08	8297.20
691.22	8044.42
691.35	8217.62
691.49	8306.56
691.62	8163.79
691.76	8287.84
691.89	8325.29
692.03	8212.94
692.16	8067.83
692.30	8278.47
692.43	7906.33
692.57	7852.50
692.70	7688.66
692.84	7768.24
692.97	7651.21
693.11	7679.30
693.24	7758.88
693.38	7761.22
693.51	7789.30
693.65	7639.51
693.78	7377.37
693.92	7391.41
694.05	7473.33
694.19	7337.58
694.32	7447.58
694.45	7358.64
694.59	7459.29
694.72	7485.03
694.86	7630.15
694.99	7300.13
695.13	7428.86
695.26	7232.26
695.39	7351.62
695.53	7138.63
695.66	6974.80
695.80	7276.73
695.93	7054.37
696.07	7037.99
696.20	7246.30
696.33	7372.69
696.47	7623.12
696.60	7506.10
696.73	7414.82
696.87	7442.90
697.00	7323.54
697.14	7400.77
697.27	7239.28
697.40	7236.94
697.54	6913.94
697.67	6855.43
697.80	6656.48
697.94	6700.95
698.07	6686.91
698.21	6754.79
698.34	6829.68
698.47	6434.13
698.61	6530.09
698.74	6457.54
698.87	6286.68
699.01	6544.14
699.14	6370.94
699.27	6459.88
699.40	6696.27
699.54	6478.60
699.67	6396.68
699.80	6272.64
699.94	6244.55
700.07	6171.99
700.20	6050.28
700.34	5961.34
700.47	5858.36
700.60	5900.49
700.73	5947.30
700.87	5867.72
701.00	5888.79
701.13	5825.59
701.26	5956.66
701.40	5703.89
701.53	5776.44
701.66	5830.27
701.79	5856.02
701.93	5802.19
702.06	5713.25
702.19	5769.42
702.32	5645.37
702.46	5547.07
702.59	5528.35
702.72	5575.16
702.85	5650.05
702.99	5586.86
703.12	5699.20
703.25	5540.05
703.38	5692.18
703.51	5497.92
703.65	5514.30
703.78	5273.23
703.91	5228.76
704.04	5476.85
704.17	5530.69
704.31	5345.78
704.44	5479.19
704.57	5387.91
704.70	5240.46
704.83	5392.59
704.96	5329.40
705.10	5406.64
705.23	5144.50
>>>>>End Processed Spectral Data<<<<<
