SpectraSuite Data File
++++++++++++++++++++++++++++++++++++
Date: Mon Oct 07 14:54:54 GMT-05:00 2013
User: price-jones
Dark Spectrum Present: No
Reference Spectrum Present: No
Number of Sampled Component Spectra: 1
Spectrometers: USB2+H05261
Integration Time (usec): 10000 (USB2+H05261)
Spectra Averaged: 1 (USB2+H05261)
Boxcar Smoothing: 0 (USB2+H05261)
Correct for Electrical Dark: No (USB2+H05261)
Strobe/Lamp Enabled: No (USB2+H05261)
Correct for Detector Non-linearity: No (USB2+H05261)
Correct for Stray Light: No (USB2+H05261)
Number of Pixels in Processed Spectrum: 2048
>>>>>Begin Processed Spectral Data<<<<<
365.73	0.00
365.92	0.00
366.12	0.00
366.32	0.00
366.52	0.00
366.72	0.00
366.91	0.00
367.11	0.00
367.31	0.00
367.51	0.00
367.70	0.00
367.90	0.00
368.10	0.00
368.30	0.00
368.49	0.00
368.69	0.00
368.89	0.00
369.09	0.00
369.28	0.00
369.48	0.00
369.68	0.00
369.87	0.00
370.07	0.00
370.27	0.00
370.47	0.00
370.66	0.00
370.86	0.00
371.06	0.00
371.25	25.75
371.45	0.00
371.65	0.00
371.84	0.00
372.04	0.00
372.24	23.41
372.44	67.88
372.63	9.36
372.83	0.00
373.03	11.70
373.22	11.70
373.42	0.00
373.62	0.00
373.81	0.00
374.01	39.79
374.21	60.85
374.40	7.02
374.60	0.00
374.79	0.00
374.99	88.94
375.19	65.54
375.38	72.56
375.58	98.30
375.78	0.00
375.97	112.35
376.17	79.58
376.37	86.60
376.56	58.51
376.76	142.77
376.95	135.75
377.15	182.56
377.35	224.69
377.54	168.52
377.74	121.71
377.93	133.41
378.13	189.58
378.33	126.39
378.52	56.17
378.72	110.01
378.91	140.43
379.11	93.62
379.31	18.72
379.50	86.60
379.70	65.54
379.89	93.62
380.09	128.73
380.28	184.90
380.48	147.45
380.68	152.13
380.87	77.24
381.07	163.84
381.26	105.32
381.46	77.24
381.65	119.37
381.85	65.54
382.04	86.60
382.24	107.66
382.43	0.00
382.63	44.47
382.83	9.36
383.02	44.47
383.22	72.56
383.41	0.00
383.61	53.83
383.80	124.05
384.00	91.28
384.19	184.90
384.39	248.10
384.58	156.82
384.78	194.26
384.97	168.52
385.17	173.20
385.36	133.41
385.56	49.15
385.75	156.82
385.95	191.92
386.14	224.69
386.34	241.08
386.53	133.41
386.72	128.73
386.92	107.66
387.11	112.35
387.31	173.20
387.50	201.29
387.70	189.58
387.89	98.30
388.09	191.92
388.28	163.84
388.48	205.97
388.67	198.95
388.86	252.78
389.06	362.78
389.25	212.99
389.45	337.04
389.64	264.48
389.84	278.52
390.03	304.27
390.22	269.16
390.42	341.72
390.61	348.74
390.81	379.17
391.00	376.83
391.19	374.49
391.39	372.15
391.58	304.27
391.78	341.72
391.97	231.71
392.16	308.95
392.36	220.01
392.55	44.47
392.75	4.68
392.94	0.00
393.13	14.04
393.33	49.15
393.52	77.24
393.71	241.08
393.91	217.67
394.10	332.36
394.29	369.80
394.49	400.23
394.68	491.51
394.88	472.79
395.07	500.87
395.26	435.34
395.46	414.27
395.65	351.08
395.84	262.14
396.04	217.67
396.23	105.32
396.42	51.49
396.62	7.02
396.81	114.69
397.00	159.16
397.19	294.91
397.39	435.34
397.58	498.53
397.77	524.28
397.97	552.37
398.16	634.29
398.35	636.63
398.55	704.50
398.74	697.48
398.93	774.72
399.12	688.12
399.32	669.39
399.51	660.03
399.70	683.44
399.90	748.97
400.09	650.67
400.28	716.20
400.47	788.76
400.67	805.14
400.86	777.06
401.05	884.72
401.24	866.00
401.44	840.25
401.63	795.78
401.82	847.27
402.01	894.08
402.21	744.29
402.40	795.78
402.59	807.48
402.78	793.44
402.97	706.84
403.17	793.44
403.36	746.63
403.55	809.83
403.74	868.34
403.93	917.49
404.13	664.71
404.32	723.23
404.51	763.01
404.70	828.55
404.89	746.63
405.09	777.06
405.28	786.42
405.47	922.17
405.66	800.46
405.85	814.51
406.05	770.04
406.24	805.14
406.43	786.42
406.62	835.57
406.81	828.55
407.00	826.21
407.20	753.65
407.39	699.82
407.58	830.89
407.77	800.46
407.96	912.81
408.15	952.60
408.34	903.45
408.54	966.64
408.73	1018.13
408.92	971.32
409.11	931.53
409.30	896.43
409.49	767.70
409.68	891.74
409.87	800.46
410.07	744.29
410.26	826.21
410.45	929.19
410.64	929.19
410.83	943.24
411.02	964.30
411.21	1057.92
411.40	1050.90
411.59	990.05
411.78	1081.33
411.98	1071.97
412.17	1184.31
412.36	1004.09
412.55	1008.77
412.74	952.60
412.93	980.68
413.12	945.58
413.31	1074.31
413.50	1086.01
413.69	1121.12
413.88	1111.75
414.07	1046.22
414.26	1067.28
414.45	1083.67
414.64	1067.28
414.83	1179.63
415.02	1093.03
415.22	1046.22
415.41	1102.39
415.60	1135.16
415.79	1135.16
415.98	1193.67
416.17	1273.25
416.36	1174.95
416.55	1095.37
416.74	1142.18
416.93	1081.33
417.12	1090.69
417.31	1151.54
417.50	1125.80
417.69	1097.71
417.88	1167.93
418.07	1167.93
418.26	1294.32
418.45	1118.78
418.64	1259.21
418.83	1242.82
419.02	1221.76
419.21	1242.82
419.39	1184.31
419.58	1128.14
419.77	1090.69
419.96	1177.29
420.15	1184.31
420.34	1214.74
420.53	1256.87
420.72	1341.13
420.91	1228.78
421.10	1200.69
421.29	1254.53
421.48	1210.06
421.67	1320.06
421.86	1214.74
422.05	1160.91
422.24	1043.88
422.43	1041.54
422.61	1083.67
422.80	1142.18
422.99	1167.93
423.18	1156.22
423.37	1179.63
423.56	1158.57
423.75	1249.85
423.94	1245.16
424.13	1093.03
424.32	1132.82
424.50	1212.40
424.69	1207.72
424.88	1081.33
425.07	1146.86
425.26	1172.61
425.45	1146.86
425.64	1102.39
425.83	1036.86
426.01	1240.48
426.20	1240.48
426.39	1139.84
426.58	1095.37
426.77	947.92
426.96	997.07
427.15	1008.77
427.33	1090.69
427.52	1121.12
427.71	1128.14
427.90	1093.03
428.09	1116.44
428.28	1083.67
428.46	1039.20
428.65	978.34
428.84	1015.79
429.03	1095.37
429.22	1022.81
429.40	880.04
429.59	880.04
429.78	744.29
429.97	760.67
430.16	760.67
430.34	788.76
430.53	723.23
430.72	772.38
430.91	858.98
431.10	1111.75
431.28	1254.53
431.47	1324.74
431.66	1394.96
431.85	1118.78
432.03	1163.25
432.22	1053.24
432.41	1184.31
432.60	1277.93
432.79	1352.83
432.97	1334.11
433.16	1411.34
433.35	1198.35
433.54	1097.71
433.72	1008.77
433.91	1036.86
434.10	1174.95
434.28	1231.12
434.47	1212.40
434.66	1179.63
434.85	1151.54
435.03	1210.06
435.22	1228.78
435.41	1497.94
435.59	1444.11
435.78	1350.49
435.97	1383.26
436.16	1383.26
436.34	1483.90
436.53	1404.32
436.72	1355.17
436.90	1334.11
437.09	1203.04
437.28	1231.12
437.46	1451.13
437.65	1275.59
437.84	1289.64
438.02	1114.10
438.21	1071.97
438.40	1238.14
438.58	1275.59
438.77	1427.73
438.96	1287.29
439.14	1434.75
439.33	1385.60
439.52	1331.76
439.70	1537.73
439.89	1420.71
440.08	1301.34
440.26	1317.72
440.45	1423.05
440.63	1458.15
440.82	1643.06
441.01	1675.82
441.19	1437.09
441.38	1596.25
441.57	1570.50
441.75	1692.21
441.94	1788.17
442.12	1645.40
442.31	1645.40
442.50	1666.46
442.68	1734.34
442.87	1717.95
443.05	1523.69
443.24	1636.03
443.43	1619.65
443.61	1713.27
443.80	1650.08
443.98	1706.25
444.17	1652.42
444.35	1685.19
444.54	1790.51
444.73	1666.46
444.91	1755.40
445.10	1689.87
445.28	1523.69
445.47	1481.56
445.65	1526.03
445.84	1617.31
446.02	1682.85
446.21	1739.02
446.39	1542.41
446.58	1675.82
446.77	1657.10
446.95	1678.16
447.14	1715.61
447.32	1748.38
447.51	1696.89
447.69	1610.29
447.88	1629.01
448.06	1640.72
448.25	1673.48
448.43	1729.66
448.62	1629.01
448.80	1657.10
448.99	1722.63
449.17	1558.80
449.36	1689.87
449.54	1746.04
449.73	1708.59
449.91	1781.15
450.10	1914.56
450.28	1898.17
450.46	1806.89
450.65	1842.00
450.83	1895.83
451.02	1804.55
451.20	1792.85
451.39	1851.36
451.57	1820.94
451.76	1734.34
451.94	1891.15
452.13	1767.10
452.31	1570.50
452.49	1638.38
452.68	1603.27
452.86	1598.59
453.05	1636.03
453.23	1701.57
453.42	1645.40
453.60	1781.15
453.78	1795.19
453.97	1664.12
454.15	1734.34
454.34	1732.00
454.52	1631.35
454.70	1701.57
454.89	1743.70
455.07	1774.13
455.26	1696.89
455.44	1856.04
455.62	1926.26
455.81	1778.81
455.99	1825.62
456.17	1907.54
456.36	1851.36
456.54	1842.00
456.73	1881.79
456.91	1996.48
457.09	1909.88
457.28	2024.56
457.46	1886.47
457.64	1813.92
457.83	1799.87
458.01	1764.76
458.19	1753.06
458.38	1720.29
458.56	1867.75
458.74	1872.43
458.93	1769.44
459.11	1769.44
459.29	1790.51
459.48	1755.40
459.66	1748.38
459.84	1851.36
460.03	1860.73
460.21	1832.64
460.39	1940.30
460.57	1884.13
460.76	1849.02
460.94	1928.60
461.12	1827.96
461.31	1893.49
461.49	1930.94
461.67	1935.62
461.85	1900.52
462.04	1944.99
462.22	1926.26
462.40	1994.14
462.59	1907.54
462.77	1994.14
462.95	2031.58
463.13	1881.79
463.32	1926.26
463.50	1914.56
463.68	1870.09
463.86	1874.77
464.05	1884.13
464.23	1776.47
464.41	1760.08
464.59	1846.68
464.78	1881.79
464.96	1834.98
465.14	1701.57
465.32	1893.49
465.50	1942.64
465.69	1977.75
465.87	1916.90
466.05	1811.57
466.23	1699.23
466.41	1671.14
466.60	1776.47
466.78	1797.53
466.96	1813.92
467.14	1692.21
467.32	1905.20
467.51	1870.09
467.69	1678.16
467.87	1743.70
468.05	1785.83
468.23	1872.43
468.41	1907.54
468.60	1811.57
468.78	1977.75
468.96	1834.98
469.14	1949.67
469.32	1839.66
469.50	1703.91
469.69	1809.23
469.87	1830.30
470.05	1741.36
470.23	1692.21
470.41	1792.85
470.59	1809.23
470.77	1820.94
470.95	1937.96
471.14	1886.47
471.32	1902.86
471.50	2062.01
471.68	1961.37
471.86	2036.27
472.04	2064.35
472.22	2043.29
472.40	2012.86
472.58	2008.18
472.77	1984.77
472.95	1858.39
473.13	1987.11
473.31	1902.86
473.49	1912.22
473.67	1909.88
473.85	1966.05
474.03	2029.24
474.21	2066.69
474.39	2050.31
474.57	2085.42
474.75	2094.78
474.93	2005.84
475.12	1923.92
475.30	2111.16
475.48	2031.58
475.66	2012.86
475.84	2045.63
476.02	1966.05
476.20	1977.75
476.38	1966.05
476.56	2090.10
476.74	2228.19
476.92	2244.57
477.10	2122.87
477.28	2188.40
477.46	2270.32
477.64	2193.08
477.82	2392.03
478.00	2359.26
478.18	2284.36
478.36	2237.55
478.54	2141.59
478.72	2127.55
478.90	2258.62
479.08	2291.38
479.26	2347.56
479.44	2335.85
479.62	2338.20
479.80	2251.60
479.98	2392.03
480.16	2410.75
480.34	2298.41
480.52	2399.05
480.70	2502.03
480.88	2382.67
481.06	2495.01
481.24	2239.89
481.41	2509.05
481.59	2495.01
481.77	2544.16
481.95	2490.33
482.13	2553.52
482.31	2429.48
482.49	2607.36
482.67	2518.42
482.85	2509.05
483.03	2590.97
483.21	2586.29
483.39	2555.86
483.57	2637.78
483.74	2502.03
483.92	2502.03
484.10	2562.89
484.28	2567.57
484.46	2696.30
484.64	2661.19
484.82	2654.17
485.00	2642.46
485.18	2537.14
485.35	2462.24
485.53	2275.00
485.71	2139.25
485.89	2001.16
486.07	2047.97
486.25	2340.54
486.43	2417.77
486.61	2518.42
486.78	2434.16
486.96	2534.80
487.14	2597.99
487.32	2656.51
487.50	2705.66
487.68	2878.86
487.85	2869.50
488.03	2895.24
488.21	2822.69
488.39	2829.71
488.57	2637.78
488.75	2726.72
488.92	2726.72
489.10	2972.48
489.28	3164.40
489.46	3108.23
489.64	3145.68
489.81	3358.67
489.99	3201.85
490.17	3180.79
490.35	3248.66
490.53	3089.51
490.70	3133.98
490.88	3021.63
491.06	3199.51
491.24	3260.37
491.41	3056.74
491.59	2909.29
491.77	2899.92
491.95	3016.95
492.13	3117.59
492.30	3222.92
492.48	3190.15
492.66	3412.50
492.84	3433.57
493.01	3197.17
493.19	3199.51
493.37	3283.77
493.54	3384.41
493.72	3290.79
493.90	3368.03
494.08	3339.94
494.25	3510.80
494.43	3433.57
494.61	3691.02
494.79	3522.51
494.96	3536.55
495.14	3393.78
495.32	3302.50
495.49	3293.13
495.67	3407.82
495.85	3445.27
496.02	3454.63
496.20	3564.64
496.38	3662.94
496.55	3541.23
496.73	3543.57
496.91	3508.46
497.09	3569.32
497.26	3772.94
497.44	3721.45
497.62	3531.87
497.79	3361.01
497.97	3297.81
498.14	3323.56
498.32	3475.70
498.50	3609.11
498.67	3688.68
498.85	3702.73
499.03	3651.24
499.20	3609.11
499.38	3716.77
499.56	3637.19
499.73	3655.92
499.91	3681.66
500.08	3510.80
500.26	3363.35
500.44	3424.20
500.61	3370.37
500.79	3452.29
500.97	3449.95
501.14	3433.57
501.32	3410.16
501.49	3478.04
501.67	3382.07
501.84	3386.76
502.02	3499.10
502.20	3506.12
502.37	3595.06
502.55	3660.60
502.72	3751.88
502.90	3691.02
503.07	3634.85
503.25	3597.40
503.43	3557.61
503.60	3456.97
503.78	3281.43
503.95	3377.39
504.13	3566.98
504.30	3712.09
504.48	3632.51
504.65	3735.50
504.83	3817.41
505.01	3693.37
505.18	3700.39
505.36	3709.75
505.53	3817.41
505.71	3882.95
505.88	3988.27
506.06	3815.07
506.23	3831.46
506.41	3639.53
506.58	3740.18
506.76	3791.67
506.93	3723.79
507.11	3634.85
507.28	3775.28
507.46	3693.37
507.63	3597.40
507.81	3485.06
507.98	3590.38
508.16	3641.87
508.33	3803.37
508.50	3824.44
508.68	3861.88
508.85	4016.36
509.03	3887.63
509.20	3826.78
509.38	3653.58
509.55	3623.15
509.73	3676.98
509.90	3789.33
510.08	3763.58
510.25	3747.20
510.42	3637.19
510.60	3730.81
510.77	3765.92
510.95	3812.73
511.12	3866.56
511.30	3997.64
511.47	3948.48
511.64	4074.87
511.82	3871.25
511.99	3831.46
512.17	3646.55
512.34	3714.43
512.51	3747.20
512.69	3695.71
512.86	3779.97
513.04	3665.28
513.21	3686.34
513.38	3758.90
513.56	3527.19
513.73	3501.44
513.90	3592.72
514.08	3606.77
514.25	3747.20
514.43	3721.45
514.60	3669.96
514.77	3660.60
514.95	3728.47
515.12	3768.26
515.29	3700.39
515.47	3808.05
515.64	3740.18
515.81	3660.60
515.99	3653.58
516.16	3368.03
516.33	3112.91
516.51	2963.12
516.68	2913.97
516.85	2876.52
517.03	2885.88
517.20	3148.02
517.37	3485.06
517.54	3651.24
517.72	3606.77
517.89	3258.03
518.06	3180.79
518.24	2979.50
518.41	3279.09
518.58	3522.51
518.75	3637.19
518.93	3522.51
519.10	3428.88
519.27	3581.02
519.45	3679.32
519.62	3810.39
519.79	3805.71
519.96	3798.69
520.14	3552.93
520.31	3574.00
520.48	3585.70
520.65	3719.11
520.83	3613.79
521.00	3786.99
521.17	3712.09
521.34	3557.61
521.52	3646.55
521.69	3529.53
521.86	3946.14
522.03	3868.91
522.20	3684.00
522.38	3461.65
522.55	3496.76
522.72	3471.01
522.89	3503.78
523.07	3805.71
523.24	3583.36
523.41	3733.15
523.58	3864.22
523.75	3768.26
523.92	3831.46
524.10	3885.29
524.27	3824.44
524.44	3920.40
524.61	3728.47
524.78	3885.29
524.96	3782.31
525.13	3583.36
525.30	3932.10
525.47	3840.82
525.64	3826.78
525.81	3644.21
525.98	3499.10
526.16	3325.90
526.33	3297.81
526.50	3173.77
526.67	3077.80
526.84	3199.51
527.01	3316.54
527.18	3492.08
527.36	3496.76
527.53	3749.54
527.70	3728.47
527.87	3702.73
528.04	3604.42
528.21	3698.05
528.38	3815.07
528.55	3925.08
528.72	3918.06
528.89	3983.59
529.07	3749.54
529.24	3747.20
529.41	3681.66
529.58	3566.98
529.75	3566.98
529.92	3726.13
530.09	3599.74
530.26	3810.39
530.43	3805.71
530.60	3983.59
530.77	3826.78
530.94	3826.78
531.11	3824.44
531.28	3777.62
531.46	3801.03
531.63	3777.62
531.80	3868.91
531.97	3548.25
532.14	3681.66
532.31	3482.72
532.48	3267.39
532.65	3288.45
532.82	3440.59
532.99	3592.72
533.16	3595.06
533.33	3740.18
533.50	3887.63
533.67	3616.13
533.84	3564.64
534.01	3674.64
534.18	3737.84
534.35	3653.58
534.52	3786.99
534.69	3782.31
534.86	3653.58
535.03	3859.54
535.20	3702.73
535.37	3892.31
535.54	3712.09
535.71	3878.27
535.88	3852.52
536.05	3665.28
536.22	3712.09
536.38	3571.66
536.55	3510.80
536.72	3510.80
536.89	3508.46
537.06	3459.31
537.23	3571.66
537.40	3777.62
537.57	3777.62
537.74	3698.05
537.91	3522.51
538.08	3620.81
538.25	3669.96
538.42	3646.55
538.59	3688.68
538.75	3520.17
538.92	3522.51
539.09	3503.78
539.26	3471.01
539.43	3492.08
539.60	3433.57
539.77	3583.36
539.94	3492.08
540.11	3311.86
540.28	3267.39
540.44	3358.67
540.61	3368.03
540.78	3400.80
540.95	3442.93
541.12	3468.67
541.29	3510.80
541.46	3604.42
541.62	3604.42
541.79	3599.74
541.96	3527.19
542.13	3382.07
542.30	3442.93
542.47	3548.25
542.63	3611.45
542.80	3337.60
542.97	3389.10
543.14	3492.08
543.31	3424.20
543.48	3506.12
543.64	3707.41
543.81	3777.62
543.98	3639.53
544.15	3644.21
544.32	3440.59
544.48	3398.46
544.65	3478.04
544.82	3541.23
544.99	3506.12
545.16	3517.83
545.32	3419.52
545.49	3613.79
545.66	3712.09
545.83	3707.41
546.00	3599.74
546.16	3459.31
546.33	3480.38
546.50	3382.07
546.67	3473.36
546.83	3468.67
547.00	3428.88
547.17	3356.33
547.34	3356.33
547.50	3318.88
547.67	3339.94
547.84	3328.24
548.00	3517.83
548.17	3424.20
548.34	3478.04
548.51	3494.42
548.67	3407.82
548.84	3386.76
549.01	3527.19
549.18	3452.29
549.34	3531.87
549.51	3363.35
549.68	3286.11
549.84	3356.33
550.01	3311.86
550.18	3314.20
550.34	3293.13
550.51	3445.27
550.68	3316.54
550.84	3435.91
551.01	3346.97
551.18	3220.58
551.34	3412.50
551.51	3431.23
551.68	3384.41
551.84	3566.98
552.01	3379.73
552.18	3393.78
552.34	3220.58
552.51	3218.24
552.68	3185.47
552.84	3356.33
553.01	3337.60
553.18	3349.31
553.34	3262.71
553.51	3358.67
553.67	3386.76
553.84	3351.65
554.01	3295.47
554.17	3323.56
554.34	3332.92
554.51	3410.16
554.67	3550.59
554.84	3389.10
555.00	3173.77
555.17	3281.43
555.33	3255.69
555.50	3361.01
555.67	3330.58
555.83	3342.28
556.00	3232.28
556.16	3248.66
556.33	3274.41
556.50	3080.14
556.66	3173.77
556.83	3122.27
556.99	3190.15
557.16	3117.59
557.32	3323.56
557.49	3187.81
557.65	3166.74
557.82	3234.62
557.98	3061.42
558.15	3126.96
558.32	3098.87
558.48	2832.05
558.65	2981.84
558.81	3005.25
558.98	3070.78
559.14	3035.67
559.31	3047.38
559.47	3183.13
559.64	3070.78
559.80	2993.55
559.97	3045.04
560.13	3052.06
560.30	3206.53
560.46	3274.41
560.63	3187.81
560.79	3201.85
560.96	3234.62
561.12	3073.12
561.29	2871.84
561.45	2935.03
561.61	3000.57
561.78	3033.33
561.94	3087.17
562.11	3023.97
562.27	3089.51
562.44	3148.02
562.60	3171.43
562.77	3054.40
562.93	3112.91
563.10	3162.06
563.26	3105.89
563.42	3068.44
563.59	3066.10
563.75	3068.44
563.92	3070.78
564.08	3030.99
564.24	2977.16
564.41	3063.76
564.57	3026.31
564.74	3012.27
564.90	3082.49
565.07	3117.59
565.23	3038.02
565.39	2913.97
565.56	2750.13
565.72	2920.99
565.88	2916.31
566.05	2918.65
566.21	2888.22
566.38	2928.01
566.54	3038.02
566.70	3061.42
566.87	3126.96
567.03	3016.95
567.19	3187.81
567.36	3047.38
567.52	3009.93
567.68	2991.20
567.85	2984.18
568.01	2839.07
568.17	2822.69
568.34	2832.05
568.50	2818.00
568.66	2813.32
568.83	2899.92
568.99	2974.82
569.15	2888.22
569.32	2911.63
569.48	2801.62
569.64	2829.71
569.81	2708.00
569.97	2768.85
570.13	2731.41
570.30	2689.28
570.46	2703.32
570.62	2548.84
570.78	2722.04
570.95	2743.11
571.11	2778.22
571.27	2759.49
571.43	2813.32
571.60	2771.19
571.76	2785.24
571.92	2876.52
572.09	2857.79
572.25	2902.26
572.41	2913.97
572.57	2794.60
572.74	2874.18
572.90	2892.90
573.06	2906.95
573.22	2789.92
573.38	2740.77
573.55	2810.98
573.71	2876.52
573.87	2841.41
574.03	2616.72
574.20	2724.38
574.36	2801.62
574.52	2726.72
574.68	2619.06
574.84	2810.98
575.01	2661.19
575.17	2619.06
575.33	2511.39
575.49	2574.59
575.65	2729.06
575.82	2717.36
575.98	2630.76
576.14	2754.81
576.30	2574.59
576.46	2754.81
576.62	2661.19
576.79	2731.41
576.95	2696.30
577.11	2696.30
577.27	2637.78
577.43	2745.45
577.59	2672.89
577.75	2548.84
577.92	2396.71
578.08	2413.09
578.24	2476.29
578.40	2574.59
578.56	2513.74
578.72	2525.44
578.88	2780.56
579.04	2635.44
579.21	2616.72
579.37	2607.36
579.53	2600.34
579.69	2605.02
579.85	2726.72
580.01	2623.74
580.17	2597.99
580.33	2597.99
580.49	2590.97
580.65	2593.31
580.82	2626.08
580.98	2628.42
581.14	2619.06
581.30	2626.08
581.46	2511.39
581.62	2581.61
581.78	2567.57
581.94	2719.70
582.10	2588.63
582.26	2745.45
582.42	2567.57
582.58	2733.75
582.74	2572.25
582.90	2677.57
583.06	2583.95
583.22	2689.28
583.38	2595.65
583.54	2588.63
583.70	2544.16
583.86	2537.14
584.02	2516.08
584.18	2551.18
584.34	2513.74
584.50	2572.25
584.66	2532.46
584.82	2530.12
584.98	2476.29
585.14	2576.93
585.30	2537.14
585.46	2363.94
585.62	2354.58
585.78	2436.50
585.94	2399.05
586.10	2466.92
586.26	2506.71
586.42	2579.27
586.58	2574.59
586.74	2562.89
586.90	2567.57
587.06	2518.42
587.22	2455.22
587.38	2619.06
587.54	2448.20
587.70	2401.39
587.86	2401.39
588.02	2441.18
588.18	2415.43
588.34	2195.42
588.49	2218.83
588.65	2036.27
588.81	2064.35
588.97	2057.33
589.13	1949.67
589.29	1980.09
589.45	2054.99
589.61	2099.46
589.77	2129.89
589.93	2335.85
590.08	2293.72
590.24	2235.21
590.40	2382.67
590.56	2249.25
590.72	2380.32
590.88	2286.70
591.04	2232.87
591.20	2246.91
591.35	2277.34
591.51	2202.44
591.67	2197.76
591.83	2319.47
591.99	2312.45
592.15	2314.79
592.31	2380.32
592.46	2303.09
592.62	2335.85
592.78	2211.81
592.94	2251.60
593.10	2223.51
593.26	2370.96
593.41	2279.68
593.57	2148.61
593.73	2282.02
593.89	2193.08
594.05	2174.36
594.20	2197.76
594.36	2069.03
594.52	2298.41
594.68	2057.33
594.84	2186.06
594.99	2120.53
595.15	2160.31
595.31	2232.87
595.47	2176.70
595.62	2190.74
595.78	2214.15
595.94	2207.13
596.10	2286.70
596.25	2169.68
596.41	2160.31
596.57	2230.53
596.73	2167.34
596.88	2258.62
597.04	2223.51
597.20	2120.53
597.36	2115.84
597.51	2141.59
597.67	2197.76
597.83	2284.36
597.99	2249.25
598.14	2090.10
598.30	2256.28
598.46	2162.66
598.61	2026.90
598.77	2087.76
598.93	2239.89
599.09	2188.40
599.24	2101.80
599.40	2043.29
599.56	2165.00
599.71	2150.95
599.87	2312.45
600.03	2179.04
600.18	2153.29
600.34	2148.61
600.50	2029.24
600.65	2064.35
600.81	2092.44
600.97	2125.21
601.12	2139.25
601.28	2062.01
601.44	2200.10
601.59	2104.14
601.75	2090.10
601.91	2087.76
602.06	2043.29
602.22	2026.90
602.37	2099.46
602.53	2036.27
602.69	2183.72
602.84	2080.74
603.00	2141.59
603.16	2139.25
603.31	2085.42
603.47	2073.71
603.62	2136.91
603.78	2186.06
603.94	2078.40
604.09	2054.99
604.25	2101.80
604.40	2125.21
604.56	2036.27
604.71	2134.57
604.87	2101.80
605.03	2059.67
605.18	2172.02
605.34	2113.50
605.49	2010.52
605.65	2066.69
605.80	2026.90
605.96	2029.24
606.12	2104.14
606.27	2017.54
606.43	2057.33
606.58	2092.44
606.74	2050.31
606.89	2010.52
607.05	2132.23
607.20	2120.53
607.36	2005.84
607.51	1956.69
607.67	2094.78
607.82	1928.60
607.98	1914.56
608.13	2003.50
608.29	1919.24
608.44	1907.54
608.60	2008.18
608.75	1923.92
608.91	1872.43
609.06	1970.73
609.22	2026.90
609.37	2038.61
609.53	1987.11
609.68	1956.69
609.84	1907.54
609.99	1884.13
610.15	1909.88
610.30	1895.83
610.46	1909.88
610.61	2045.63
610.76	1935.62
610.92	1959.03
611.07	2062.01
611.23	2076.06
611.38	2033.93
611.54	2010.52
611.69	2036.27
611.84	1837.32
612.00	1813.92
612.15	1806.89
612.31	1895.83
612.46	1930.94
612.62	1895.83
612.77	1916.90
612.92	1856.04
613.08	1877.11
613.23	1834.98
613.39	1806.89
613.54	1820.94
613.69	1860.73
613.85	1762.42
614.00	1783.49
614.15	1776.47
614.31	1809.23
614.46	1825.62
614.62	1785.83
614.77	1902.86
614.92	1886.47
615.08	1771.79
615.23	1734.34
615.38	1820.94
615.54	1757.74
615.69	1769.44
615.84	1671.14
616.00	1640.72
616.15	1757.74
616.30	1746.04
616.46	1724.97
616.61	1668.80
616.76	1596.25
616.92	1659.44
617.07	1699.23
617.22	1710.93
617.37	1713.27
617.53	1844.34
617.68	1713.27
617.83	1736.68
617.99	1736.68
618.14	1788.17
618.29	1769.44
618.45	1804.55
618.60	1687.53
618.75	1666.46
618.90	1650.08
619.06	1743.70
619.21	1727.32
619.36	1753.06
619.51	1764.76
619.67	1727.32
619.82	1696.89
619.97	1696.89
620.12	1799.87
620.28	1636.03
620.43	1652.42
620.58	1626.67
620.73	1696.89
620.89	1724.97
621.04	1636.03
621.19	1729.66
621.34	1591.56
621.49	1619.65
621.65	1645.40
621.80	1645.40
621.95	1593.90
622.10	1598.59
622.25	1638.38
622.41	1668.80
622.56	1591.56
622.71	1675.82
622.86	1619.65
623.01	1636.03
623.16	1638.38
623.32	1619.65
623.47	1540.07
623.62	1591.56
623.77	1605.61
623.92	1577.52
624.07	1528.37
624.23	1565.82
624.38	1577.52
624.53	1577.52
624.68	1500.28
624.83	1526.03
624.98	1526.03
625.13	1537.73
625.29	1504.96
625.44	1551.78
625.59	1551.78
625.74	1568.16
625.89	1523.69
626.04	1558.80
626.19	1509.65
626.34	1514.33
626.49	1589.22
626.65	1504.96
626.80	1453.47
626.95	1579.86
627.10	1558.80
627.25	1469.86
627.40	1476.88
627.55	1357.51
627.70	1334.11
627.85	1411.34
628.00	1373.89
628.15	1423.05
628.30	1406.66
628.45	1376.24
628.60	1455.81
628.76	1350.49
628.91	1483.90
629.06	1411.34
629.21	1495.60
629.36	1427.73
629.51	1387.94
629.66	1282.61
629.81	1327.08
629.96	1320.06
630.11	1341.13
630.26	1418.36
630.41	1385.60
630.56	1411.34
630.71	1352.83
630.86	1345.81
631.01	1401.98
631.16	1441.77
631.31	1418.36
631.46	1313.04
631.61	1383.26
631.76	1462.83
631.91	1334.11
632.06	1413.68
632.21	1357.51
632.36	1446.45
632.51	1467.52
632.66	1430.07
632.81	1406.66
632.96	1359.85
633.10	1324.74
633.25	1406.66
633.40	1385.60
633.55	1406.66
633.70	1411.34
633.85	1352.83
634.00	1427.73
634.15	1226.44
634.30	1226.44
634.45	1383.26
634.60	1387.94
634.75	1502.62
634.90	1303.68
635.05	1291.98
635.19	1343.47
635.34	1369.21
635.49	1355.17
635.64	1324.74
635.79	1313.04
635.94	1355.17
636.09	1219.42
636.24	1205.38
636.39	1291.98
636.53	1324.74
636.68	1366.87
636.83	1343.47
636.98	1301.34
637.13	1270.91
637.28	1313.04
637.43	1357.51
637.57	1369.21
637.72	1399.64
637.87	1369.21
638.02	1226.44
638.17	1387.94
638.32	1406.66
638.46	1383.26
638.61	1364.53
638.76	1355.17
638.91	1252.19
639.06	1317.72
639.20	1170.27
639.35	1214.74
639.50	1261.55
639.65	1170.27
639.80	1261.55
639.94	1235.80
640.09	1324.74
640.24	1261.55
640.39	1282.61
640.54	1324.74
640.68	1280.27
640.83	1233.46
640.98	1256.87
641.13	1282.61
641.27	1217.08
641.42	1188.99
641.57	1184.31
641.72	1191.33
641.86	1224.10
642.01	1188.99
642.16	1158.57
642.31	1277.93
642.45	1177.29
642.60	1198.35
642.75	1207.72
642.90	1315.38
643.04	1224.10
643.19	1259.21
643.34	1254.53
643.48	1210.06
643.63	1177.29
643.78	1219.42
643.93	1291.98
644.07	1219.42
644.22	1118.78
644.37	1167.93
644.51	1163.25
644.66	1123.46
644.81	1142.18
644.95	1179.63
645.10	1156.22
645.25	1167.93
645.39	1296.66
645.54	1078.99
645.69	1095.37
645.83	1097.71
645.98	1174.95
646.13	1139.84
646.27	1181.97
646.42	1123.46
646.57	1196.01
646.71	1144.52
646.86	1177.29
647.00	940.90
647.15	1142.18
647.30	1025.15
647.44	1144.52
647.59	1135.16
647.74	1139.84
647.88	1137.50
648.03	1041.54
648.17	1050.90
648.32	1093.03
648.47	1130.48
648.61	1093.03
648.76	1046.22
648.90	983.02
649.05	1046.22
649.20	952.60
649.34	1013.45
649.49	1064.94
649.63	1116.44
649.78	1048.56
649.92	1060.26
650.07	1060.26
650.21	1177.29
650.36	1149.20
650.51	1013.45
650.65	1053.24
650.80	1139.84
650.94	1097.71
651.09	950.26
651.23	1069.62
651.38	1081.33
651.52	950.26
651.67	1025.15
651.81	1097.71
651.96	1100.05
652.10	1053.24
652.25	964.30
652.39	985.37
652.54	1062.60
652.68	940.90
652.83	990.05
652.97	997.07
653.12	994.73
653.26	1057.92
653.41	1050.90
653.55	1071.97
653.70	1013.45
653.84	966.64
653.99	961.96
654.13	1034.52
654.27	987.71
654.42	985.37
654.56	929.19
654.71	964.30
654.85	1008.77
655.00	950.26
655.14	866.00
655.29	954.94
655.43	968.98
655.57	791.10
655.72	805.14
655.86	711.52
656.01	571.09
656.15	688.12
656.30	807.48
656.44	748.97
656.58	849.61
656.73	854.30
656.87	807.48
657.01	863.66
657.16	936.21
657.30	877.70
657.45	936.21
657.59	978.34
657.73	973.66
657.88	880.04
658.02	1032.18
658.16	924.51
658.31	926.85
658.45	1050.90
658.60	931.53
658.74	1015.79
658.88	898.77
659.03	877.70
659.17	826.21
659.31	833.23
659.46	866.00
659.60	992.39
659.74	903.45
659.89	933.87
660.03	861.32
660.17	1006.43
660.32	835.57
660.46	1011.11
660.60	891.74
660.74	910.47
660.89	910.47
661.03	990.05
661.17	1034.52
661.32	987.71
661.46	844.93
661.60	842.59
661.74	903.45
661.89	990.05
662.03	842.59
662.17	924.51
662.31	894.08
662.46	915.15
662.60	863.66
662.74	966.64
662.88	898.77
663.03	770.04
663.17	821.53
663.31	891.74
663.45	938.55
663.60	809.83
663.74	847.27
663.88	861.32
664.02	802.80
664.17	940.90
664.31	849.61
664.45	863.66
664.59	826.21
664.73	805.14
664.88	884.72
665.02	873.02
665.16	800.46
665.30	774.72
665.44	861.32
665.59	840.25
665.73	781.74
665.87	821.53
666.01	840.25
666.15	784.08
666.29	791.10
666.44	772.38
666.58	816.85
666.72	809.83
666.86	744.29
667.00	873.02
667.14	940.90
667.28	798.12
667.43	734.93
667.57	800.46
667.71	758.33
667.85	748.97
667.99	870.68
668.13	861.32
668.27	828.55
668.41	851.96
668.56	781.74
668.70	758.33
668.84	805.14
668.98	849.61
669.12	814.51
669.26	788.76
669.40	748.97
669.54	786.42
669.68	784.08
669.82	840.25
669.96	826.21
670.10	739.61
670.25	688.12
670.39	746.63
670.53	873.02
670.67	816.85
670.81	741.95
670.95	688.12
671.09	662.37
671.23	770.04
671.37	648.33
671.51	634.29
671.65	709.18
671.79	718.54
671.93	709.18
672.07	734.93
672.21	746.63
672.35	718.54
672.49	620.24
672.63	557.05
672.77	674.07
672.91	730.25
673.05	655.35
673.19	781.74
673.33	711.52
673.47	664.71
673.61	683.44
673.75	669.39
673.89	688.12
674.03	683.44
674.17	674.07
674.31	657.69
674.45	748.97
674.59	723.23
674.73	674.07
674.87	671.73
675.01	662.37
675.15	594.50
675.29	561.73
675.43	641.31
675.56	643.65
675.70	690.46
675.84	676.41
675.98	620.24
676.12	655.35
676.26	585.13
676.40	671.73
676.54	674.07
676.68	624.92
676.82	678.76
676.96	629.60
677.10	585.13
677.23	613.22
677.37	554.71
677.51	564.07
677.65	704.50
677.79	603.86
677.93	643.65
678.07	615.56
678.21	528.96
678.34	540.66
678.48	547.69
678.62	638.97
678.76	564.07
678.90	528.96
679.04	592.16
679.18	601.52
679.31	535.98
679.45	603.86
679.59	627.26
679.73	533.64
679.87	531.30
680.00	514.92
680.14	596.84
680.28	566.41
680.42	514.92
680.56	507.90
680.70	479.81
680.83	454.06
680.97	540.66
681.11	559.39
681.25	587.47
681.39	575.77
681.52	491.51
681.66	531.30
681.80	582.79
681.94	414.27
682.07	496.19
682.21	543.00
682.35	416.62
682.49	456.40
682.62	550.03
682.76	395.55
682.90	442.36
683.04	479.81
683.17	477.47
683.31	411.93
683.45	456.40
683.59	545.34
683.72	435.34
683.86	379.17
684.00	442.36
684.13	554.71
684.27	503.22
684.41	458.74
684.55	510.24
684.68	400.23
684.82	437.68
684.96	416.62
685.09	388.53
685.23	472.79
685.37	433.00
685.50	386.19
685.64	468.11
685.78	379.17
685.91	339.38
686.05	456.40
686.19	451.72
686.32	365.12
686.46	290.23
686.60	250.44
686.73	220.01
686.87	173.20
687.01	189.58
687.14	138.09
687.28	184.90
687.42	152.13
687.55	264.48
687.69	201.29
687.82	222.35
687.96	234.05
688.10	276.18
688.23	224.69
688.37	334.70
688.50	318.31
688.64	325.33
688.78	332.36
688.91	360.44
689.05	306.61
689.18	264.48
689.32	250.44
689.46	210.65
689.59	290.23
689.73	210.65
689.86	231.71
690.00	236.39
690.13	248.10
690.27	262.14
690.41	269.16
690.54	297.25
690.68	311.29
690.81	234.05
690.95	205.97
691.08	283.20
691.22	306.61
691.35	320.65
691.49	273.84
691.62	315.97
691.76	241.08
691.89	330.02
692.03	229.37
692.16	322.99
692.30	280.86
692.43	234.05
692.57	264.48
692.70	245.76
692.84	271.50
692.97	264.48
693.11	229.37
693.24	248.10
693.38	264.48
693.51	203.63
693.65	285.55
693.78	227.03
693.92	182.56
694.05	147.45
694.19	212.99
694.32	259.80
694.45	234.05
694.59	243.42
694.72	248.10
694.86	201.29
694.99	278.52
695.13	166.18
695.26	259.80
695.39	182.56
695.53	229.37
695.66	255.12
695.80	224.69
695.93	138.09
696.07	238.73
696.20	215.33
696.33	208.31
696.47	184.90
696.60	212.99
696.73	276.18
696.87	231.71
697.00	215.33
697.14	203.63
697.27	194.26
697.40	269.16
697.54	161.50
697.67	227.03
697.80	252.78
697.94	194.26
698.07	114.69
698.21	203.63
698.34	227.03
698.47	220.01
698.61	131.07
698.74	194.26
698.87	215.33
699.01	189.58
699.14	196.60
699.27	159.16
699.40	138.09
699.54	107.66
699.67	189.58
699.80	142.77
699.94	124.05
700.07	128.73
700.20	124.05
700.34	131.07
700.47	63.19
700.60	124.05
700.73	170.86
700.87	159.16
701.00	215.33
701.13	236.39
701.26	88.94
701.40	133.41
701.53	154.48
701.66	163.84
701.79	121.71
701.93	147.45
702.06	105.32
702.19	135.75
702.32	121.71
702.46	105.32
702.59	74.90
702.72	142.77
702.85	28.09
702.99	147.45
703.12	135.75
703.25	114.69
703.38	93.62
703.51	124.05
703.65	135.75
703.78	110.01
703.91	81.92
704.04	93.62
704.17	93.62
704.31	102.98
704.44	163.84
704.57	133.41
704.70	70.22
704.83	72.56
704.96	88.94
705.10	53.83
705.23	163.84
>>>>>End Processed Spectral Data<<<<<
