SpectraSuite Data File
++++++++++++++++++++++++++++++++++++
Date: Mon Oct 07 14:54:59 GMT-05:00 2013
User: price-jones
Dark Spectrum Present: No
Reference Spectrum Present: No
Number of Sampled Component Spectra: 1
Spectrometers: USB2+H05261
Integration Time (usec): 10000 (USB2+H05261)
Spectra Averaged: 1 (USB2+H05261)
Boxcar Smoothing: 0 (USB2+H05261)
Correct for Electrical Dark: No (USB2+H05261)
Strobe/Lamp Enabled: No (USB2+H05261)
Correct for Detector Non-linearity: No (USB2+H05261)
Correct for Stray Light: No (USB2+H05261)
Number of Pixels in Processed Spectrum: 2048
>>>>>Begin Processed Spectral Data<<<<<
365.73	0.00
365.92	0.00
366.12	0.00
366.32	0.00
366.52	0.00
366.72	0.00
366.91	0.00
367.11	0.00
367.31	0.00
367.51	0.00
367.70	0.00
367.90	0.00
368.10	0.00
368.30	0.00
368.49	0.00
368.69	0.00
368.89	0.00
369.09	0.00
369.28	0.00
369.48	0.00
369.68	0.00
369.87	0.00
370.07	0.00
370.27	0.00
370.47	32.77
370.66	1371.55
370.86	1551.78
371.06	1736.68
371.25	1680.50
371.45	1493.26
371.65	1488.58
371.84	1338.79
372.04	1490.92
372.24	1572.84
372.44	1724.97
372.63	1575.18
372.83	1439.43
373.03	1207.72
373.22	1088.35
373.42	1390.28
373.62	1631.35
373.81	1596.25
374.01	1607.95
374.21	1383.26
374.40	1371.55
374.60	1490.92
374.79	1739.02
374.99	1994.14
375.19	2026.90
375.38	2069.03
375.58	1980.09
375.78	1874.77
375.97	1912.22
376.17	1956.69
376.37	2015.20
376.56	2040.95
376.76	2296.07
376.95	2429.48
377.15	2511.39
377.35	2654.17
377.54	2764.17
377.74	2818.00
377.93	2822.69
378.13	2691.62
378.33	2523.10
378.52	2256.28
378.72	2209.47
378.91	2319.47
379.11	2073.71
379.31	2019.88
379.50	2169.68
379.70	2242.23
379.89	2399.05
380.09	2703.32
380.28	2736.09
380.48	2813.32
380.68	2527.78
380.87	2551.18
381.07	2286.70
381.26	2160.31
381.46	1987.11
381.65	1977.75
381.85	1830.30
382.04	1804.55
382.24	1593.90
382.43	1535.39
382.63	1607.95
382.83	1558.80
383.02	1673.48
383.22	1678.16
383.41	1603.27
383.61	1771.79
383.80	2036.27
384.00	2340.54
384.19	2670.55
384.39	2815.66
384.58	2724.38
384.78	2614.38
384.97	2406.07
385.17	2424.80
385.36	2272.66
385.56	2211.81
385.75	2392.03
385.95	2829.71
386.14	2710.34
386.34	2792.26
386.53	2583.95
386.72	2466.92
386.92	2729.06
387.11	2778.22
387.31	2871.84
387.50	2574.59
387.70	2698.64
387.89	2722.04
388.09	2787.58
388.28	2672.89
388.48	2761.83
388.67	2993.55
388.86	3276.75
389.06	3318.88
389.25	3595.06
389.45	3665.28
389.64	3623.15
389.84	3541.23
390.03	3545.91
390.22	3679.32
390.42	3747.20
390.61	4060.83
390.81	4278.50
391.00	4334.67
391.19	4175.52
391.39	4105.30
391.58	3882.95
391.78	3630.17
391.97	3545.91
392.16	3253.34
392.36	2822.69
392.55	2174.36
392.75	1708.59
392.94	1474.54
393.13	1612.63
393.33	1994.14
393.52	2532.46
393.71	3019.29
393.91	3361.01
394.10	3653.58
394.29	4060.83
394.49	4250.41
394.68	4816.82
394.88	4629.58
395.07	4725.54
395.26	4542.98
395.46	4306.59
395.65	4063.17
395.84	3557.61
396.04	2848.43
396.23	2394.37
396.42	1968.39
396.62	2036.27
396.81	2558.21
397.00	3361.01
397.19	4037.42
397.39	4835.55
397.58	5231.10
397.77	5500.26
397.97	5689.84
398.16	5696.86
398.35	6120.50
398.55	6300.72
398.74	6345.19
398.93	6394.34
399.12	6417.75
399.32	6129.86
399.51	6235.19
399.70	6731.38
399.90	6527.75
400.09	6719.68
400.28	6544.14
400.47	6672.87
400.67	6846.07
400.86	7037.99
401.05	7070.76
401.24	7176.08
401.44	7344.60
401.63	7489.71
401.82	7353.96
402.01	7330.56
402.21	7452.27
402.40	7510.78
402.59	7265.02
402.78	6712.66
402.97	6808.62
403.17	7248.64
403.36	7405.46
403.55	7719.09
403.74	7906.33
403.93	7346.94
404.13	6806.28
404.32	6949.05
404.51	7391.41
404.70	7868.88
404.89	7583.34
405.09	7433.54
405.28	7330.56
405.47	7445.24
405.66	7529.50
405.85	7211.19
406.05	6998.20
406.24	7115.23
406.43	7428.86
406.62	7733.13
406.81	7655.89
407.00	7370.35
407.20	7098.84
407.39	7407.80
407.58	7688.66
407.77	7871.22
407.96	8344.01
408.15	8175.49
408.34	8414.23
408.54	8765.31
408.73	8690.41
408.92	8369.76
409.11	8252.73
409.30	8112.30
409.49	7489.71
409.68	6892.88
409.87	6977.14
410.07	7499.08
410.26	7978.89
410.45	8205.92
410.64	8580.40
410.83	8999.36
411.02	9263.84
411.21	9467.47
411.40	9135.11
411.59	9090.64
411.78	9214.69
411.98	9088.30
412.17	9465.13
412.36	9212.35
412.55	9249.80
412.74	8720.84
412.93	8685.73
413.12	8933.82
413.31	9598.54
413.50	9558.75
413.69	9767.06
413.88	9362.14
414.07	9401.93
414.26	9607.90
414.45	9760.03
414.64	9657.05
414.83	9818.55
415.02	9413.63
415.22	9596.20
415.41	9898.13
415.60	10169.63
415.79	10707.95
415.98	10920.94
416.17	10787.53
416.36	10349.85
416.55	10272.61
416.74	9706.20
416.93	9673.43
417.12	9689.82
417.31	9682.80
417.50	10029.20
417.69	10298.36
417.88	10317.08
418.07	10291.34
418.26	10059.62
418.45	10289.00
418.64	10721.99
418.83	10829.66
419.02	10789.87
419.21	10445.81
419.39	10122.82
419.58	9790.46
419.77	9734.29
419.96	10394.32
420.15	10794.55
420.34	11030.94
420.53	11279.04
420.72	11475.65
420.91	11147.97
421.10	11204.14
421.29	11267.34
421.48	11019.24
421.67	11414.79
421.86	10630.71
422.05	10111.11
422.24	9022.77
422.43	9764.72
422.61	10712.63
422.80	11225.21
422.99	10806.25
423.18	10267.93
423.37	10326.44
423.56	10197.71
423.75	10736.04
423.94	11063.71
424.13	10555.82
424.32	10326.44
424.50	10441.13
424.69	10354.53
424.88	10464.54
425.07	10310.06
425.26	10408.36
425.45	10202.40
425.64	10097.07
425.83	10270.27
426.01	10808.59
426.20	10764.12
426.39	10780.51
426.58	9724.93
426.77	9160.86
426.96	9041.49
427.15	9469.81
427.33	10263.25
427.52	10394.32
427.71	10586.24
427.90	10354.53
428.09	10190.69
428.28	9893.44
428.46	9631.30
428.65	9605.56
428.84	10052.60
429.03	10059.62
429.22	9575.13
429.40	8856.59
429.59	7918.03
429.78	7258.00
429.97	7499.08
430.16	7155.02
430.34	7300.13
430.53	7431.20
430.72	7803.35
430.91	8809.78
431.10	10303.04
431.28	11915.67
431.47	12741.88
431.66	12500.80
431.85	10963.07
432.03	10293.68
432.22	10370.91
432.41	10801.57
432.60	11609.06
432.79	12210.57
432.97	12266.75
433.16	11859.49
433.35	10766.46
433.54	9762.37
433.72	9448.74
433.91	10052.60
434.10	10916.26
434.28	11606.72
434.47	12226.96
434.66	11793.96
434.85	11744.81
435.03	11854.81
435.22	11576.29
435.41	12414.20
435.59	12835.50
435.78	12772.30
435.97	12905.71
436.16	13378.50
436.34	12912.74
436.53	12737.20
436.72	12989.97
436.90	12095.89
437.09	12091.21
437.28	12091.21
437.46	12493.78
437.65	12262.07
437.84	11094.14
438.02	10457.51
438.21	10743.06
438.40	10885.83
438.58	12100.57
438.77	12449.31
438.96	12709.11
439.14	13116.36
439.33	13390.20
439.52	13317.65
439.70	12959.55
439.89	12472.71
440.08	12329.94
440.26	12835.50
440.45	13228.71
440.63	13996.40
440.82	14670.48
441.01	14054.92
441.19	14106.41
441.38	14675.16
441.57	14869.42
441.75	14927.94
441.94	15314.13
442.12	15197.10
442.31	15169.01
442.50	15499.03
442.68	14860.06
442.87	14963.04
443.05	14728.99
443.24	14890.49
443.43	15435.83
443.61	15499.03
443.80	15772.87
443.98	15007.52
444.17	14906.87
444.35	15740.10
444.54	15967.13
444.73	15634.78
444.91	14925.60
445.10	14377.91
445.28	13921.51
445.47	13514.25
445.65	13703.84
445.84	14356.85
446.02	14831.97
446.21	15358.60
446.39	15049.64
446.58	15316.47
446.77	15475.62
446.95	15754.15
447.14	16142.67
447.32	16112.25
447.51	15761.17
447.69	14916.23
447.88	15089.43
448.06	15648.82
448.25	15721.38
448.43	15807.98
448.62	15496.69
448.80	15681.59
448.99	15005.17
449.17	15688.61
449.36	15681.59
449.54	16381.41
449.73	16755.90
449.91	16514.82
450.10	17385.50
450.28	17518.91
450.46	17390.18
450.65	17397.20
450.83	17282.52
451.02	17104.64
451.20	16802.71
451.39	17050.80
451.57	16755.90
451.76	16510.14
451.94	16423.54
452.13	16350.98
452.31	15199.44
452.49	14441.11
452.68	14906.87
452.86	14853.04
453.05	15283.70
453.23	15737.76
453.42	16163.74
453.60	15929.69
453.78	16545.25
453.97	16119.27
454.15	16142.67
454.34	15609.03
454.52	16023.31
454.70	15950.75
454.89	15812.66
455.07	15964.79
455.26	16437.58
455.44	16964.20
455.62	16982.93
455.81	17444.01
455.99	17256.77
456.17	17022.72
456.36	17209.96
456.54	17788.07
456.73	17029.74
456.91	17476.78
457.09	17919.14
457.28	18331.08
457.46	17296.56
457.64	16893.99
457.83	16570.99
458.01	16465.67
458.19	17301.24
458.38	17170.17
458.56	17685.09
458.74	17348.05
458.93	17046.12
459.11	16947.82
459.29	16919.73
459.48	17020.38
459.66	16739.51
459.84	17439.33
460.03	17575.08
460.21	18036.17
460.39	18520.66
460.57	18085.32
460.76	17998.72
460.94	18302.99
461.12	17687.43
461.31	17832.54
461.49	18354.48
461.67	17837.22
461.85	18532.36
462.04	18494.91
462.22	18515.98
462.40	18408.31
462.59	18396.61
462.77	18410.65
462.95	18408.31
463.13	18185.96
463.32	17687.43
463.50	17832.54
463.68	18129.79
463.86	18302.99
464.05	17472.10
464.23	17355.07
464.41	17247.41
464.59	17125.70
464.78	18160.22
464.96	18022.12
465.14	17797.43
465.32	18237.45
465.50	18766.42
465.69	18984.09
465.87	18611.94
466.05	17722.54
466.23	16812.07
466.41	16643.55
466.60	17745.94
466.78	17469.76
466.96	17401.88
467.14	17687.43
467.32	17649.98
467.51	17888.71
467.69	16919.73
467.87	17434.65
468.05	17977.65
468.23	17884.03
468.41	17987.02
468.60	18127.45
468.78	17848.93
468.96	17614.87
469.14	18260.86
469.32	18118.09
469.50	17282.52
469.69	17106.98
469.87	16875.26
470.05	17429.97
470.23	17380.82
470.41	17458.06
470.59	17413.59
470.77	17916.80
470.95	18054.89
471.14	18272.56
471.32	18302.99
471.50	19278.99
471.68	19641.78
471.86	19599.65
472.04	19440.49
472.22	19356.23
472.40	18403.63
472.58	18174.26
472.77	18223.41
472.95	18604.92
473.13	19222.82
473.31	18967.70
473.49	18911.53
473.67	18874.08
473.85	19194.73
474.03	20156.69
474.21	20163.72
474.39	20500.75
474.57	20091.16
474.75	20723.10
474.93	20079.46
475.12	19431.13
475.30	19637.09
475.48	19281.33
475.66	19386.66
475.84	19381.98
476.02	19236.86
476.20	18867.06
476.38	19833.70
476.56	20205.84
476.74	20570.97
476.92	20161.37
477.10	20751.19
477.28	21617.19
477.46	21303.56
477.64	21497.82
477.82	21912.10
478.00	22326.37
478.18	21369.09
478.36	21198.23
478.54	21546.97
478.72	22038.48
478.90	22668.09
479.08	23016.83
479.26	22918.53
479.44	22803.84
479.62	22544.04
479.80	22834.27
479.98	22974.70
480.16	23318.76
480.34	22670.43
480.52	23309.40
480.70	23796.23
480.88	23250.88
481.06	23805.59
481.24	23634.73
481.41	24137.94
481.59	25017.99
481.77	24620.10
481.95	24397.74
482.13	24753.51
482.31	25104.59
482.49	25411.20
482.67	25240.34
482.85	25053.09
483.03	25614.82
483.21	26459.76
483.39	25364.39
483.57	24517.11
483.74	24442.21
483.92	25153.74
484.10	25074.16
484.28	25635.89
484.46	25886.32
484.64	25979.95
484.82	25153.74
485.00	24945.43
485.18	24524.13
485.35	23171.30
485.53	21116.31
485.71	19473.26
485.89	20163.72
486.07	20837.79
486.25	22719.58
486.43	24329.87
486.61	24383.70
486.78	24800.32
486.96	25598.44
487.14	26118.04
487.32	25872.28
487.50	27248.52
487.68	27271.92
487.85	28158.99
488.03	28746.46
488.21	28201.11
488.39	27234.47
488.57	26111.02
488.75	26410.60
488.92	28533.47
489.10	29666.29
489.28	30050.14
489.46	31290.62
489.64	30707.83
489.81	31318.71
489.99	30576.76
490.17	31232.11
490.35	30806.13
490.53	30167.16
490.70	29872.26
490.88	30050.14
491.06	30829.54
491.24	30969.97
491.41	29109.24
491.59	28622.41
491.77	27597.26
491.95	28982.85
492.13	30623.57
492.30	31372.54
492.48	32411.74
492.66	32662.18
492.84	32004.49
493.01	31906.18
493.19	31454.46
493.37	31571.49
493.54	31541.06
493.72	32987.51
493.90	32938.36
494.08	33167.73
494.25	34625.89
494.43	34176.50
494.61	34501.84
494.79	34511.20
494.96	34345.02
495.14	33432.21
495.32	32622.39
495.49	32769.84
495.67	33729.46
495.85	35531.67
496.02	35442.73
496.20	35229.74
496.38	34642.27
496.55	35007.39
496.73	35154.85
496.91	35386.56
497.09	36287.67
497.26	35777.43
497.44	35316.34
497.62	34504.18
497.79	33834.78
497.97	32762.82
498.14	33333.91
498.32	35491.88
498.50	35501.25
498.67	35625.29
498.85	35950.63
499.03	35859.35
499.20	36514.70
499.38	36708.96
499.56	36165.96
499.73	35405.28
499.91	34153.10
500.08	33853.51
500.26	32994.53
500.44	34029.05
500.61	34843.56
500.79	34487.79
500.97	33537.54
501.14	33872.23
501.32	33280.08
501.49	34029.05
501.67	34375.45
501.84	34539.29
502.02	35384.22
502.20	35281.24
502.37	35765.73
502.55	35751.68
502.72	36123.83
502.90	36903.23
503.07	35632.32
503.25	34873.98
503.43	33963.51
503.60	33610.09
503.78	33692.01
503.95	34370.77
504.13	35929.56
504.30	37017.91
504.48	35765.73
504.65	36177.66
504.83	35852.33
505.01	36388.31
505.18	36442.14
505.36	36996.85
505.53	37694.33
505.71	37982.21
505.88	39082.27
506.06	38075.84
506.23	37368.99
506.41	37062.38
506.58	37598.37
506.76	36943.02
506.93	36795.56
507.11	35887.43
507.28	36575.55
507.46	36182.34
507.63	35587.85
507.81	34740.57
507.98	34871.64
508.16	36734.71
508.33	37825.40
508.50	37677.94
508.68	37699.01
508.85	39449.73
509.03	38504.15
509.20	37830.08
509.38	36233.83
509.55	36561.51
509.73	37280.05
509.90	37130.26
510.08	36678.54
510.25	36914.93
510.42	36458.52
510.60	37251.97
510.77	38239.67
510.95	39192.27
511.12	38490.11
511.30	39545.69
511.47	38464.36
511.64	38998.01
511.82	38139.03
511.99	36989.83
512.17	36982.80
512.34	37102.17
512.51	37034.30
512.69	36013.82
512.86	36140.21
513.04	37598.37
513.21	37701.35
513.38	36587.25
513.56	35140.80
513.73	34747.59
513.90	35204.00
514.08	35452.09
514.25	36329.80
514.43	36385.97
514.60	36533.42
514.77	36016.16
514.95	37832.42
515.12	36907.91
515.29	36715.98
515.47	37179.41
515.64	37771.57
515.81	37783.27
515.99	36610.66
516.16	34099.26
516.33	31417.01
516.51	31037.84
516.68	29317.55
516.85	29123.29
517.03	30848.26
517.20	33769.25
517.37	36503.00
517.54	36598.96
517.72	34866.96
517.89	32481.95
518.06	30843.58
518.24	32439.82
518.41	33656.90
518.58	35672.10
518.75	36479.59
518.93	35564.44
519.10	35882.75
519.27	35805.52
519.45	36662.15
519.62	37432.19
519.79	37560.92
519.96	37263.67
520.14	36840.03
520.31	35276.55
520.48	35569.12
520.65	36467.89
520.83	38014.98
521.00	38036.05
521.17	36861.10
521.34	37605.39
521.52	37954.13
521.69	37514.11
521.86	38281.80
522.03	38094.56
522.20	36318.09
522.38	35414.65
522.55	36503.00
522.72	36032.55
522.89	35849.99
523.07	36350.86
523.24	36861.10
523.41	38040.73
523.58	37919.02
523.75	38239.67
523.92	39007.37
524.10	39241.42
524.27	38983.96
524.44	38979.28
524.61	38010.30
524.78	37406.44
524.96	37518.79
525.13	37350.27
525.30	38174.14
525.47	38770.97
525.64	38543.94
525.81	36947.70
525.98	34983.99
526.16	34380.13
526.33	32629.41
526.50	31597.23
526.67	31812.56
526.84	33331.57
527.01	35108.04
527.18	35903.82
527.36	37219.20
527.53	37027.28
527.70	37329.20
527.87	36100.42
528.04	37134.94
528.21	37148.98
528.38	38731.18
528.55	39885.07
528.72	40154.23
528.89	39896.77
529.07	38930.13
529.24	37415.80
529.41	36734.71
529.58	37586.66
529.75	37399.42
529.92	38164.78
530.09	39033.11
530.26	38731.18
530.43	39789.11
530.60	39365.47
530.77	39105.67
530.94	39180.57
531.11	37944.76
531.28	37387.72
531.46	37518.79
531.63	37319.84
531.80	36947.70
531.97	35754.02
532.14	35239.11
532.31	33766.91
532.48	35428.69
532.65	34590.78
532.82	35665.08
532.99	37453.25
533.16	38246.69
533.33	38017.32
533.50	36208.09
533.67	36488.95
533.84	36947.70
534.01	36608.32
534.18	36732.37
534.35	37886.25
534.52	36243.20
534.69	37706.03
534.86	38014.98
535.03	37177.07
535.20	38394.15
535.37	39608.89
535.54	39145.46
535.71	38880.98
535.88	38548.62
536.05	37139.62
536.22	37001.53
536.38	36622.36
536.55	34660.99
536.72	34827.17
536.89	34885.68
537.06	36034.89
537.23	38068.81
537.40	37581.98
537.57	37904.98
537.74	37656.88
537.91	37837.10
538.08	36514.70
538.25	36629.38
538.42	37223.88
538.59	37170.05
538.75	35763.39
538.92	36039.57
539.09	36669.17
539.26	35931.90
539.43	35620.61
539.60	35508.27
539.77	37102.17
539.94	35569.12
540.11	34263.10
540.28	33785.63
540.44	33865.21
540.61	35519.97
540.78	36346.18
540.95	36938.33
541.12	36720.66
541.29	36175.32
541.46	36545.12
541.62	36568.53
541.79	37474.32
541.96	36620.02
542.13	35597.21
542.30	35342.09
542.47	35339.75
542.63	35445.07
542.80	35299.96
542.97	36531.08
543.14	34988.67
543.31	35917.86
543.48	36002.12
543.64	36634.06
543.81	36924.29
543.98	37266.01
544.15	36704.28
544.32	35023.78
544.48	36435.12
544.65	36928.97
544.82	37296.44
544.99	36126.17
545.16	35562.10
545.32	35835.94
545.49	37174.73
545.66	35943.61
545.83	35667.42
546.00	35178.25
546.16	35903.82
546.33	36055.95
546.50	35129.10
546.67	36872.80
546.83	36006.80
547.00	35061.22
547.17	34794.40
547.34	33977.56
547.50	34991.01
547.67	35295.28
547.84	35372.52
548.00	36006.80
548.17	35948.29
548.34	35468.48
548.51	35480.18
548.67	36378.95
548.84	36313.41
549.01	36847.05
549.18	36392.99
549.34	35798.49
549.51	35466.14
549.68	36191.70
549.84	35709.55
550.01	35168.89
550.18	35852.33
550.34	35058.88
550.51	35288.26
550.68	34857.60
550.84	35267.19
551.01	34998.03
551.18	35550.40
551.34	35651.04
551.51	35105.70
551.68	35702.53
551.84	36825.99
552.01	36149.57
552.18	35332.73
552.34	34993.35
552.51	35171.23
552.68	35189.95
552.84	35697.85
553.01	35627.63
553.18	34501.84
553.34	34843.56
553.51	35686.15
553.67	35548.06
553.84	34628.23
554.01	35232.08
554.17	35225.06
554.34	36121.49
554.51	34480.77
554.67	34459.71
554.84	35592.53
555.00	34848.24
555.17	34927.81
555.33	34576.73
555.50	35323.36
555.67	34190.55
555.83	33682.65
556.00	32774.52
556.16	33469.66
556.33	32992.19
556.50	34129.69
556.66	34223.31
556.83	34345.02
556.99	33703.71
557.16	33516.47
557.32	34209.27
557.49	34806.11
557.65	34691.42
557.82	34595.46
557.98	34267.78
558.15	33935.43
558.32	33385.40
558.48	32123.85
558.65	31988.10
558.81	30911.46
558.98	31665.11
559.14	32961.76
559.31	33872.23
559.47	32570.90
559.64	31452.12
559.80	30466.75
559.97	32343.86
560.13	33074.11
560.30	33647.54
560.46	34471.41
560.63	34892.71
560.79	35386.56
560.96	33371.36
561.12	32224.50
561.29	32013.85
561.45	31297.64
561.61	31580.85
561.78	32163.64
561.94	33041.34
562.11	32645.79
562.27	33420.51
562.44	33308.16
562.60	33972.88
562.77	34230.33
562.93	33240.29
563.10	32503.02
563.26	32130.87
563.42	32556.85
563.59	32184.71
563.75	31672.13
563.92	32467.91
564.08	32643.45
564.24	31894.48
564.41	32027.89
564.57	32996.87
564.74	31976.40
564.90	31725.96
565.07	31562.12
565.23	30609.53
565.39	30602.50
565.56	30890.39
565.72	30497.18
565.88	29905.02
566.05	30976.99
566.21	31847.67
566.38	30693.79
566.54	31620.64
566.70	32095.77
566.87	32540.47
567.03	31632.34
567.19	31337.43
567.36	32119.17
567.52	31391.26
567.68	31964.70
567.85	30911.46
568.01	29420.53
568.17	30246.74
568.34	31449.78
568.50	31058.91
568.66	31536.38
568.83	31154.87
568.99	31260.20
569.15	31047.21
569.32	31807.88
569.48	30962.95
569.64	29991.62
569.81	30859.96
569.97	30515.90
570.13	30333.34
570.30	30113.33
570.46	29872.26
570.62	29125.63
570.78	29032.00
570.95	29839.49
571.11	30452.71
571.27	30368.45
571.43	31005.08
571.60	30338.02
571.76	30377.81
571.92	31051.89
572.09	30426.96
572.25	30998.06
572.41	32217.47
572.57	32320.46
572.74	31964.70
572.90	31248.49
573.06	30773.36
573.22	29895.66
573.38	29511.81
573.55	30242.06
573.71	29216.91
573.87	29731.83
574.03	30010.35
574.20	30494.84
574.36	30532.29
574.52	30955.93
574.68	29371.38
574.84	29034.35
575.01	28460.91
575.17	29069.45
575.33	29502.45
575.49	29027.32
575.65	29411.17
575.82	29359.68
575.98	29153.71
576.14	29235.63
576.30	28959.45
576.46	29104.56
576.62	29612.46
576.79	29926.09
576.95	29261.38
577.11	28236.22
577.27	29144.35
577.43	29457.98
577.59	28786.25
577.75	28980.51
577.92	28074.73
578.08	27868.76
578.24	27969.40
578.40	27653.43
578.56	28020.89
578.72	28966.47
578.88	28762.84
579.04	29188.82
579.21	28519.43
579.37	28816.68
579.53	30078.22
579.69	30431.65
579.85	28945.41
580.01	28666.88
580.17	28320.48
580.33	29043.71
580.49	28980.51
580.65	27803.22
580.82	28091.11
580.98	28430.49
581.14	29167.76
581.30	28563.90
581.46	28479.64
581.62	28325.16
581.78	28491.34
581.94	28879.87
582.10	29223.93
582.26	29060.09
582.42	29050.73
582.58	28929.02
582.74	28760.50
582.90	29151.37
583.06	29235.63
583.22	29170.10
583.38	29364.36
583.54	28594.32
583.70	29237.97
583.86	28898.59
584.02	28678.58
584.18	29001.58
584.34	29256.70
584.50	28353.25
584.66	28112.17
584.82	27854.72
584.98	28109.83
585.14	27592.58
585.30	27234.47
585.46	27424.06
585.62	26817.86
585.78	27365.54
585.94	27810.25
586.10	26609.55
586.26	27026.17
586.42	27658.11
586.58	27555.13
586.74	27913.23
586.90	27735.35
587.06	28268.99
587.22	28158.99
587.38	27800.88
587.54	27508.32
587.70	26759.34
587.86	25731.85
588.02	25788.02
588.18	25635.89
588.34	24652.86
588.49	23494.30
588.65	22630.64
588.81	23225.14
588.97	22300.62
589.13	22960.66
589.29	22792.14
589.45	23363.23
589.61	23817.29
589.77	24584.99
589.93	24699.67
590.08	25032.03
590.24	25785.68
590.40	24915.00
590.56	25216.93
590.72	25268.42
590.88	24741.80
591.04	24994.58
591.20	24814.36
591.35	24863.51
591.51	25142.03
591.67	26391.88
591.83	25212.25
591.99	24994.58
592.15	25392.47
592.31	25769.30
592.46	24699.67
592.62	25535.24
592.78	25921.43
592.94	25741.21
593.10	25369.07
593.26	25846.54
593.41	24580.31
593.57	24685.63
593.73	24893.94
593.89	25198.21
594.05	24982.88
594.20	24727.76
594.36	24868.19
594.52	23482.59
594.68	23922.62
594.84	24437.53
594.99	24989.90
595.15	23850.06
595.31	24329.87
595.47	25064.80
595.62	25076.50
595.78	25025.01
595.94	25228.63
596.10	23651.11
596.25	23524.72
596.41	24554.56
596.57	25415.88
596.73	24566.26
596.88	25495.46
597.04	24584.99
597.20	24041.98
597.36	24212.84
597.51	24498.39
597.67	24320.51
597.83	24257.31
597.99	24088.79
598.14	23648.77
598.30	23356.21
598.46	23215.77
598.61	24144.97
598.77	23761.12
598.93	23852.40
599.09	23449.83
599.24	24891.60
599.40	23747.08
599.56	24203.48
599.71	24049.00
599.87	23981.13
600.03	23117.47
600.18	23524.72
600.34	22717.24
600.50	23646.43
600.65	23592.60
600.81	23545.79
600.97	23538.77
601.12	23047.26
601.28	23302.37
601.44	23410.04
601.59	23826.65
601.75	23040.23
601.91	23243.86
602.06	23838.36
602.22	23667.50
602.37	23187.69
602.53	23861.76
602.69	24271.36
602.84	24393.06
603.00	23962.40
603.16	24482.00
603.31	24086.45
603.47	22932.57
603.62	23606.64
603.78	23960.06
603.94	23234.50
604.09	23367.91
604.25	23910.91
604.40	23260.24
604.56	23704.95
604.71	25273.10
604.87	24713.72
605.03	24226.89
605.18	23826.65
605.34	23756.44
605.49	23051.94
605.65	23798.57
605.80	23178.33
605.96	23653.45
606.12	23318.76
606.27	24072.41
606.43	23014.49
606.58	23073.00
606.74	23190.03
606.89	23868.78
607.05	23276.63
607.20	22537.02
607.36	22724.26
607.51	22862.35
607.67	22920.87
607.82	22984.06
607.98	22389.56
608.13	22286.58
608.29	22787.46
608.44	22473.82
608.60	22808.52
608.75	21844.22
608.91	22115.72
609.06	23019.17
609.22	23204.07
609.37	23213.43
609.53	22902.14
609.68	21937.84
609.84	21102.27
609.99	21876.99
610.15	21322.28
610.30	22228.07
610.46	22239.77
610.61	21930.82
610.76	21963.59
610.92	21422.92
611.07	22459.78
611.23	22478.50
611.38	22600.21
611.54	22408.29
611.69	22251.47
611.84	22061.89
612.00	21025.03
612.15	21415.90
612.31	21699.11
612.46	21696.77
612.62	22176.58
612.77	21729.53
612.92	22057.21
613.08	21436.97
613.23	20451.60
613.39	20182.44
613.54	20388.41
613.69	21233.34
613.85	21584.42
614.00	21479.10
614.15	20802.68
614.31	21551.65
614.46	21921.46
614.62	21191.21
614.77	20610.76
614.92	20807.36
615.08	21116.31
615.23	20217.55
615.38	20655.23
615.54	20566.29
615.69	19623.05
615.84	19300.06
616.00	19573.90
616.15	19939.02
616.30	19594.96
616.46	19765.82
616.61	20137.97
616.76	20287.76
616.92	20533.52
617.07	20676.29
617.22	20386.07
617.37	20346.28
617.53	20365.00
617.68	20273.72
617.83	20692.68
617.99	20601.40
618.14	20650.55
618.29	20065.41
618.45	19943.70
618.60	20072.43
618.75	19655.82
618.90	19948.39
619.06	19843.06
619.21	20205.84
619.36	20060.73
619.51	19639.44
619.67	19527.09
619.82	20482.03
619.97	21064.82
620.12	21343.35
620.28	20884.60
620.43	21132.70
620.58	20018.60
620.73	20893.96
620.89	20128.61
621.04	19185.37
621.19	18345.12
621.34	18530.02
621.49	19363.25
621.65	19728.38
621.80	19868.81
621.95	19758.80
622.10	19253.25
622.25	18373.21
622.41	18766.42
622.56	18359.16
622.71	18274.90
622.86	17867.65
623.01	18225.75
623.16	18483.21
623.32	18331.08
623.47	19005.15
623.62	18988.77
623.77	19463.90
623.92	18546.40
624.07	18630.66
624.23	18544.06
624.38	18590.88
624.53	17678.07
624.68	17509.55
624.83	17799.77
624.98	17671.04
625.13	17378.48
625.29	18462.15
625.44	18202.35
625.59	18244.48
625.74	17968.29
625.89	19066.00
626.04	18354.48
626.19	18405.97
626.34	17825.52
626.49	17731.90
626.65	17788.07
626.80	17675.73
626.95	18143.83
627.10	18679.82
627.25	18181.28
627.40	17156.13
627.55	16484.39
627.70	16175.44
627.85	16514.82
628.00	16816.75
628.15	17114.00
628.30	17284.86
628.45	17123.36
628.60	16842.50
628.76	16889.31
628.91	17118.68
629.06	17277.83
629.21	18377.89
629.36	17460.40
629.51	16791.00
629.66	16152.04
629.81	15969.48
629.96	16884.62
630.11	16149.70
630.26	16561.63
630.41	16903.35
630.56	16259.70
630.71	17018.04
630.86	16390.77
631.01	16416.52
631.16	16716.11
631.31	15903.94
631.46	16308.85
631.61	16311.19
631.76	16430.56
631.91	16215.23
632.06	16168.42
632.21	16781.64
632.36	16180.12
632.51	15948.41
632.66	16486.73
632.81	16507.80
632.96	16304.17
633.10	16657.59
633.25	16561.63
633.40	16262.04
633.55	15566.90
633.70	15700.31
633.85	15779.89
634.00	16283.11
634.15	16203.53
634.30	15721.38
634.45	15765.85
634.60	16145.02
634.75	15885.22
634.90	16311.19
635.05	16755.90
635.19	16168.42
635.34	16329.92
635.49	16091.18
635.64	15728.40
635.79	16147.36
635.94	16578.01
636.09	17659.34
636.24	16915.05
636.39	16411.84
636.53	16985.27
636.68	16468.01
636.83	16460.99
636.98	16411.84
637.13	16442.26
637.28	16842.50
637.43	17102.29
637.57	16767.60
637.72	16327.58
637.87	16123.95
638.02	15730.74
638.17	16039.69
638.32	16641.21
638.46	16449.28
638.61	15934.37
638.76	16453.97
638.91	16217.57
639.06	15962.45
639.20	16135.65
639.35	15721.38
639.50	15229.87
639.65	15454.56
639.80	15360.94
639.94	15339.87
640.09	15555.20
640.24	15051.99
640.39	15000.49
640.54	14555.79
640.68	14941.98
640.83	14717.29
640.98	15283.70
641.13	15569.24
641.27	15557.54
641.42	15220.50
641.57	15274.34
641.72	15061.35
641.86	15393.70
642.01	15492.01
642.16	15215.82
642.31	14951.34
642.45	14878.79
642.60	15047.30
642.75	14427.06
642.90	14853.04
643.04	14881.13
643.19	14469.19
643.34	14326.42
643.48	14796.87
643.63	14637.71
643.78	14286.63
643.93	14441.11
644.07	14511.32
644.22	14881.13
644.37	14403.66
644.51	14420.04
644.66	14225.78
644.81	14644.73
644.95	14525.36
645.10	14658.78
645.25	14122.79
645.39	13696.82
645.54	13839.59
645.69	13579.79
645.83	13563.40
645.98	13930.87
646.13	13947.25
646.27	13914.48
646.42	14115.77
646.57	14235.14
646.71	13886.40
646.86	13902.78
647.00	13500.21
647.15	13724.90
647.30	13633.62
647.44	13425.31
647.59	13186.58
647.74	13563.40
647.88	13315.31
648.03	13181.90
648.17	13205.30
648.32	13415.95
648.47	13870.01
648.61	13912.14
648.76	13874.70
648.90	13195.94
649.05	12657.62
649.20	12531.23
649.34	12156.74
649.49	12418.88
649.63	12716.13
649.78	12685.70
649.92	13137.43
650.07	13497.87
650.21	13317.65
650.36	13404.25
650.51	13317.65
650.65	13935.55
650.80	14214.07
650.94	13720.22
651.09	13483.83
651.23	12821.45
651.38	12678.68
651.52	12774.64
651.67	13188.92
651.81	13528.30
651.96	13891.08
652.10	13331.69
652.25	13465.10
652.39	13364.46
652.54	12786.35
652.68	13612.56
652.83	13167.85
652.97	12709.11
653.12	12674.00
653.26	12877.63
653.41	12496.12
653.55	12826.14
653.70	13563.40
653.84	13013.38
653.99	13427.65
654.13	12699.75
654.27	12809.75
654.42	12662.30
654.56	12767.62
654.71	12526.55
654.85	12154.40
655.00	11768.21
655.14	11896.94
655.29	11894.60
655.43	11688.64
655.57	10979.45
655.72	10211.76
655.86	9778.76
656.01	9596.20
656.15	9703.86
656.30	10569.86
656.44	10714.97
656.58	10640.08
656.73	11201.80
656.87	11660.55
657.01	11934.39
657.16	11653.53
657.30	11772.89
657.45	11913.33
657.59	11592.67
657.73	11360.96
657.88	11983.54
658.02	12423.56
658.16	12287.81
658.31	11871.20
658.45	11950.78
658.60	12077.16
658.74	12905.71
658.88	12837.84
659.03	12175.47
659.17	12259.73
659.31	11929.71
659.46	11726.08
659.60	12201.21
659.74	12210.57
659.89	11983.54
660.03	12189.51
660.17	12098.23
660.32	11808.00
660.46	11791.62
660.60	11595.01
660.74	11796.30
660.89	11889.92
661.03	12266.75
661.17	12339.30
661.32	12498.46
661.46	12362.71
661.60	12145.04
661.74	11950.78
661.89	12423.56
662.03	12114.61
662.17	11265.00
662.31	11442.88
662.46	11723.74
662.60	11028.60
662.74	10881.15
662.88	10717.31
663.03	11384.37
663.17	11316.49
663.31	10808.59
663.45	11225.21
663.60	11428.84
663.74	10923.28
663.88	11318.83
664.02	10934.98
664.17	11281.38
664.31	10595.61
664.45	10443.47
664.59	11122.23
664.73	11660.55
664.88	11829.07
665.02	11983.54
665.16	11990.56
665.30	12142.70
665.44	12138.02
665.59	11651.19
665.73	11279.04
665.87	11059.03
666.01	10988.82
666.15	10757.10
666.29	10956.05
666.44	11316.49
666.58	10888.17
666.72	11066.05
666.86	11152.65
667.00	10920.94
667.14	10541.77
667.28	10726.68
667.43	10878.81
667.57	11068.39
667.71	11089.46
667.85	11049.67
667.99	11328.19
668.13	11222.87
668.27	10970.09
668.41	11087.12
668.56	11133.93
668.70	10743.06
668.84	11279.04
668.98	11330.53
669.12	10733.70
669.26	10279.63
669.40	10197.71
669.54	10340.49
669.68	9907.49
669.82	10333.47
669.96	10359.21
670.10	10239.84
670.25	10574.54
670.39	10127.50
670.53	9799.82
670.67	10422.41
670.81	9652.37
670.95	9610.24
671.09	9874.72
671.23	9614.92
671.37	9525.98
671.51	9474.49
671.65	9507.26
671.79	9722.59
671.93	10293.68
672.07	10286.65
672.21	9533.00
672.35	9612.58
672.49	9785.78
672.63	9392.57
672.77	9434.70
672.91	9631.30
673.05	9671.09
673.19	9137.45
673.33	9771.74
673.47	10036.22
673.61	9790.46
673.75	9607.90
673.89	9525.98
674.03	9202.99
674.17	9167.88
674.31	9324.69
674.45	9214.69
674.59	9694.50
674.73	9467.47
674.87	9315.33
675.01	8938.51
675.15	8641.26
675.29	8952.55
675.43	8718.50
675.56	8622.53
675.70	9102.34
675.84	8898.72
675.98	8627.21
676.12	8676.37
676.26	8512.53
676.40	8294.86
676.54	8690.41
676.68	8844.88
676.82	8486.78
676.96	8468.06
677.10	8500.83
677.23	8524.23
677.37	8470.40
677.51	8184.85
677.65	8320.60
677.79	7995.27
677.93	8138.04
678.07	8156.77
678.21	8491.46
678.34	8552.32
678.48	8542.96
678.62	8372.10
678.76	8432.95
678.90	8187.19
679.04	8287.84
679.18	8341.67
679.31	8332.31
679.45	7962.50
679.59	8208.26
679.73	8086.55
679.87	8191.88
680.00	8362.73
680.14	8114.64
680.28	8276.13
680.42	7911.01
680.56	7747.17
680.70	7513.12
680.83	7854.84
680.97	8145.06
681.11	8081.87
681.25	7955.48
681.39	7915.69
681.52	7988.25
681.66	7531.84
681.80	7325.88
681.94	7531.84
682.07	7693.34
682.21	7480.35
682.35	7660.57
682.49	7346.94
682.62	7302.47
682.76	7119.91
682.90	6513.71
683.04	6796.92
683.17	6888.20
683.31	6932.67
683.45	7288.43
683.59	6841.39
683.72	6853.09
683.86	6745.42
684.00	6394.34
684.13	6370.94
684.27	6609.67
684.41	6560.52
684.55	6871.81
684.68	6789.89
684.82	6998.20
684.96	6834.36
685.09	6780.53
685.23	6832.02
685.37	6413.07
685.50	6555.84
685.64	6546.48
685.78	6710.32
685.91	6710.32
686.05	6855.43
686.19	6394.34
686.32	5839.64
686.46	5130.45
686.60	4617.88
686.73	4236.37
686.87	4037.42
687.01	4070.19
687.14	4191.90
687.28	4699.80
687.42	5078.96
687.55	5039.17
687.69	5252.16
687.82	5359.83
687.96	5231.10
688.10	5343.44
688.23	5643.03
688.37	5500.26
688.50	5090.67
688.64	5020.45
688.78	4922.15
688.91	5203.01
689.05	5081.30
689.18	4997.04
689.32	5057.90
689.46	4997.04
689.59	4887.04
689.73	5287.27
689.86	5205.35
690.00	4784.06
690.13	5165.56
690.27	4933.85
690.41	4762.99
690.54	4908.10
690.68	4898.74
690.81	5291.95
690.95	5273.23
691.08	5465.15
691.22	5329.40
691.35	5146.84
691.49	4975.98
691.62	4961.94
691.76	5200.67
691.89	5214.71
692.03	4912.78
692.16	4910.44
692.30	5062.58
692.43	4894.06
692.57	4826.18
692.70	4737.24
692.84	4800.44
692.97	4720.86
693.11	4746.61
693.24	4482.13
693.38	4540.64
693.51	4699.80
693.65	4744.27
693.78	4411.91
693.92	4313.61
694.05	4512.55
694.19	4245.73
694.32	3908.69
694.45	4257.43
694.59	4582.77
694.72	4325.31
694.86	4395.53
694.99	4585.11
695.13	4435.32
695.26	4678.73
695.39	4571.07
695.53	4372.12
695.66	4503.19
695.80	4395.53
695.93	4428.29
696.07	4830.87
696.20	5011.09
696.33	4985.34
696.47	4856.61
696.60	4458.72
696.73	4351.06
696.87	4643.62
697.00	4575.75
697.14	4507.87
697.27	4423.61
697.40	4355.74
697.54	4287.86
697.67	4135.73
697.80	4388.50
697.94	4447.02
698.07	4498.51
698.21	4245.73
698.34	3899.33
698.47	3904.01
698.61	4030.40
698.74	3999.98
698.87	4028.06
699.01	4044.45
699.14	4191.90
699.27	4168.49
699.40	4217.65
699.54	4208.28
699.67	4184.88
699.80	4077.21
699.94	3840.82
700.07	3815.07
700.20	3911.04
700.34	3770.60
700.47	3536.55
700.60	3595.06
700.73	3585.70
700.87	3581.02
701.00	3662.94
701.13	3405.48
701.26	3449.95
701.40	3536.55
701.53	3489.74
701.66	3639.53
701.79	3578.68
701.93	3508.46
702.06	3342.28
702.19	3459.31
702.32	3297.81
702.46	3176.11
702.59	3365.69
702.72	3534.21
702.85	3585.70
702.99	3550.59
703.12	3585.70
703.25	3501.44
703.38	3267.39
703.51	3222.92
703.65	3363.35
703.78	3426.54
703.91	3473.36
704.04	3211.22
704.17	3290.79
704.31	3194.83
704.44	3393.78
704.57	3375.05
704.70	3391.44
704.83	3159.72
704.96	3421.86
705.10	3229.94
705.23	3129.30
>>>>>End Processed Spectral Data<<<<<
