SpectraSuite Data File
++++++++++++++++++++++++++++++++++++
Date: Mon Oct 07 14:54:57 GMT-05:00 2013
User: price-jones
Dark Spectrum Present: No
Reference Spectrum Present: No
Number of Sampled Component Spectra: 1
Spectrometers: USB2+H05261
Integration Time (usec): 10000 (USB2+H05261)
Spectra Averaged: 1 (USB2+H05261)
Boxcar Smoothing: 0 (USB2+H05261)
Correct for Electrical Dark: No (USB2+H05261)
Strobe/Lamp Enabled: No (USB2+H05261)
Correct for Detector Non-linearity: No (USB2+H05261)
Correct for Stray Light: No (USB2+H05261)
Number of Pixels in Processed Spectrum: 2048
>>>>>Begin Processed Spectral Data<<<<<
365.73	0.00
365.92	0.00
366.12	0.00
366.32	0.00
366.52	0.00
366.72	0.00
366.91	0.00
367.11	0.00
367.31	0.00
367.51	0.00
367.70	0.00
367.90	0.00
368.10	0.00
368.30	0.00
368.49	0.00
368.69	0.00
368.89	0.00
369.09	0.00
369.28	0.00
369.48	0.00
369.68	0.00
369.87	0.00
370.07	0.00
370.27	0.00
370.47	205.97
370.66	1624.33
370.86	1895.83
371.06	1905.20
371.25	1853.70
371.45	1713.27
371.65	1502.62
371.84	1610.29
372.04	1692.21
372.24	1916.90
372.44	1851.36
372.63	1818.60
372.83	1617.31
373.03	1437.09
373.22	1355.17
373.42	1533.05
373.62	1720.29
373.81	1872.43
374.01	1727.32
374.21	1502.62
374.40	1444.11
374.60	1666.46
374.79	1863.07
374.99	2310.11
375.19	2331.17
375.38	2202.44
375.58	2050.31
375.78	2090.10
375.97	2012.86
376.17	2202.44
376.37	2335.85
376.56	2305.43
376.76	2443.52
376.95	2633.10
377.15	2871.84
377.35	2855.45
377.54	3070.78
377.74	3148.02
377.93	3012.27
378.13	2913.97
378.33	2736.09
378.52	2633.10
378.72	2487.99
378.91	2417.77
379.11	2382.67
379.31	2382.67
379.50	2314.79
379.70	2551.18
379.89	2836.73
380.09	2759.49
380.28	3169.09
380.48	3014.61
380.68	3030.99
380.87	2731.41
381.07	2642.46
381.26	2342.88
381.46	2310.11
381.65	2314.79
381.85	2111.16
382.04	2022.22
382.24	1849.02
382.43	1746.04
382.63	1806.89
382.83	1790.51
383.02	1785.83
383.22	1792.85
383.41	1811.57
383.61	2010.52
383.80	2377.98
384.00	2607.36
384.19	2946.73
384.39	3005.25
384.58	2986.52
384.78	2869.50
384.97	2928.01
385.17	2747.79
385.36	2605.02
385.56	2436.50
385.75	2619.06
385.95	2820.35
386.14	3105.89
386.34	2986.52
386.53	2972.48
386.72	2883.54
386.92	2920.99
387.11	2963.12
387.31	3038.02
387.50	3016.95
387.70	2878.86
387.89	2960.78
388.09	2871.84
388.28	2988.86
388.48	3239.30
388.67	3290.79
388.86	3510.80
389.06	3857.20
389.25	3936.78
389.45	4135.73
389.64	4149.77
389.84	3857.20
390.03	4014.02
390.22	4030.40
390.42	4133.39
390.61	4393.19
390.81	4589.79
391.00	4695.11
391.19	4753.63
391.39	4454.04
391.58	4166.15
391.78	3847.84
391.97	3866.56
392.16	3461.65
392.36	3012.27
392.55	2373.30
392.75	1837.32
392.94	1671.14
393.13	1741.36
393.33	2069.03
393.52	2633.10
393.71	3272.07
393.91	3702.73
394.10	4051.47
394.29	4259.78
394.49	4631.92
394.68	4997.04
394.88	4835.55
395.07	5039.17
395.26	4945.55
395.46	4823.84
395.65	4418.93
395.84	3808.05
396.04	3192.49
396.23	2459.90
396.42	2225.85
396.62	2249.25
396.81	2789.92
397.00	3684.00
397.19	4535.96
397.39	5153.86
397.58	5666.44
397.77	5996.45
397.97	6303.06
398.16	6282.00
398.35	6567.54
398.55	6780.53
398.74	6885.86
398.93	7215.87
399.12	6803.94
399.32	6726.70
399.51	6806.28
399.70	7180.76
399.90	7080.12
400.09	7124.59
400.28	7328.22
400.47	7470.99
400.67	7716.75
400.86	7861.86
401.05	7672.28
401.24	7791.64
401.44	8142.72
401.63	7854.84
401.82	8072.51
402.01	8018.68
402.21	8037.40
402.40	7992.93
402.59	7892.29
402.78	7360.98
402.97	7239.28
403.17	7836.11
403.36	8255.07
403.55	8212.94
403.74	8051.44
403.93	7824.41
404.13	7323.54
404.32	7463.97
404.51	7779.94
404.70	8280.82
404.89	8264.43
405.09	8067.83
405.28	7852.50
405.47	7896.97
405.66	7932.08
405.85	7569.29
406.05	7407.80
406.24	7646.53
406.43	7838.45
406.62	7939.10
406.81	8184.85
407.00	7882.92
407.20	7557.59
407.39	7688.66
407.58	8259.75
407.77	8329.97
407.96	8634.24
408.15	8947.87
408.34	8912.76
408.54	9521.30
408.73	9348.10
408.92	9163.20
409.11	8676.37
409.30	8386.14
409.49	7810.37
409.68	7410.14
409.87	7625.47
410.07	7894.63
410.26	8432.95
410.45	8884.67
410.64	9172.56
410.83	9397.25
411.02	9734.29
411.21	9989.41
411.40	9771.74
411.59	10008.13
411.78	9696.84
411.98	9736.63
412.17	9776.42
412.36	9549.39
412.55	9738.97
412.74	9465.13
412.93	9378.53
413.12	9462.79
413.31	10064.30
413.50	10319.42
413.69	10008.13
413.88	10022.17
414.07	9989.41
414.26	10263.25
414.45	10331.12
414.64	10326.44
414.83	10274.95
415.02	10078.35
415.22	10106.43
415.41	10274.95
415.60	10864.77
415.79	11059.03
415.98	11248.61
416.17	11178.40
416.36	10920.94
416.55	10911.58
416.74	10593.26
416.93	10071.33
417.12	10368.57
417.31	10391.98
417.50	10675.18
417.69	10853.06
417.88	10750.08
418.07	10553.48
418.26	10342.83
418.45	10862.43
418.64	11173.72
418.83	11536.50
419.02	11054.35
419.21	10817.96
419.39	10651.78
419.58	10246.87
419.77	10361.55
419.96	10977.11
420.15	11517.78
420.34	11714.38
420.53	11974.18
420.72	12133.34
420.91	11948.43
421.10	11782.26
421.29	11892.26
421.48	11534.16
421.67	12060.78
421.86	11480.33
422.05	10490.28
422.24	9542.36
422.43	9954.30
422.61	11021.58
422.80	11632.46
422.99	11330.53
423.18	10775.83
423.37	10864.77
423.56	11267.34
423.75	11609.06
423.94	11489.69
424.13	10927.96
424.32	10555.82
424.50	10551.14
424.69	10906.90
424.88	10885.83
425.07	10867.11
425.26	10719.65
425.45	10572.20
425.64	10654.12
425.83	10773.49
426.01	11293.08
426.20	11304.79
426.39	10890.51
426.58	10132.18
426.77	9633.64
426.96	9488.53
427.15	10024.51
427.33	10670.50
427.52	10839.02
427.71	10846.04
427.90	10670.50
428.09	10492.62
428.28	10260.91
428.46	9984.73
428.65	10083.03
428.84	10361.55
429.03	10279.63
429.22	9247.46
429.40	9139.79
429.59	8236.35
429.78	7454.61
429.97	7683.98
430.16	7412.48
430.34	7410.14
430.53	7428.86
430.72	7948.46
430.91	9036.81
431.10	10586.24
431.28	11894.60
431.47	12521.87
431.66	12716.13
431.85	11260.32
432.03	10527.73
432.22	10785.19
432.41	11400.75
432.60	12182.49
432.79	12732.51
432.97	12582.72
433.16	12140.36
433.35	10993.50
433.54	10008.13
433.72	9774.08
433.91	10513.69
434.10	11236.91
434.28	11798.64
434.47	12592.08
434.66	12313.56
434.85	12023.33
435.03	12241.00
435.22	12395.48
435.41	12901.03
435.59	13018.06
435.78	13048.49
435.97	13680.43
436.16	13483.83
436.34	13177.22
436.53	13270.84
436.72	13191.26
436.90	12142.70
437.09	12276.11
437.28	12248.02
437.46	12432.93
437.65	12173.13
437.84	11091.80
438.02	10904.56
438.21	10775.83
438.40	11447.56
438.58	12208.23
438.77	12645.91
438.96	12559.31
439.14	13483.83
439.33	13418.29
439.52	13774.05
439.70	13516.59
439.89	12755.92
440.08	12933.80
440.26	12910.40
440.45	13329.35
440.63	14038.53
440.82	14869.42
441.01	14466.85
441.19	14628.35
441.38	14925.60
441.57	14977.09
441.75	15389.02
441.94	15253.27
442.12	15323.49
442.31	15681.59
442.50	15648.82
442.68	15531.80
442.87	15274.34
443.05	15213.48
443.24	15609.03
443.43	15445.20
443.61	15782.23
443.80	16042.03
443.98	15173.69
444.17	15419.45
444.35	16250.34
444.54	16695.04
444.73	16404.81
444.91	14934.96
445.10	14513.66
445.28	14293.65
445.47	13935.55
445.65	14352.16
445.84	14839.00
446.02	14848.36
446.21	15124.54
446.39	15353.91
446.58	15562.22
446.77	16060.76
446.95	16086.50
447.14	16446.94
447.32	16327.58
447.51	15976.50
447.69	15522.43
447.88	15356.25
448.06	15213.48
448.25	15728.40
448.43	15786.91
448.62	15669.89
448.80	15180.71
448.99	15461.58
449.17	16063.10
449.36	16161.40
449.54	16514.82
449.73	16479.71
449.91	16727.81
450.10	17476.78
450.28	17209.96
450.46	17324.65
450.65	16992.29
450.83	16779.30
451.02	16748.87
451.20	16470.35
451.39	16561.63
451.57	16350.98
451.76	16549.93
451.94	16329.92
452.13	16004.58
452.31	15173.69
452.49	14773.46
452.68	15171.35
452.86	15403.07
453.05	15365.62
453.23	16100.55
453.42	16367.37
453.60	16500.78
453.78	16568.65
453.97	16025.65
454.15	16236.30
454.34	15822.02
454.52	16098.20
454.70	15927.35
454.89	15817.34
455.07	16182.46
455.26	16112.25
455.44	16575.67
455.62	17109.32
455.81	17128.04
455.99	16486.73
456.17	17125.70
456.36	17029.74
456.54	17359.75
456.73	16985.27
456.91	17912.12
457.09	17781.05
457.28	17825.52
457.46	17462.74
457.64	17298.90
457.83	16709.08
458.01	16329.92
458.19	17137.40
458.38	16996.97
458.56	17275.49
458.74	17549.34
458.93	16863.56
459.11	16748.87
459.29	16627.17
459.48	17067.19
459.66	16444.60
459.84	16655.25
460.03	17245.07
460.21	17046.12
460.39	17593.81
460.57	17867.65
460.76	17968.29
460.94	17811.48
461.12	17769.35
461.31	17624.23
461.49	17759.98
461.67	17902.76
461.85	18267.88
462.04	18001.06
462.22	17834.88
462.40	18288.95
462.59	17783.39
462.77	17324.65
462.95	18040.85
463.13	18033.83
463.32	17610.19
463.50	17273.15
463.68	17483.80
463.86	17710.83
464.05	17376.14
464.23	17043.78
464.41	16622.48
464.59	16376.73
464.78	17394.86
464.96	17118.68
465.14	17270.81
465.32	17853.61
465.50	18066.60
465.69	18361.50
465.87	17528.27
466.05	17020.38
466.23	16704.40
466.41	16760.58
466.60	17025.06
466.78	16828.45
466.96	16865.90
467.14	17291.88
467.32	17352.73
467.51	17418.27
467.69	16514.82
467.87	16863.56
468.05	17303.58
468.23	17268.47
468.41	17252.09
468.60	17305.92
468.78	17092.93
468.96	17378.48
469.14	17846.58
469.32	17942.55
469.50	17046.12
469.69	16783.98
469.87	16580.36
470.05	16741.85
470.23	16692.70
470.41	17266.13
470.59	17329.33
470.77	17011.01
470.95	17252.09
471.14	17514.23
471.32	17556.36
471.50	19185.37
471.68	18939.62
471.86	19180.69
472.04	18848.33
472.22	18539.38
472.40	17853.61
472.58	18279.58
472.77	17614.87
472.95	18466.83
473.13	18672.79
473.31	18195.32
473.49	18459.81
473.67	18642.37
473.85	18265.54
474.03	18469.17
474.21	18820.25
474.39	18925.57
474.57	18876.42
474.75	19391.34
474.93	19260.27
475.12	18501.93
475.30	18934.93
475.48	18913.87
475.66	19101.11
475.84	18845.99
476.02	19002.81
476.20	18487.89
476.38	18719.60
476.56	19363.25
476.74	19630.07
476.92	19859.45
477.10	20067.75
477.28	20580.33
477.46	20812.04
477.64	20669.27
477.82	20702.04
478.00	20662.25
478.18	20147.33
478.36	20362.66
478.54	20208.19
478.72	21184.19
478.90	21575.06
479.08	21783.37
479.26	21755.28
479.44	21528.25
479.62	21937.84
479.80	22300.62
479.98	22017.42
480.16	22553.40
480.34	22197.64
480.52	22167.21
480.70	21844.22
480.88	22047.85
481.06	22780.43
481.24	23016.83
481.41	23536.43
481.59	24060.71
481.77	23000.44
481.95	23012.15
482.13	23344.50
482.31	22757.03
482.49	23723.67
482.67	23164.28
482.85	23393.65
483.03	23494.30
483.21	23625.37
483.39	23831.33
483.57	24168.37
483.74	23924.96
483.92	23475.57
484.10	24222.20
484.28	24264.33
484.46	24510.09
484.64	23913.25
484.82	24191.78
485.00	23831.33
485.18	23047.26
485.35	21816.13
485.53	19407.72
485.71	18410.65
485.89	19035.58
486.07	20353.30
486.25	21979.97
486.43	22600.21
486.61	22504.25
486.78	22249.13
486.96	23461.53
487.14	24554.56
487.32	25010.96
487.50	25429.92
487.68	24769.89
487.85	25956.54
488.03	26326.35
488.21	25687.38
488.39	24788.61
488.57	24870.53
488.75	25067.14
488.92	26164.85
489.10	28264.31
489.28	28465.60
489.46	28987.53
489.64	29729.48
489.81	29230.95
489.99	28456.23
490.17	29022.64
490.35	29191.16
490.53	28533.47
490.70	28004.51
490.88	28332.18
491.06	29172.44
491.24	29153.71
491.41	27700.24
491.59	26560.40
491.77	25773.98
491.95	27117.45
492.13	27793.86
492.30	28837.74
492.48	29483.73
492.66	30295.89
492.84	29455.64
493.01	29680.33
493.19	28788.59
493.37	27845.35
493.54	28809.65
493.72	29326.91
493.90	30724.21
494.08	31351.48
494.25	31796.18
494.43	31880.44
494.61	32474.93
494.79	32587.28
494.96	32428.12
495.14	31147.85
495.32	30050.14
495.49	30094.61
495.67	31042.53
495.85	32648.13
496.02	32861.12
496.20	33041.34
496.38	32971.13
496.55	32641.11
496.73	32598.98
496.91	32058.32
497.09	32732.39
497.26	33022.62
497.44	33104.54
497.62	32814.31
497.79	31721.28
497.97	30455.05
498.14	30127.38
498.32	31878.10
498.50	31864.05
498.67	33144.33
498.85	32383.65
499.03	32521.74
499.20	32549.83
499.38	32769.84
499.56	32046.62
499.73	31952.99
499.91	31417.01
500.08	30663.36
500.26	30213.98
500.44	30705.49
500.61	32170.66
500.79	31021.46
500.97	31318.71
501.14	31094.02
501.32	30071.20
501.49	29996.31
501.67	30857.62
501.84	32219.81
502.02	31892.14
502.20	32053.64
502.37	32400.04
502.55	33149.01
502.72	33759.89
502.90	33813.72
503.07	33221.56
503.25	33024.96
503.43	32231.52
503.60	31140.83
503.78	30433.99
503.95	31688.51
504.13	32107.47
504.30	33460.30
504.48	33626.48
504.65	33362.00
504.83	33041.34
505.01	33553.92
505.18	33216.88
505.36	34864.62
505.53	34979.31
505.71	35147.82
505.88	35058.88
506.06	34995.69
506.23	33329.23
506.41	33443.91
506.58	33897.98
506.76	33542.22
506.93	33574.98
507.11	31866.39
507.28	33137.30
507.46	32381.31
507.63	32503.02
507.81	31952.99
507.98	32222.16
508.16	33034.32
508.33	33530.51
508.50	33401.79
508.68	34206.93
508.85	34621.20
509.03	34572.05
509.20	33596.05
509.38	32982.83
509.55	32900.91
509.73	33649.88
509.90	34359.06
510.08	33057.73
510.25	32919.63
510.42	33181.77
510.60	32968.79
510.77	34134.37
510.95	34363.75
511.12	34089.90
511.30	34663.33
511.47	35421.67
511.64	34110.97
511.82	34717.17
511.99	33766.91
512.17	33399.44
512.34	32919.63
512.51	32872.82
512.69	33092.83
512.86	33591.37
513.04	34415.24
513.21	33832.44
513.38	33654.56
513.56	33233.27
513.73	32121.51
513.90	31358.50
514.08	32699.62
514.25	33570.30
514.43	33495.41
514.60	33750.52
514.77	33645.20
514.95	33443.91
515.12	33090.49
515.29	33872.23
515.47	34249.06
515.64	33942.45
515.81	33869.89
515.99	33413.49
516.16	30176.53
516.33	28453.89
516.51	27199.37
516.68	26700.83
516.85	25720.15
517.03	26728.92
517.20	29186.48
517.37	32023.21
517.54	32070.02
517.72	30452.71
517.89	28617.73
518.06	27798.54
518.24	28556.88
518.41	30160.14
518.58	31058.91
518.75	31578.51
518.93	31702.56
519.10	31519.99
519.27	32004.49
519.45	32608.34
519.62	33092.83
519.79	33825.42
519.96	33427.53
520.14	32500.68
520.31	31601.91
520.48	32053.64
520.65	32673.88
520.83	33516.47
521.00	32851.76
521.17	32800.27
521.34	32486.64
521.52	32304.07
521.69	33638.18
521.86	34213.95
522.03	32449.19
522.20	32034.91
522.38	30918.48
522.55	30948.90
522.72	31950.65
522.89	31482.55
523.07	31882.78
523.24	33127.94
523.41	33558.60
523.58	33404.13
523.75	32999.21
523.92	34033.73
524.10	34015.01
524.27	33998.62
524.44	33652.22
524.61	34293.53
524.78	33830.10
524.96	33216.88
525.13	34157.78
525.30	34806.11
525.47	34632.91
525.64	34579.07
525.81	32500.68
525.98	30895.07
526.16	28678.58
526.33	28287.71
526.50	29214.57
526.67	29355.00
526.84	29172.44
527.01	30515.90
527.18	31503.61
527.36	31903.84
527.53	33582.01
527.70	33263.69
527.87	31850.01
528.04	31929.59
528.21	32587.28
528.38	33366.68
528.55	34911.43
528.72	34349.70
528.89	33944.79
529.07	34263.10
529.24	31924.91
529.41	32830.69
529.58	32020.87
529.75	31962.36
529.92	32072.36
530.09	32723.03
530.26	33212.20
530.43	31709.58
530.60	33205.18
530.77	34270.12
530.94	35147.82
531.11	33362.00
531.28	33312.84
531.46	33050.70
531.63	33799.68
531.80	33682.65
531.97	32453.87
532.14	30885.71
532.31	29617.14
532.48	29156.05
532.65	29385.43
532.82	30331.00
532.99	31821.92
533.16	33298.80
533.33	34230.33
533.50	32938.36
533.67	32004.49
533.84	32283.01
534.01	32566.21
534.18	32582.60
534.35	31847.67
534.52	32481.95
534.69	31999.80
534.86	32460.89
535.03	32500.68
535.20	33935.43
535.37	33795.00
535.54	34122.67
535.71	33127.94
535.88	32484.30
536.05	31192.32
536.22	31178.28
536.38	30761.66
536.55	30946.56
536.72	30771.02
536.89	31204.02
537.06	32385.99
537.23	32634.09
537.40	31999.80
537.57	32385.99
537.74	31138.49
537.91	31466.16
538.08	33287.10
538.25	32329.82
538.42	31356.16
538.59	31997.46
538.75	32538.13
538.92	31880.44
539.09	31213.38
539.26	29937.79
539.43	29766.93
539.60	29802.04
539.77	30192.91
539.94	29465.00
540.11	28910.30
540.28	28016.21
540.44	28872.85
540.61	29589.05
540.78	29762.25
540.95	31545.74
541.12	29900.34
541.29	31241.47
541.46	30785.07
541.62	30543.99
541.79	29570.33
541.96	29710.76
542.13	30951.24
542.30	30848.26
542.47	31002.74
542.63	29916.73
542.80	29228.61
542.97	29685.01
543.14	29071.79
543.31	29610.12
543.48	31388.92
543.64	31480.21
543.81	32222.16
543.98	30965.29
544.15	30462.07
544.32	29766.93
544.48	30602.50
544.65	29820.77
544.82	30103.97
544.99	31077.63
545.16	30352.07
545.32	31061.25
545.49	31442.76
545.66	30670.38
545.83	31021.46
546.00	30529.95
546.16	30199.93
546.33	30396.54
546.50	30845.92
546.67	30398.88
546.83	29984.60
547.00	29727.14
547.17	29481.39
547.34	29617.14
547.50	29202.86
547.67	29844.17
547.84	29699.06
548.00	29989.28
548.17	29474.37
548.34	29223.93
548.51	29109.24
548.67	30698.47
548.84	30312.28
549.01	30464.41
549.18	30665.70
549.34	31054.23
549.51	30609.53
549.68	30148.44
549.84	29902.68
550.01	29900.34
550.18	28912.64
550.34	29268.40
550.51	29137.33
550.68	28107.49
550.84	27983.44
551.01	28194.09
551.18	27438.10
551.34	27962.38
551.51	28978.17
551.68	30668.04
551.84	29132.65
552.01	29567.99
552.18	29394.79
552.34	28968.81
552.51	29113.92
552.68	29839.49
552.84	29039.03
553.01	28463.25
553.18	29986.94
553.34	29544.58
553.51	29551.60
553.67	28709.01
553.84	29900.34
554.01	30433.99
554.17	28690.29
554.34	29095.20
554.51	29881.62
554.67	29790.34
554.84	28797.95
555.00	28809.65
555.17	28819.02
555.33	28355.59
555.50	29612.46
555.67	28804.97
555.83	29235.63
556.00	28821.36
556.16	28652.84
556.33	27927.27
556.50	28053.66
556.66	27496.61
556.83	26862.33
556.99	27988.13
557.16	27873.44
557.32	28315.80
557.49	28123.88
557.65	27847.69
557.82	27171.28
557.98	27644.07
558.15	28065.36
558.32	27161.92
558.48	26033.78
558.65	25813.77
558.81	25795.04
558.98	26593.17
559.14	27374.91
559.31	27714.28
559.47	27388.95
559.64	26473.80
559.80	27323.41
559.97	27002.76
560.13	27529.38
560.30	27721.30
560.46	27613.64
560.63	28077.07
560.79	28652.84
560.96	27564.49
561.12	26749.98
561.29	26827.22
561.45	26284.22
561.61	26319.32
561.78	26513.59
561.94	26661.04
562.11	26532.31
562.27	26899.78
562.44	27161.92
562.60	26934.88
562.77	27747.05
562.93	26618.91
563.10	26656.36
563.26	26848.29
563.42	26033.78
563.59	26015.05
563.75	26551.04
563.92	26312.30
564.08	26373.16
564.24	26174.21
564.41	25020.33
564.57	25766.96
564.74	25486.09
564.90	25097.56
565.07	25083.52
565.23	24898.62
565.39	24245.61
565.56	25558.65
565.72	25453.33
565.88	25942.50
566.05	25315.23
566.21	25486.09
566.38	24589.67
566.54	25078.84
566.70	24276.04
566.87	25254.38
567.03	27026.17
567.19	27482.57
567.36	25294.17
567.52	26068.89
567.68	25399.49
567.85	25610.14
568.01	25652.27
568.17	24575.62
568.34	23791.55
568.50	24084.11
568.66	23880.49
568.83	24238.59
568.99	24879.89
569.15	25113.95
569.32	25511.84
569.48	25064.80
569.64	24505.41
569.81	23854.74
569.97	23955.38
570.13	24276.04
570.30	23695.58
570.46	23384.29
570.62	22382.54
570.78	21759.96
570.95	22590.85
571.11	23283.65
571.27	23208.75
571.43	23358.55
571.60	23871.12
571.76	24257.31
571.92	24678.61
572.09	24758.19
572.25	24732.44
572.41	25376.09
572.57	25230.98
572.74	24159.01
572.90	24130.92
573.06	23981.13
573.22	23824.31
573.38	23836.02
573.55	23154.92
573.71	23185.35
573.87	23812.61
574.03	23580.90
574.20	23737.71
574.36	23520.04
574.52	23285.99
574.68	22717.24
574.84	22895.12
575.01	23700.26
575.17	23592.60
575.33	23073.00
575.49	22852.99
575.65	23431.10
575.82	23051.94
575.98	22991.08
576.14	22909.16
576.30	22665.75
576.46	22071.25
576.62	22923.21
576.79	22724.26
576.95	22045.51
577.11	21972.95
577.27	22059.55
577.43	22242.11
577.59	22113.38
577.75	23009.81
577.92	21900.39
578.08	21434.63
578.24	21390.16
578.40	21818.47
578.56	22349.78
578.72	21806.77
578.88	22658.73
579.04	22164.87
579.21	22129.77
579.37	22717.24
579.53	22277.22
579.69	21762.30
579.85	21436.97
580.01	21654.64
580.17	21546.97
580.33	21757.62
580.49	21830.18
580.65	22251.47
580.82	21879.33
580.98	22347.44
581.14	22113.38
581.30	22560.42
581.46	22132.11
581.62	21914.44
581.78	22024.44
581.94	22506.59
582.10	22270.20
582.26	21984.65
582.42	22272.54
582.58	23061.30
582.74	22742.99
582.90	21956.57
583.06	22352.12
583.22	22015.08
583.38	22342.75
583.54	22838.95
583.70	22324.03
583.86	21935.50
584.02	22377.86
584.18	21944.86
584.34	22043.17
584.50	22499.57
584.66	22157.85
584.82	21811.45
584.98	21647.61
585.14	21474.42
585.30	20608.42
585.46	20713.74
585.62	20360.32
585.78	21006.31
585.94	20954.82
586.10	21738.90
586.26	21490.80
586.42	21486.12
586.58	21645.27
586.74	20758.21
586.90	21242.70
587.06	21247.38
587.22	20507.77
587.38	20849.49
587.54	20823.75
587.70	20610.76
587.86	20395.43
588.02	20278.40
588.18	19754.12
588.34	19548.15
588.49	19082.39
588.65	17909.78
588.81	17680.41
588.97	17823.18
589.13	17394.86
589.29	17114.00
589.45	18188.30
589.61	19009.83
589.77	19517.73
589.93	19452.19
590.08	19538.79
590.24	20238.61
590.40	19583.26
590.56	19417.08
590.72	19325.80
590.88	18817.91
591.04	18848.33
591.20	19197.07
591.35	19681.56
591.51	20456.28
591.67	19840.72
591.83	20065.41
591.99	19173.67
592.15	19531.77
592.31	19098.77
592.46	18946.64
592.62	19066.00
592.78	19117.50
592.94	18869.40
593.10	19054.30
593.26	19016.85
593.41	19744.76
593.57	19728.38
593.73	19400.70
593.89	18827.27
594.05	18223.41
594.20	17977.65
594.36	18068.94
594.52	18721.95
594.68	18338.10
594.84	18218.73
594.99	18707.90
595.15	18724.29
595.31	18785.14
595.47	18244.48
595.62	18623.64
595.78	18373.21
595.94	18857.70
596.10	18424.70
596.25	18466.83
596.41	18904.51
596.57	18712.58
596.73	18450.44
596.88	18401.29
597.04	18146.17
597.20	17715.51
597.36	17406.56
597.51	17528.27
597.67	17848.93
597.83	17949.57
597.99	18073.62
598.14	17167.83
598.30	16840.15
598.46	16599.08
598.61	17256.77
598.77	17759.98
598.93	18415.34
599.09	18593.22
599.24	17963.61
599.40	17710.83
599.56	18134.47
599.71	17951.91
599.87	17771.69
600.03	17902.76
600.18	18342.78
600.34	18703.22
600.50	17874.67
600.65	18778.12
600.81	18593.22
600.97	18265.54
601.12	17848.93
601.28	17160.81
601.44	17310.60
601.59	17291.88
601.75	17322.30
601.91	17144.42
602.06	17034.42
602.22	17638.28
602.37	17769.35
602.53	17476.78
602.69	17008.67
602.84	16779.30
603.00	17743.60
603.16	17617.21
603.31	17834.88
603.47	17280.18
603.62	17427.63
603.78	17638.28
603.94	17729.56
604.09	18237.45
604.25	18192.98
604.40	17708.49
604.56	17664.02
604.71	17823.18
604.87	17745.94
605.03	18274.90
605.18	17659.34
605.34	17074.21
605.49	16926.75
605.65	17109.32
605.80	16863.56
605.96	16816.75
606.12	16545.25
606.27	16723.13
606.43	16940.80
606.58	16828.45
606.74	16807.39
606.89	17207.62
607.05	16690.36
607.20	16992.29
607.36	16819.09
607.51	16800.37
607.67	16563.97
607.82	16798.02
607.98	16783.98
608.13	16762.92
608.29	16987.61
608.44	16886.97
608.60	16306.51
608.75	16748.87
608.91	16468.01
609.06	16009.26
609.22	16224.59
609.37	16713.77
609.53	17315.28
609.68	16264.38
609.84	16130.97
609.99	15822.02
610.15	15091.77
610.30	15803.30
610.46	15859.47
610.61	15922.66
610.76	16617.80
610.92	16875.26
611.07	17184.21
611.23	16915.05
611.38	16402.47
611.54	15836.06
611.69	15433.49
611.84	15204.12
612.00	15138.58
612.15	15316.47
612.31	15960.11
612.46	15854.79
612.62	15901.60
612.77	15620.74
612.92	15751.81
613.08	15501.37
613.23	15026.24
613.39	14867.08
613.54	14675.16
613.69	14754.74
613.85	15000.49
614.00	14918.57
614.15	14352.16
614.31	15169.01
614.46	14920.92
614.62	15222.84
614.77	14883.47
614.92	15115.18
615.08	15297.74
615.23	15021.56
615.38	15117.52
615.54	14630.69
615.69	13867.67
615.84	13528.30
616.00	13872.36
616.15	14251.52
616.30	13996.40
616.46	14052.58
616.61	14195.35
616.76	14057.26
616.92	14448.13
617.07	14892.83
617.22	15080.07
617.37	14820.27
617.53	14490.26
617.68	14647.07
617.83	14333.44
617.99	14544.09
618.14	14597.92
618.29	14228.12
618.45	13820.86
618.60	13179.56
618.75	13652.34
618.90	13797.46
619.06	14150.88
619.21	14494.94
619.36	14272.59
619.51	14221.10
619.67	14398.98
619.82	13973.00
619.97	14148.54
620.12	14237.48
620.28	14169.60
620.43	14441.11
620.58	14097.05
620.73	14375.57
620.89	14878.79
621.04	14150.88
621.19	14118.11
621.34	13973.00
621.49	13509.57
621.65	13624.26
621.80	13408.93
621.95	13954.27
622.10	14101.73
622.25	13130.41
622.41	13071.89
622.56	13020.40
622.71	13544.68
622.86	13671.07
623.01	13657.03
623.16	13659.37
623.32	13685.11
623.47	13390.20
623.62	13303.60
623.77	13078.91
623.92	13582.13
624.07	12844.86
624.23	12905.71
624.38	13088.28
624.53	13483.83
624.68	12753.58
624.83	12709.11
624.98	12238.66
625.13	12828.48
625.29	12498.46
625.44	12561.66
625.59	12856.56
625.74	13366.80
625.89	12996.99
626.04	12662.30
626.19	12315.90
626.34	12383.77
626.49	12264.41
626.65	12208.23
626.80	12468.03
626.95	12568.68
627.10	12652.94
627.25	12222.28
627.40	11756.51
627.55	11681.61
627.70	11733.11
627.85	11477.99
628.00	11810.34
628.15	12121.63
628.30	12168.45
628.45	11613.74
628.60	11805.66
628.76	12353.35
628.91	11796.30
629.06	11915.67
629.21	11733.11
629.36	11768.21
629.51	11789.28
629.66	11852.47
629.81	11726.08
629.96	11976.52
630.11	11939.07
630.26	11506.07
630.41	11639.48
630.56	11527.14
630.71	11431.18
630.86	11597.35
631.01	11075.42
631.16	11229.89
631.31	10602.63
631.46	10883.49
631.61	11325.85
631.76	11550.54
631.91	11726.08
632.06	11910.99
632.21	11981.20
632.36	12432.93
632.51	11915.67
632.66	12423.56
632.81	11878.22
632.96	11522.46
633.10	11372.66
633.25	11403.09
633.40	11559.91
633.55	11382.03
633.70	11103.50
633.85	11176.06
634.00	11105.84
634.15	10588.58
634.30	10892.85
634.45	10754.76
634.60	11145.63
634.75	11262.66
634.90	11405.43
635.05	11243.93
635.19	11136.27
635.34	11487.35
635.49	11145.63
635.64	11115.20
635.79	10619.01
635.94	10565.18
636.09	10808.59
636.24	11063.71
636.39	10897.53
636.53	11094.14
636.68	11346.92
636.83	11412.45
636.98	11314.15
637.13	11070.73
637.28	11101.16
637.43	11475.65
637.57	11222.87
637.72	11059.03
637.87	10974.77
638.02	10455.17
638.17	11475.65
638.32	11042.65
638.46	10490.28
638.61	10286.65
638.76	10518.37
638.91	10485.60
639.06	10747.74
639.20	10958.39
639.35	10979.45
639.50	10642.42
639.65	10324.10
639.80	10815.62
639.94	10211.76
640.09	10134.52
640.24	10272.61
640.39	10558.16
640.54	10626.03
640.68	10307.72
640.83	10434.11
640.98	10391.98
641.13	9998.77
641.27	10085.37
641.42	9893.44
641.57	9753.01
641.72	9919.19
641.86	10150.90
642.01	10417.72
642.16	10733.70
642.31	10394.32
642.45	10703.27
642.60	10628.37
642.75	10305.38
642.90	10228.14
643.04	10691.57
643.19	10483.26
643.34	10076.01
643.48	9928.55
643.63	9638.33
643.78	9500.23
643.93	9872.38
644.07	9806.84
644.22	10101.75
644.37	10181.33
644.51	9895.78
644.66	9760.03
644.81	9427.68
644.95	9902.81
645.10	10078.35
645.25	9947.28
645.39	9699.18
645.54	9533.00
645.69	9385.55
645.83	9210.01
645.98	9001.70
646.13	9378.53
646.27	9802.16
646.42	9535.34
646.57	9678.12
646.71	9558.75
646.86	9341.08
647.00	9291.93
647.15	9090.64
647.30	9413.63
647.44	9458.10
647.59	9355.12
647.74	9125.75
647.88	9139.79
648.03	8910.42
648.17	8748.92
648.32	9076.60
648.47	9004.04
648.61	8613.17
648.76	8521.89
648.90	8428.27
649.05	7974.21
649.20	8203.58
649.34	8545.30
649.49	8159.11
649.63	8252.73
649.78	8631.90
649.92	8624.87
650.07	9277.88
650.21	9160.86
650.36	8922.12
650.51	8777.01
650.65	9149.15
650.80	8765.31
650.94	8603.81
651.09	8723.18
651.23	8727.86
651.38	8898.72
651.52	9158.52
651.67	8905.74
651.81	9107.02
651.96	8699.77
652.10	8844.88
652.25	8571.04
652.39	8833.18
652.54	8950.21
652.68	8636.58
652.83	9034.47
652.97	8784.03
653.12	9062.55
653.26	8922.12
653.41	8683.39
653.55	8786.37
653.70	8706.79
653.84	8971.27
653.99	8793.39
654.13	8746.58
654.27	8510.19
654.42	8442.31
654.56	8037.40
654.71	8140.38
654.85	8245.71
655.00	8524.23
655.14	8573.38
655.29	7819.73
655.43	7946.12
655.57	7445.24
655.72	6712.66
655.86	6174.33
656.01	6157.95
656.15	6305.40
656.30	7070.76
656.44	7503.76
656.58	7421.84
656.73	7634.83
656.87	7751.85
657.01	7447.58
657.16	7578.65
657.30	7850.16
657.45	7754.19
657.59	8009.31
657.73	8215.28
657.88	8098.25
658.02	8011.65
658.16	8070.17
658.31	8196.56
658.45	8336.99
658.60	8287.84
658.74	8320.60
658.88	8280.82
659.03	8414.23
659.17	8004.63
659.31	8035.06
659.46	8128.68
659.60	8194.22
659.74	8180.17
659.89	8109.96
660.03	7918.03
660.17	8194.22
660.32	8126.34
660.46	8060.80
660.60	7805.69
660.74	7789.30
660.89	7826.75
661.03	7829.09
661.17	7805.69
661.32	7948.46
661.46	7875.90
661.60	7988.25
661.74	7885.26
661.89	7946.12
662.03	7761.22
662.17	7665.25
662.31	7789.30
662.46	8152.09
662.60	7955.48
662.74	7566.95
662.88	7508.44
663.03	7492.05
663.17	7449.93
663.31	7449.93
663.45	7274.38
663.60	7543.55
663.74	7531.84
663.88	7342.26
664.02	7353.96
664.17	7281.41
664.31	6927.99
664.45	7236.94
664.59	7260.34
664.73	7126.93
664.88	7330.56
665.02	7138.63
665.16	7260.34
665.30	7253.32
665.44	7372.69
665.59	7681.64
665.73	7407.80
665.87	7358.64
666.01	7555.25
666.15	7339.92
666.29	7155.02
666.44	7190.13
666.58	7087.14
666.72	7274.38
666.86	7150.34
667.00	7236.94
667.14	6972.46
667.28	7136.29
667.43	6953.73
667.57	6972.46
667.71	6890.54
667.85	6935.01
667.99	7187.79
668.13	7215.87
668.27	7110.55
668.41	6986.50
668.56	6785.21
668.70	6834.36
668.84	6738.40
668.98	6532.44
669.12	6803.94
669.26	6909.26
669.40	6696.27
669.54	6525.41
669.68	6134.54
669.82	6200.08
669.96	6312.42
670.10	6267.95
670.25	6338.17
670.39	6473.92
670.53	6424.77
670.67	6333.49
670.81	6537.12
670.95	6710.32
671.09	6441.15
671.23	6160.29
671.37	6057.31
671.51	6286.68
671.65	6581.59
671.79	6317.11
671.93	6377.96
672.07	6415.41
672.21	6230.51
672.35	6324.13
672.49	6424.77
672.63	6389.66
672.77	6361.58
672.91	6190.72
673.05	6242.21
673.19	6104.12
673.33	6019.86
673.47	6085.39
673.61	6146.25
673.75	5919.21
673.89	5689.84
674.03	5832.62
674.17	6324.13
674.31	6363.92
674.45	6270.30
674.59	6125.18
674.73	6008.16
674.87	6019.86
675.01	5940.28
675.15	6031.56
675.29	5984.75
675.43	5738.99
675.56	5830.27
675.70	5643.03
675.84	5741.33
675.98	5556.43
676.12	5713.25
676.26	5715.59
676.40	5610.26
676.54	5851.34
676.68	5455.79
676.82	5310.68
676.96	5327.06
677.10	5453.45
677.23	5420.68
677.37	5675.80
677.51	5624.31
677.65	5816.23
677.79	5423.02
677.93	5507.28
678.07	5750.70
678.21	5568.13
678.34	5568.13
678.48	5657.07
678.62	5750.70
678.76	5650.05
678.90	5476.85
679.04	5582.18
679.18	5504.94
679.31	5479.19
679.45	5406.64
679.59	5313.02
679.73	5371.53
679.87	4992.36
680.00	5160.88
680.14	5135.14
680.28	5116.41
680.42	4891.72
680.56	4889.38
680.70	4971.30
680.83	4952.57
680.97	4828.53
681.11	4933.85
681.25	4915.12
681.39	4720.86
681.52	4624.90
681.66	4770.01
681.80	4823.84
681.94	4627.24
682.07	4732.56
682.21	4926.83
682.35	4788.74
682.49	4896.40
682.62	4784.06
682.76	4716.18
682.90	4566.39
683.04	4692.77
683.17	4521.92
683.31	4437.66
683.45	4454.04
683.59	4416.59
683.72	4610.86
683.86	4432.97
684.00	4493.83
684.13	4461.06
684.27	4416.59
684.41	4486.81
684.55	4365.10
684.68	4367.44
684.82	4074.87
684.96	4191.90
685.09	4224.67
685.23	4117.00
685.37	4208.28
685.50	4215.30
685.64	4365.10
685.78	4283.18
685.91	4032.74
686.05	3850.18
686.19	3705.07
686.32	3723.79
686.46	3396.12
686.60	2920.99
686.73	2700.98
686.87	2373.30
687.01	2485.65
687.14	2497.35
687.28	2651.83
687.42	2820.35
687.55	2972.48
687.69	3173.77
687.82	3267.39
687.96	3445.27
688.10	3260.37
688.23	3370.37
688.37	3293.13
688.50	3215.90
688.64	3199.51
688.78	2949.08
688.91	3038.02
689.05	2883.54
689.18	2949.08
689.32	3014.61
689.46	2857.79
689.59	2956.10
689.73	2848.43
689.86	2942.05
690.00	3019.29
690.13	3098.87
690.27	3157.38
690.41	3033.33
690.54	3082.49
690.68	3117.59
690.81	3042.70
690.95	3063.76
691.08	3178.45
691.22	3218.24
691.35	3141.00
691.49	3377.39
691.62	3138.66
691.76	3075.46
691.89	3089.51
692.03	3103.55
692.16	3138.66
692.30	3061.42
692.43	3211.22
692.57	3110.57
692.70	3049.72
692.84	3023.97
692.97	2953.76
693.11	3108.23
693.24	3016.95
693.38	2827.37
693.51	2857.79
693.65	2773.53
693.78	2530.12
693.92	2675.23
694.05	2764.17
694.19	2745.45
694.32	2736.09
694.45	2757.15
694.59	2860.13
694.72	2970.14
694.86	2963.12
694.99	2998.23
695.13	2883.54
695.26	2878.86
695.39	2834.39
695.53	2757.15
695.66	2771.19
695.80	2612.04
695.93	2619.06
696.07	2675.23
696.20	2862.48
696.33	2782.90
696.47	2801.62
696.60	2818.00
696.73	2708.00
696.87	2820.35
697.00	2710.34
697.14	2675.23
697.27	2537.14
697.40	2509.05
697.54	2513.74
697.67	2497.35
697.80	2537.14
697.94	2424.80
698.07	2422.45
698.21	2476.29
698.34	2572.25
698.47	2464.58
698.61	2394.37
698.74	2504.37
698.87	2537.14
699.01	2490.33
699.14	2324.15
699.27	2492.67
699.40	2410.75
699.54	2457.56
699.67	2436.50
699.80	2272.66
699.94	2480.97
700.07	2298.41
700.20	2136.91
700.34	2204.78
700.47	2143.93
700.60	2129.89
700.73	2270.32
700.87	2282.02
701.00	2307.77
701.13	2029.24
701.26	2120.53
701.40	1987.11
701.53	2139.25
701.66	2160.31
701.79	1923.92
701.93	1853.70
702.06	2092.44
702.19	2050.31
702.32	2066.69
702.46	1984.77
702.59	1956.69
702.72	1956.69
702.85	2024.56
702.99	2047.97
703.12	2087.76
703.25	2005.84
703.38	1952.01
703.51	1844.34
703.65	1888.81
703.78	1956.69
703.91	1902.86
704.04	2047.97
704.17	2099.46
704.31	1954.35
704.44	1982.43
704.57	1923.92
704.70	1809.23
704.83	1813.92
704.96	1898.17
705.10	1870.09
705.23	1930.94
>>>>>End Processed Spectral Data<<<<<
