SpectraSuite Data File
++++++++++++++++++++++++++++++++++++
Date: Mon Oct 07 14:54:59 GMT-05:00 2013
User: price-jones
Dark Spectrum Present: No
Reference Spectrum Present: No
Number of Sampled Component Spectra: 1
Spectrometers: USB2+H05261
Integration Time (usec): 10000 (USB2+H05261)
Spectra Averaged: 1 (USB2+H05261)
Boxcar Smoothing: 0 (USB2+H05261)
Correct for Electrical Dark: No (USB2+H05261)
Strobe/Lamp Enabled: No (USB2+H05261)
Correct for Detector Non-linearity: No (USB2+H05261)
Correct for Stray Light: No (USB2+H05261)
Number of Pixels in Processed Spectrum: 2048
>>>>>Begin Processed Spectral Data<<<<<
365.73	0.00
365.92	0.00
366.12	0.00
366.32	0.00
366.52	0.00
366.72	0.00
366.91	0.00
367.11	0.00
367.31	0.00
367.51	0.00
367.70	0.00
367.90	0.00
368.10	0.00
368.30	0.00
368.49	0.00
368.69	0.00
368.89	0.00
369.09	0.00
369.28	0.00
369.48	0.00
369.68	0.00
369.87	0.00
370.07	0.00
370.27	0.00
370.47	147.45
370.66	1303.68
370.86	1640.72
371.06	1757.74
371.25	1715.61
371.45	1572.84
371.65	1306.02
371.84	1324.74
372.04	1500.28
372.24	1668.80
372.44	1610.29
372.63	1710.93
372.83	1465.18
373.03	1324.74
373.22	1177.29
373.42	1336.45
373.62	1544.75
373.81	1650.08
374.01	1582.20
374.21	1392.62
374.40	1397.30
374.60	1427.73
374.79	1727.32
374.99	1886.47
375.19	1996.48
375.38	1970.73
375.58	1914.56
375.78	1884.13
375.97	1881.79
376.17	1994.14
376.37	2019.88
376.56	2054.99
376.76	2071.37
376.95	2354.58
377.15	2452.88
377.35	2502.03
377.54	2747.79
377.74	2825.03
377.93	2775.88
378.13	2609.70
378.33	2396.71
378.52	2312.45
378.72	2239.89
378.91	2249.25
379.11	2003.50
379.31	1984.77
379.50	2289.04
379.70	2298.41
379.89	2511.39
380.09	2586.29
380.28	2675.23
380.48	2555.86
380.68	2546.50
380.87	2485.65
381.07	2223.51
381.26	2129.89
381.46	2026.90
381.65	2012.86
381.85	1900.52
382.04	1797.53
382.24	1617.31
382.43	1572.84
382.63	1596.25
382.83	1465.18
383.02	1556.46
383.22	1626.67
383.41	1577.52
383.61	1846.68
383.80	2029.24
384.00	2317.13
384.19	2530.12
384.39	2729.06
384.58	2593.31
384.78	2677.57
384.97	2539.48
385.17	2441.18
385.36	2307.77
385.56	2267.98
385.75	2506.71
385.95	2576.93
386.14	2761.83
386.34	2689.28
386.53	2546.50
386.72	2389.69
386.92	2626.08
387.11	2696.30
387.31	2703.32
387.50	2729.06
387.70	2644.81
387.89	2565.23
388.09	2635.44
388.28	2628.42
388.48	2747.79
388.67	3101.21
388.86	3276.75
389.06	3356.33
389.25	3691.02
389.45	3688.68
389.64	3449.95
389.84	3585.70
390.03	3569.32
390.22	3468.67
390.42	3922.74
390.61	3995.29
390.81	4126.36
391.00	4257.43
391.19	4187.22
391.39	4065.51
391.58	3861.88
391.78	3618.47
391.97	3433.57
392.16	3103.55
392.36	2754.81
392.55	2157.97
392.75	1682.85
392.94	1378.58
393.13	1528.37
393.33	1919.24
393.52	2443.52
393.71	3023.97
393.91	3215.90
394.10	3665.28
394.29	4063.17
394.49	4248.07
394.68	4477.44
394.88	4662.35
395.07	4681.07
395.26	4688.09
395.46	4313.61
395.65	3974.23
395.84	3520.17
396.04	2745.45
396.23	2340.54
396.42	1844.34
396.62	2015.20
396.81	2464.58
397.00	3295.47
397.19	4060.83
397.39	4751.29
397.58	5270.89
397.77	5317.70
397.97	5699.20
398.16	5778.78
398.35	5970.71
398.55	6263.27
398.74	6506.69
398.93	6363.92
399.12	6387.32
399.32	6162.63
399.51	6399.02
399.70	6675.21
399.90	6715.00
400.09	6649.46
400.28	6548.82
400.47	6832.02
400.67	7042.67
400.86	7248.64
401.05	7447.58
401.24	7126.93
401.44	7382.05
401.63	7272.04
401.82	7304.81
402.01	7258.00
402.21	7384.39
402.40	7440.56
402.59	7136.29
402.78	6792.23
402.97	6810.96
403.17	7000.54
403.36	7454.61
403.55	7698.02
403.74	7679.30
403.93	7269.70
404.13	6682.23
404.32	6998.20
404.51	7253.32
404.70	7709.72
404.89	7520.14
405.09	7368.01
405.28	7192.47
405.47	7279.07
405.66	7157.36
405.85	6888.20
406.05	6832.02
406.24	7187.79
406.43	7365.67
406.62	7625.47
406.81	7620.78
407.00	7208.85
407.20	6995.86
407.39	7180.76
407.58	7845.48
407.77	7906.33
407.96	8273.79
408.15	8297.20
408.34	8432.95
408.54	8739.56
408.73	8636.58
408.92	8659.98
409.11	8442.31
409.30	7793.98
409.49	7447.58
409.68	6977.14
409.87	7056.72
410.07	7473.33
410.26	8042.08
410.45	8100.59
410.64	8634.24
410.83	8814.46
411.02	9034.47
411.21	9266.18
411.40	9048.51
411.59	9226.39
411.78	9231.07
411.98	9085.96
412.17	9268.52
412.36	9224.05
412.55	9069.58
412.74	9006.38
412.93	8638.92
413.12	8950.21
413.31	9769.40
413.50	9788.12
413.69	9755.35
413.88	9371.50
414.07	9275.54
414.26	9591.52
414.45	9619.60
414.64	9542.36
414.83	9631.30
415.02	9617.26
415.22	9586.83
415.41	9792.80
415.60	10139.20
415.79	10635.39
415.98	10689.23
416.17	10677.52
416.36	10190.69
416.55	10164.95
416.74	9767.06
416.93	9551.73
417.12	9561.09
417.31	9591.52
417.50	10019.83
417.69	10366.23
417.88	10115.80
418.07	10186.01
418.26	10129.84
418.45	10305.38
418.64	10654.12
418.83	10691.57
419.02	10560.50
419.21	10768.80
419.39	10076.01
419.58	9631.30
419.77	9935.57
419.96	10501.98
420.15	10827.32
420.34	10850.72
420.53	11276.70
420.72	11325.85
420.91	11096.48
421.10	11129.25
421.29	11314.15
421.48	10974.77
421.67	11176.06
421.86	10787.53
422.05	9905.15
422.24	8987.66
422.43	9619.60
422.61	10422.41
422.80	11274.36
422.99	10850.72
423.18	10497.30
423.37	10228.14
423.56	10649.44
423.75	10752.42
423.94	11005.20
424.13	10314.74
424.32	10157.92
424.50	10307.72
424.69	10387.30
424.88	10167.29
425.07	10424.75
425.26	10083.03
425.45	10022.17
425.64	9870.04
425.83	10036.22
426.01	10513.69
426.20	10661.14
426.39	10780.51
426.58	9823.23
426.77	9036.81
426.96	8929.14
427.15	9303.63
427.33	10153.24
427.52	10267.93
427.71	10520.71
427.90	10242.18
428.09	10033.88
428.28	9994.09
428.46	9511.94
428.65	9666.41
428.84	9678.12
429.03	9783.44
429.22	9238.09
429.40	8795.73
429.59	8088.89
429.78	7117.57
429.97	7330.56
430.16	7180.76
430.34	7316.51
430.53	7229.91
430.72	7845.48
430.91	8732.54
431.10	10319.42
431.28	11719.06
431.47	12512.50
431.66	12297.17
431.85	11033.29
432.03	10115.80
432.22	10153.24
432.41	10820.30
432.60	11985.88
432.79	12313.56
432.97	12428.24
433.16	11833.75
433.35	10506.66
433.54	9549.39
433.72	9217.03
433.91	9832.59
434.10	11087.12
434.28	11660.55
434.47	12058.44
434.66	11735.45
434.85	11871.20
435.03	11730.76
435.22	12037.38
435.41	12351.01
435.59	12746.56
435.78	12519.53
435.97	13057.85
436.16	13078.91
436.34	12688.04
436.53	12535.91
436.72	12978.27
436.90	11936.73
437.09	12100.57
437.28	11824.39
437.46	12210.57
437.65	12028.01
437.84	11089.46
438.02	10441.13
438.21	10661.14
438.40	10871.79
438.58	12173.13
438.77	12372.07
438.96	12428.24
439.14	13006.36
439.33	13177.22
439.52	13018.06
439.70	12830.82
439.89	12400.16
440.08	12329.94
440.26	12231.64
440.45	13228.71
440.63	13928.53
440.82	14370.89
441.01	14324.08
441.19	14122.79
441.38	14726.65
441.57	14871.76
441.75	14843.68
441.94	15037.94
442.12	15105.82
442.31	15126.88
442.50	15459.24
442.68	14719.63
442.87	14867.08
443.05	14700.90
443.24	15009.86
443.43	15477.96
443.61	15559.88
443.80	15318.81
443.98	14506.64
444.17	14707.93
444.35	15641.80
444.54	15917.98
444.73	15702.65
444.91	14616.65
445.10	14436.42
445.28	13500.21
445.47	13668.73
445.65	13687.45
445.84	14429.40
446.02	14778.14
446.21	15267.31
446.39	14745.38
446.58	14911.55
446.77	15405.41
446.95	15269.66
447.14	16093.52
447.32	16081.82
447.51	15473.28
447.69	15192.42
447.88	14951.34
448.06	15300.08
448.25	15719.04
448.43	15517.75
448.62	15459.24
448.80	15681.59
448.99	15536.48
449.17	15934.37
449.36	15763.51
449.54	16219.91
449.73	16510.14
449.91	16631.85
450.10	17200.60
450.28	17504.87
450.46	17453.37
450.65	17371.46
450.83	17319.96
451.02	16725.47
451.20	16556.95
451.39	16854.20
451.57	16718.45
451.76	16486.73
451.94	16081.82
452.13	16020.97
452.31	14995.81
452.49	14307.69
452.68	15009.86
452.86	14808.57
453.05	14958.36
453.23	16070.12
453.42	15761.17
453.60	16194.17
453.78	16240.98
453.97	15983.52
454.15	16100.55
454.34	15494.35
454.52	15754.15
454.70	15543.50
454.89	15660.52
455.07	15578.61
455.26	15985.86
455.44	16678.66
455.62	17057.82
455.81	16985.27
455.99	17053.14
456.17	16898.67
456.36	17130.38
456.54	17483.80
456.73	17455.72
456.91	17617.21
457.09	17921.48
457.28	18094.68
457.46	17378.48
457.64	16924.41
457.83	16685.68
458.01	16521.84
458.19	16652.91
458.38	17060.16
458.56	17504.87
458.74	17301.24
458.93	16957.18
459.11	16905.69
459.29	16620.14
459.48	16798.02
459.66	16835.47
459.84	17310.60
460.03	17401.88
460.21	17715.51
460.39	18228.09
460.57	17673.39
460.76	17781.05
460.94	17855.95
461.12	17549.34
461.31	17561.04
461.49	17860.63
461.67	17921.48
461.85	18380.23
462.04	18380.23
462.22	18380.23
462.40	18455.12
462.59	18647.05
462.77	18015.10
462.95	18181.28
463.13	17738.92
463.32	17610.19
463.50	17703.81
463.68	17563.38
463.86	17722.54
464.05	17366.78
464.23	17167.83
464.41	17224.00
464.59	16910.37
464.78	17792.75
464.96	17874.67
465.14	17591.47
465.32	18092.34
465.50	18349.80
465.69	18700.88
465.87	18298.31
466.05	17446.35
466.23	16493.76
466.41	16638.87
466.60	17095.27
466.78	17027.40
466.96	17675.73
467.14	17383.16
467.32	17558.70
467.51	17591.47
467.69	16884.62
467.87	17345.71
468.05	17860.63
468.23	17872.33
468.41	17771.69
468.60	17764.67
468.78	17727.22
468.96	17383.16
469.14	17951.91
469.32	18185.96
469.50	17116.34
469.69	17228.68
469.87	16889.31
470.05	17252.09
470.23	17191.23
470.41	17383.16
470.59	17214.64
470.77	17551.68
470.95	18305.33
471.14	18195.32
471.32	18335.76
471.50	19002.81
471.68	19325.80
471.86	19208.78
472.04	19157.28
472.22	19173.67
472.40	18537.04
472.58	17954.25
472.77	18272.56
472.95	18523.00
473.13	19176.01
473.31	18712.58
473.49	18504.28
473.67	18845.99
473.85	19124.52
474.03	19939.02
474.21	19711.99
474.39	20032.65
474.57	20170.74
474.75	19924.98
474.93	19693.27
475.12	19398.36
475.30	19339.85
475.48	19140.90
475.66	19445.17
475.84	19248.57
476.02	19384.32
476.20	18689.18
476.38	19372.61
476.56	20287.76
476.74	20299.47
476.92	20217.55
477.10	20299.47
477.28	21458.03
477.46	20975.88
477.64	20940.77
477.82	21441.65
478.00	22017.42
478.18	21163.12
478.36	21006.31
478.54	21198.23
478.72	21324.62
478.90	22511.27
479.08	22881.08
479.26	22808.52
479.44	22803.84
479.62	22541.70
479.80	22396.59
479.98	22963.00
480.16	23344.50
480.34	22309.99
480.52	23133.86
480.70	23578.56
480.88	23028.53
481.06	23683.88
481.24	23498.98
481.41	23833.68
481.59	24706.70
481.77	24446.90
481.95	24283.06
482.13	24374.34
482.31	24400.08
482.49	25006.28
482.67	24940.75
482.85	24805.00
483.03	25483.75
483.21	26050.16
483.39	25268.42
483.57	24741.80
483.74	24449.24
483.92	24774.57
484.10	25013.31
484.28	25469.71
484.46	25689.72
484.64	25355.02
484.82	25179.48
485.00	24854.15
485.18	24231.57
485.35	23152.58
485.53	21137.38
485.71	19627.73
485.89	19543.47
486.07	21153.76
486.25	22745.33
486.43	23707.29
486.61	24151.99
486.78	24587.33
486.96	24973.52
487.14	26141.44
487.32	25504.82
487.50	26925.52
487.68	27281.28
487.85	28205.80
488.03	28142.60
488.21	27784.50
488.39	26616.57
488.57	26192.94
488.75	26637.64
488.92	27843.01
489.10	29577.35
489.28	29832.47
489.46	30480.80
489.64	30134.40
489.81	30705.49
489.99	30588.46
490.17	30984.01
490.35	30920.82
490.53	29942.47
490.70	29811.40
490.88	29516.50
491.06	30885.71
491.24	30410.58
491.41	29060.09
491.59	27791.52
491.77	27342.14
491.95	28978.17
492.13	30162.48
492.30	30981.67
492.48	32191.73
492.66	32608.34
492.84	31611.28
493.01	31969.38
493.19	31239.13
493.37	31501.27
493.54	31683.83
493.72	33034.32
493.90	32734.73
494.08	33193.48
494.25	33706.05
494.43	33811.38
494.61	34373.11
494.79	34380.13
494.96	34089.90
495.14	33041.34
495.32	32428.12
495.49	32418.76
495.67	33406.47
495.85	35239.11
496.02	35487.20
496.20	34607.16
496.38	34078.20
496.55	34422.26
496.73	34670.36
496.91	35089.31
497.09	36095.74
497.26	35887.43
497.44	34637.59
497.62	34377.79
497.79	33811.38
497.97	32465.57
498.14	32961.76
498.32	34609.50
498.50	35353.79
498.67	35086.97
498.85	35927.22
499.03	35964.67
499.20	36378.95
499.38	36449.16
499.56	35988.08
499.73	35119.74
499.91	33886.28
500.08	33495.41
500.26	32673.88
500.44	33127.94
500.61	34440.98
500.79	34583.76
500.97	33050.70
501.14	33301.14
501.32	33078.79
501.49	34139.05
501.67	34096.92
501.84	33893.30
502.02	34457.37
502.20	34855.26
502.37	35316.34
502.55	35157.19
502.72	35538.69
502.90	36311.07
503.07	35934.24
503.25	34660.99
503.43	33748.18
503.60	33467.32
503.78	32893.89
503.95	34057.14
504.13	35648.70
504.30	36844.71
504.48	35838.28
504.65	35555.08
504.83	35534.01
505.01	36067.66
505.18	36144.89
505.36	37027.28
505.53	37853.48
505.71	38576.71
505.88	38597.77
506.06	37233.24
506.23	37916.68
506.41	36865.78
506.58	37071.75
506.76	36463.21
506.93	36540.44
507.11	35620.61
507.28	35763.39
507.46	35831.26
507.63	35281.24
507.81	34719.51
507.98	34588.44
508.16	36158.94
508.33	37516.45
508.50	37680.28
508.68	37621.77
508.85	38553.30
509.03	37846.46
509.20	37577.30
509.38	35871.05
509.55	36053.61
509.73	36928.97
509.90	36507.68
510.08	36189.36
510.25	36112.13
510.42	36027.87
510.60	37219.20
510.77	37846.46
510.95	38888.00
511.12	37886.25
511.30	39218.02
511.47	38249.03
511.64	38270.10
511.82	37521.13
511.99	36570.87
512.17	36877.48
512.34	36112.13
512.51	36676.19
512.69	35920.20
512.86	36154.26
513.04	37329.20
513.21	37319.84
513.38	35936.59
513.56	34728.87
513.73	34340.34
513.90	35222.72
514.08	34904.41
514.25	35775.09
514.43	35915.52
514.60	36093.40
514.77	35990.42
514.95	37635.81
515.12	36706.62
515.29	36290.01
515.47	37031.96
515.64	37855.82
515.81	37467.30
515.99	36093.40
516.16	33584.35
516.33	31063.59
516.51	30937.20
516.68	29408.83
516.85	28950.09
517.03	30127.38
517.20	33134.96
517.37	36503.00
517.54	36353.20
517.72	34740.57
517.89	32147.26
518.06	31456.80
518.24	31842.99
518.41	33184.12
518.58	35297.62
518.75	35974.03
518.93	35091.65
519.10	35735.30
519.27	35754.02
519.45	36613.00
519.62	36982.80
519.79	36648.11
519.96	37139.62
520.14	36392.99
520.31	34986.33
520.48	35314.00
520.65	36137.87
520.83	37584.32
521.00	37888.59
521.17	36704.28
521.34	37724.75
521.52	36769.82
521.69	37235.58
521.86	37542.19
522.03	37443.89
522.20	35833.60
522.38	35077.61
522.55	35566.78
522.72	35833.60
522.89	35721.26
523.07	35880.41
523.24	36442.14
523.41	37876.89
523.58	37874.55
523.75	38134.35
523.92	38581.39
524.10	38675.01
524.27	38672.67
524.44	38363.72
524.61	37785.61
524.78	37254.31
524.96	36627.04
525.13	36531.08
525.30	37766.88
525.47	38321.59
525.64	38663.31
525.81	36605.98
525.98	34593.12
526.16	34387.15
526.33	32121.51
526.50	31725.96
526.67	31604.25
526.84	32774.52
527.01	34377.79
527.18	35274.21
527.36	36868.12
527.53	36732.37
527.70	36474.91
527.87	35906.16
528.04	37015.57
528.21	37144.30
528.38	38660.97
528.55	39328.02
528.72	40032.52
528.89	39770.38
529.07	38761.61
529.24	36863.44
529.41	36582.57
529.58	36526.40
529.75	37024.93
529.92	38387.13
530.09	38328.61
530.26	38630.54
530.43	39290.57
530.60	38792.04
530.77	38836.51
530.94	38906.73
531.11	37460.27
531.28	37137.28
531.46	37247.29
531.63	36456.18
531.80	37048.34
531.97	35508.27
532.14	35026.12
532.31	33324.55
532.48	34660.99
532.65	34590.78
532.82	34763.98
532.99	37518.79
533.16	37502.40
533.33	37181.75
533.50	35644.02
533.67	36196.38
533.84	36727.69
534.01	36613.00
534.18	36645.77
534.35	37280.05
534.52	35927.22
534.69	37596.03
534.86	38117.96
535.03	37106.85
535.20	38122.65
535.37	38794.38
535.54	39077.58
535.71	38707.78
535.88	37844.12
536.05	36643.43
536.22	36790.88
536.38	36229.15
536.55	34843.56
536.72	34752.27
536.89	34696.10
537.06	35756.36
537.23	37514.11
537.40	37509.43
537.57	37968.17
537.74	37446.23
537.91	37333.89
538.08	36250.22
538.25	35590.19
538.42	37415.80
538.59	37165.37
538.75	35529.33
538.92	35309.32
539.09	35868.71
539.26	35747.00
539.43	35328.05
539.60	35377.20
539.77	36503.00
539.94	35496.56
540.11	33460.30
540.28	33727.12
540.44	33642.86
540.61	34855.26
540.78	35964.67
540.95	36423.42
541.12	36367.24
541.29	35803.17
541.46	36542.78
541.62	36811.95
541.79	37591.34
541.96	36339.16
542.13	34913.77
542.30	34686.74
542.47	35101.01
542.63	34773.34
542.80	35040.16
542.97	35615.93
543.14	34579.07
543.31	35283.58
543.48	35889.77
543.64	36505.34
543.81	37315.16
543.98	36781.52
544.15	35606.57
544.32	34862.28
544.48	35915.52
544.65	36685.56
544.82	37050.68
544.99	35742.32
545.16	35346.77
545.32	35491.88
545.49	37317.50
545.66	35978.72
545.83	35398.26
546.00	35079.95
546.16	35728.28
546.33	35634.66
546.50	34932.50
546.67	36697.26
546.83	35484.86
547.00	35136.12
547.17	34841.21
547.34	33593.71
547.50	34232.68
547.67	35005.05
547.84	35239.11
548.00	35379.54
548.17	36093.40
548.34	35695.51
548.51	35428.69
548.67	36362.56
548.84	36315.75
549.01	36725.35
549.18	35871.05
549.34	35302.30
549.51	35569.12
549.68	35931.90
549.84	35381.88
550.01	34569.71
550.18	35150.17
550.34	34866.96
550.51	34742.91
550.68	35117.40
550.84	35049.52
551.01	34520.56
551.18	34958.24
551.34	35377.20
551.51	34658.65
551.68	35393.58
551.84	35892.12
552.01	35512.95
552.18	35009.73
552.34	34909.09
552.51	34342.68
552.68	34995.69
552.84	35555.08
553.01	34855.26
553.18	34176.50
553.34	34593.12
553.51	35119.74
553.67	35229.74
553.84	34604.82
554.01	34824.83
554.17	34745.25
554.34	35353.79
554.51	34424.60
554.67	34431.62
554.84	35019.10
555.00	34941.86
555.17	34876.32
555.33	33897.98
555.50	34885.68
555.67	33830.10
555.83	33085.81
556.00	32292.37
556.16	33226.24
556.33	33041.34
556.50	34024.37
556.66	33757.55
556.83	33965.85
556.99	33186.46
557.16	33137.30
557.32	33722.44
557.49	34354.38
557.65	34230.33
557.82	34291.19
557.98	33970.54
558.15	33605.41
558.32	33184.12
558.48	31821.92
558.65	31765.75
558.81	31246.15
558.98	31405.31
559.14	32872.82
559.31	33373.70
559.47	32144.92
559.64	31166.57
559.80	30363.77
559.97	31548.08
560.13	32987.51
560.30	33333.91
560.46	34199.91
560.63	34693.76
560.79	35477.84
560.96	33146.67
561.12	31903.84
561.29	31632.34
561.45	30703.15
561.61	31445.10
561.78	31599.57
561.94	32046.62
562.11	32350.88
562.27	33092.83
562.44	33111.56
562.60	33284.76
562.77	33378.38
562.93	32870.48
563.10	32308.76
563.26	32243.22
563.42	32624.73
563.59	31414.67
563.75	31679.15
563.92	32140.24
564.08	32624.73
564.24	31814.90
564.41	31283.60
564.57	32713.67
564.74	32224.50
564.90	31482.55
565.07	31555.10
565.23	30600.16
565.39	30338.02
565.56	30520.59
565.72	30022.05
565.88	29879.28
566.05	31021.46
566.21	31519.99
566.38	30452.71
566.54	31543.40
566.70	31264.88
566.87	32460.89
567.03	31419.35
567.19	31098.70
567.36	31721.28
567.52	31208.70
567.68	31639.36
567.85	30356.75
568.01	29170.10
568.17	30012.69
568.34	31267.22
568.50	30593.14
568.66	31412.33
568.83	31117.42
568.99	30696.13
569.15	30820.17
569.32	31475.52
569.48	30792.09
569.64	29621.82
569.81	30705.49
569.97	30101.63
570.13	30560.37
570.30	30267.81
570.46	29539.90
570.62	28851.78
570.78	28807.31
570.95	29970.56
571.11	30490.16
571.27	30576.76
571.43	30078.22
571.60	30148.44
571.76	30686.76
571.92	30808.47
572.09	30110.99
572.25	30948.90
572.41	31777.45
572.57	32116.83
572.74	31793.84
572.90	30710.17
573.06	30515.90
573.22	29715.44
573.38	29369.04
573.55	29729.48
573.71	29090.52
573.87	29441.60
574.03	29869.92
574.20	30122.69
574.36	30426.96
574.52	31105.72
574.68	29343.30
574.84	28655.18
575.01	28704.33
575.17	28531.13
575.33	29104.56
575.49	28484.32
575.65	29659.27
575.82	29125.63
575.98	28723.05
576.14	28790.93
576.30	28697.31
576.46	28570.92
576.62	29764.59
576.79	29862.90
576.95	28978.17
577.11	28004.51
577.27	28919.66
577.43	29244.99
577.59	28648.16
577.75	28826.04
577.92	27634.71
578.08	27353.84
578.24	28100.47
578.40	27964.72
578.56	28346.23
578.72	28563.90
578.88	28409.42
579.04	28627.09
579.21	28247.93
579.37	28268.99
579.53	29500.11
579.69	29905.02
579.85	28816.68
580.01	28290.06
580.17	28030.26
580.33	28318.14
580.49	28540.49
580.65	27426.40
580.82	28088.77
580.98	28388.36
581.14	29160.73
581.30	28006.85
581.46	28624.75
581.62	28343.89
581.78	28142.60
581.94	28512.41
582.10	28926.68
582.26	28636.45
582.42	28840.08
582.58	28472.62
582.74	28594.32
582.90	28847.10
583.06	28627.09
583.22	28584.96
583.38	28407.08
583.54	28362.61
583.70	28676.24
583.86	28460.91
584.02	28954.77
584.18	28503.04
584.34	28844.76
584.50	28336.87
584.66	28453.89
584.82	27660.45
584.98	27784.50
585.14	27520.02
585.30	27463.85
585.46	26867.01
585.62	26902.12
585.78	27185.32
585.94	27473.21
586.10	26232.72
586.26	26918.50
586.42	27410.01
586.58	27419.38
586.74	27328.10
586.90	27311.71
587.06	28025.57
587.22	27641.73
587.38	26946.59
587.54	27077.66
587.70	25986.97
587.86	25942.50
588.02	25621.84
588.18	25710.78
588.34	24390.72
588.49	23192.37
588.65	22422.33
588.81	22782.77
588.97	22328.71
589.13	22572.13
589.29	22874.06
589.45	22925.55
589.61	23463.87
589.77	24636.48
589.93	24800.32
590.08	24662.22
590.24	25788.02
590.40	24687.97
590.56	24573.28
590.72	24964.15
590.88	25102.25
591.04	24650.52
591.20	24561.58
591.35	24301.78
591.51	24837.76
591.67	25764.62
591.83	24987.56
591.99	24711.38
592.15	25345.66
592.31	25303.53
592.46	24482.00
592.62	24957.13
592.78	25738.87
592.94	25589.08
593.10	25436.94
593.26	25692.06
593.41	24512.43
593.57	24210.50
593.73	24416.47
593.89	25186.50
594.05	25074.16
594.20	24301.78
594.36	24283.06
594.52	23749.42
594.68	23845.38
594.84	23850.06
594.99	24503.07
595.15	23583.24
595.31	24388.38
595.47	24781.59
595.62	25181.82
595.78	24812.02
595.94	25207.57
596.10	23379.61
596.25	23634.73
596.41	24774.57
596.57	25010.96
596.73	24271.36
596.88	25053.09
597.04	23983.47
597.20	23522.38
597.36	23496.64
597.51	24336.89
597.67	24077.09
597.83	23931.98
597.99	24109.86
598.14	23358.55
598.30	22937.25
598.46	22824.90
598.61	23789.20
598.77	23440.47
598.93	23758.78
599.09	23679.20
599.24	24741.80
599.40	23747.08
599.56	24105.18
599.71	23950.70
599.87	23665.16
600.03	22993.42
600.18	23241.52
600.34	22412.97
600.50	23466.21
600.65	23183.01
600.81	23133.86
600.97	23400.68
601.12	22883.42
601.28	22745.33
601.44	22838.95
601.59	23777.50
601.75	23007.47
601.91	22618.94
602.06	23311.74
602.22	23632.39
602.37	22995.76
602.53	23777.50
602.69	23845.38
602.84	23623.03
603.00	24004.53
603.16	23971.77
603.31	23810.27
603.47	23199.39
603.62	23599.62
603.78	23346.84
603.94	23012.15
604.09	23208.75
604.25	23859.42
604.40	23215.77
604.56	23941.34
604.71	24739.46
604.87	24718.40
605.03	23885.17
605.18	23833.68
605.34	23878.15
605.49	22862.35
605.65	23175.98
605.80	23115.13
605.96	23740.05
606.12	22925.55
606.27	23583.24
606.43	22691.49
606.58	22588.51
606.74	23159.60
606.89	23475.57
607.05	22925.55
607.20	22541.70
607.36	22480.85
607.51	22647.02
607.67	22478.50
607.82	22731.28
607.98	22274.88
608.13	22375.52
608.29	22164.87
608.44	22391.91
608.60	22457.44
608.75	21455.69
608.91	22059.55
609.06	22515.95
609.22	22977.04
609.37	22464.46
609.53	22750.01
609.68	21582.08
609.84	20861.19
609.99	21717.83
610.15	21071.84
610.30	21919.12
610.46	21752.94
610.61	22162.53
610.76	21792.73
610.92	21064.82
611.07	22267.86
611.23	21919.12
611.38	22464.46
611.54	22668.09
611.69	21734.21
611.84	22129.77
612.00	20933.75
612.15	21273.13
612.31	21483.78
612.46	21551.65
612.62	21722.51
612.77	21820.81
612.92	21914.44
613.08	20940.77
613.23	20334.57
613.39	20091.16
613.54	19857.10
613.69	20957.16
613.85	21729.53
614.00	21378.45
614.15	20589.69
614.31	21689.74
614.46	21142.06
614.62	20746.51
614.77	20290.10
614.92	20463.30
615.08	21146.74
615.23	19943.70
615.38	20458.62
615.54	20121.59
615.69	19484.96
615.84	19096.43
616.00	19623.05
616.15	19927.32
616.30	19506.02
616.46	19309.42
616.61	20072.43
616.76	20140.31
616.92	20255.00
617.07	20243.29
617.22	20608.42
617.37	20271.38
617.53	20290.10
617.68	20140.31
617.83	20203.50
617.99	20374.36
618.14	20645.87
618.29	20039.67
618.45	19845.40
618.60	20208.19
618.75	18899.83
618.90	19875.83
619.06	19145.58
619.21	19552.84
619.36	19817.32
619.51	19094.09
619.67	19398.36
619.82	20259.68
619.97	20931.41
620.12	20919.71
620.28	20842.47
620.43	21010.99
620.58	20011.58
620.73	20449.26
620.89	20222.23
621.04	18937.27
621.19	18485.55
621.34	18553.43
621.49	19176.01
621.65	19702.63
621.80	19903.92
621.95	19950.73
622.10	19023.87
622.25	18090.00
622.41	18363.84
622.56	18310.01
622.71	18377.89
622.86	17862.97
623.01	18239.79
623.16	18342.78
623.32	18258.52
623.47	18647.05
623.62	18778.12
623.77	18934.93
623.92	18422.36
624.07	18125.11
624.23	18251.50
624.38	18235.11
624.53	17254.43
624.68	17448.69
624.83	17451.03
624.98	17703.81
625.13	17841.90
625.29	18174.26
625.44	18164.90
625.59	17909.78
625.74	17444.01
625.89	18279.58
626.04	18225.75
626.19	18221.07
626.34	18171.92
626.49	17357.41
626.65	17572.74
626.80	17614.87
626.95	18370.86
627.10	18363.84
627.25	17687.43
627.40	17355.07
627.55	16491.41
627.70	16208.21
627.85	16334.60
628.00	17142.08
628.15	17090.59
628.30	17205.28
628.45	16954.84
628.60	16812.07
628.76	16652.91
628.91	17027.40
629.06	17160.81
629.21	18122.77
629.36	17111.66
629.51	16727.81
629.66	16126.29
629.81	15901.60
629.96	16613.12
630.11	16243.32
630.26	16500.78
630.41	16823.77
630.56	16283.11
630.71	16662.27
630.86	16044.37
631.01	16304.17
631.16	16575.67
631.31	15761.17
631.46	16016.29
631.61	16067.78
631.76	16297.15
631.91	16285.45
632.06	16182.46
632.21	16524.18
632.36	16170.76
632.51	15695.63
632.66	16201.19
632.81	16343.96
632.96	16418.86
633.10	16159.06
633.25	16465.67
633.40	15936.71
633.55	15620.74
633.70	15307.10
633.85	15854.79
634.00	16161.40
634.15	16264.38
634.30	15775.21
634.45	15740.10
634.60	15967.13
634.75	15557.54
634.90	16109.91
635.05	16601.42
635.19	16222.25
635.34	16353.32
635.49	15840.75
635.64	15690.95
635.79	15992.88
635.94	16561.63
636.09	17451.03
636.24	16617.80
636.39	16451.63
636.53	16826.11
636.68	16304.17
636.83	16266.72
636.98	16056.08
637.13	16175.44
637.28	16648.23
637.43	16924.41
637.57	16723.13
637.72	16346.30
637.87	16196.51
638.02	15496.69
638.17	15988.20
638.32	16746.53
638.46	16369.71
638.61	15609.03
638.76	16315.87
638.91	15779.89
639.06	15971.82
639.20	16063.10
639.35	15393.70
639.50	15407.75
639.65	15405.41
639.80	15283.70
639.94	15171.35
640.09	14970.07
640.24	14897.51
640.39	14972.41
640.54	14436.42
640.68	15030.92
640.83	14757.08
640.98	15421.79
641.13	15405.41
641.27	15644.14
641.42	15161.99
641.57	15082.41
641.72	15243.91
641.86	15112.84
642.01	15630.10
642.16	14911.55
642.31	14682.18
642.45	14738.35
642.60	14731.33
642.75	14335.78
642.90	14862.40
643.04	14787.50
643.19	13961.30
643.34	14267.91
643.48	14333.44
643.63	14295.99
643.78	14097.05
643.93	14157.90
644.07	14516.00
644.22	14717.29
644.37	14249.18
644.51	14167.26
644.66	14008.11
644.81	14520.68
644.95	14892.83
645.10	14277.27
645.25	13998.74
645.39	13476.80
645.54	13919.17
645.69	13603.19
645.83	13710.86
645.98	13830.23
646.13	13928.53
646.27	14036.19
646.42	13982.36
646.57	13689.79
646.71	13664.05
646.86	13867.67
647.00	13514.25
647.15	13568.09
647.30	13345.73
647.44	13296.58
647.59	13109.34
647.74	13188.92
647.88	12982.95
648.03	12968.91
648.17	13074.23
648.32	13062.53
648.47	13923.85
648.61	13699.16
648.76	13591.49
648.90	13219.35
649.05	12870.61
649.20	12629.53
649.34	12065.46
649.49	12400.16
649.63	12430.59
649.78	12678.68
649.92	12727.83
650.07	13657.03
650.21	13078.91
650.36	13146.79
650.51	13022.74
650.65	13923.85
650.80	13809.16
650.94	13348.08
651.09	13202.96
651.23	12812.09
651.38	12367.39
651.52	12725.49
651.67	12830.82
651.81	13444.04
651.96	13572.77
652.10	13085.94
652.25	13486.17
652.39	13317.65
652.54	13004.02
652.68	13312.97
652.83	13076.57
652.97	12800.39
653.12	12329.94
653.26	12664.64
653.41	12304.20
653.55	12664.64
653.70	12837.84
653.84	12601.44
653.99	13153.81
654.13	12456.33
654.27	12128.66
654.42	12638.89
654.56	12519.53
654.71	12250.36
654.85	12035.03
655.00	11826.73
655.14	11541.18
655.29	11531.82
655.43	11489.69
655.57	10794.55
655.72	10260.91
655.86	9678.12
656.01	9415.98
656.15	9619.60
656.30	10429.43
656.44	10490.28
656.58	10834.34
656.73	11119.89
656.87	11269.68
657.01	11527.14
657.16	11412.45
657.30	11688.64
657.45	11997.59
657.59	11716.72
657.73	11461.60
657.88	11896.94
658.02	11988.22
658.16	12006.95
658.31	11953.12
658.45	11836.09
658.60	11908.65
658.74	12830.82
658.88	12173.13
659.03	12039.72
659.17	11920.35
659.31	11733.11
659.46	11534.16
659.60	12046.74
659.74	11688.64
659.89	11910.99
660.03	12002.27
660.17	11833.75
660.32	11702.68
660.46	11700.34
660.60	11520.12
660.74	11723.74
660.89	11913.33
661.03	12203.55
661.17	12175.47
661.32	12519.53
661.46	12037.38
661.60	12081.85
661.74	11964.82
661.89	12229.30
662.03	11871.20
662.17	11227.55
662.31	11407.77
662.46	11815.02
662.60	11152.65
662.74	10572.20
662.88	10747.74
663.03	11087.12
663.17	11199.46
663.31	10726.68
663.45	11009.88
663.60	11232.23
663.74	10665.82
663.88	11321.17
664.02	11115.20
664.17	11073.07
664.31	10494.96
664.45	10438.79
664.59	11096.48
664.73	11585.65
664.88	11756.51
665.02	11875.88
665.16	11850.13
665.30	11943.75
665.44	11997.59
665.59	11555.22
665.73	10902.22
665.87	10934.98
666.01	10836.68
666.15	10733.70
666.29	10876.47
666.44	11433.52
666.58	10986.47
666.72	10927.96
666.86	11073.07
667.00	11119.89
667.14	10438.79
667.28	10595.61
667.43	10504.32
667.57	11105.84
667.71	11021.58
667.85	10995.84
667.99	11220.53
668.13	11154.99
668.27	10768.80
668.41	10846.04
668.56	10747.74
668.70	10745.40
668.84	11098.82
668.98	11000.52
669.12	10497.30
669.26	10218.78
669.40	9994.09
669.54	10242.18
669.68	9935.57
669.82	10279.63
669.96	10406.02
670.10	10319.42
670.25	10340.49
670.39	9823.23
670.53	9753.01
670.67	9937.91
670.81	9848.97
670.95	9856.00
671.09	9617.26
671.23	9621.94
671.37	9572.79
671.51	9195.96
671.65	9224.05
671.79	9507.26
671.93	10204.74
672.07	10052.60
672.21	9408.95
672.35	9476.83
672.49	9565.77
672.63	9444.06
672.77	9502.58
672.91	9509.60
673.05	9460.45
673.19	9217.03
673.33	9451.08
673.47	10153.24
673.61	9668.75
673.75	9397.25
673.89	9434.70
674.03	8891.70
674.17	9146.81
674.31	9270.86
674.45	9100.00
674.59	9605.56
674.73	9427.68
674.87	9247.46
675.01	8777.01
675.15	8882.33
675.29	9102.34
675.43	8580.40
675.56	8641.26
675.70	8814.46
675.84	8961.91
675.98	8592.11
676.12	8566.36
676.26	8283.16
676.40	8477.42
676.54	8571.04
676.68	8592.11
676.82	8341.67
676.96	8451.67
677.10	8367.42
677.23	8245.71
677.37	8369.76
677.51	8156.77
677.65	8236.35
677.79	7707.38
677.93	7971.86
678.07	7969.52
678.21	8465.72
678.34	8713.81
678.48	8615.51
678.62	8236.35
678.76	8461.04
678.90	8116.98
679.04	8376.78
679.18	8491.46
679.31	8217.62
679.45	7747.17
679.59	7922.71
679.73	8004.63
679.87	8006.97
680.00	7969.52
680.14	7983.57
680.28	8262.09
680.42	7894.63
680.56	7351.62
680.70	7412.48
680.83	7737.81
680.97	8262.09
681.11	7981.23
681.25	7838.45
681.39	7676.96
681.52	7681.64
681.66	7414.82
681.80	7246.30
681.94	7363.33
682.07	7641.85
682.21	7276.73
682.35	7871.22
682.49	7300.13
682.62	7253.32
682.76	7026.29
682.90	6698.61
683.04	6794.58
683.17	6799.26
683.31	6939.69
683.45	7288.43
683.59	6883.52
683.72	6895.22
683.86	6541.80
684.00	6195.40
684.13	6073.69
684.27	6420.09
684.41	6422.43
684.55	6724.36
684.68	6736.06
684.82	6902.24
684.96	6771.17
685.09	6614.35
685.23	6722.02
685.37	6399.02
685.50	6207.10
685.64	6668.19
685.78	6672.87
685.91	6789.89
686.05	6558.18
686.19	6286.68
686.32	5837.30
686.46	5224.08
686.60	4643.62
686.73	4028.06
686.87	3812.73
687.01	3878.27
687.14	4173.18
687.28	4486.81
687.42	5032.15
687.55	4950.23
687.69	5203.01
687.82	5186.63
687.96	5011.09
688.10	5160.88
688.23	5636.01
688.37	5441.75
688.50	5041.51
688.64	4961.94
688.78	5025.13
688.91	4971.30
689.05	4844.91
689.18	4868.31
689.32	4985.34
689.46	4891.72
689.59	4786.40
689.73	5104.71
689.86	4896.40
690.00	4606.17
690.13	4901.08
690.27	4865.97
690.41	4758.31
690.54	4837.89
690.68	4985.34
690.81	5149.18
690.95	5345.78
691.08	5373.87
691.22	5348.12
691.35	5153.86
691.49	5006.41
691.62	5050.88
691.76	5041.51
691.89	5057.90
692.03	4767.67
692.16	4788.74
692.30	4877.68
692.43	4840.23
692.57	4765.33
692.70	4723.20
692.84	4627.24
692.97	4784.06
693.11	4657.67
693.24	4615.54
693.38	4681.07
693.51	4657.67
693.65	4737.24
693.78	4383.82
693.92	4308.93
694.05	4400.21
694.19	4205.94
694.32	3946.14
694.45	4212.96
694.59	4332.33
694.72	4355.74
694.86	4358.08
694.99	4444.68
695.13	4468.08
695.26	4580.43
695.39	4519.57
695.53	4318.29
695.66	4519.57
695.80	4205.94
695.93	4325.31
696.07	4727.88
696.20	4968.96
696.33	4915.12
696.47	4833.21
696.60	4311.27
696.73	4404.89
696.87	4582.77
697.00	4461.06
697.14	4451.70
697.27	4524.26
697.40	4351.06
697.54	4353.40
697.67	4238.71
697.80	4259.78
697.94	4381.48
698.07	4381.48
698.21	4091.26
698.34	3985.93
698.47	3939.12
698.61	3920.40
698.74	4016.36
698.87	4060.83
699.01	4004.66
699.14	4100.62
699.27	4182.54
699.40	4156.79
699.54	4250.41
699.67	4140.41
699.80	3922.74
699.94	3765.92
700.07	3880.61
700.20	3693.37
700.34	3726.13
700.47	3639.53
700.60	3681.66
700.73	3571.66
700.87	3454.63
701.00	3595.06
701.13	3559.95
701.26	3454.63
701.40	3529.53
701.53	3353.99
701.66	3581.02
701.79	3513.14
701.93	3398.46
702.06	3424.20
702.19	3227.60
702.32	3183.13
702.46	3253.34
702.59	3400.80
702.72	3510.80
702.85	3501.44
702.99	3585.70
703.12	3578.68
703.25	3538.89
703.38	3424.20
703.51	3150.36
703.65	3302.50
703.78	3400.80
703.91	3508.46
704.04	3346.97
704.17	3187.81
704.31	3236.96
704.44	3375.05
704.57	3208.87
704.70	3255.69
704.83	3045.04
704.96	3316.54
705.10	3145.68
705.23	3101.21
>>>>>End Processed Spectral Data<<<<<
