SpectraSuite Data File
++++++++++++++++++++++++++++++++++++
Date: Mon Oct 07 14:54:59 GMT-05:00 2013
User: price-jones
Dark Spectrum Present: No
Reference Spectrum Present: No
Number of Sampled Component Spectra: 1
Spectrometers: USB2+H05261
Integration Time (usec): 10000 (USB2+H05261)
Spectra Averaged: 1 (USB2+H05261)
Boxcar Smoothing: 0 (USB2+H05261)
Correct for Electrical Dark: No (USB2+H05261)
Strobe/Lamp Enabled: No (USB2+H05261)
Correct for Detector Non-linearity: No (USB2+H05261)
Correct for Stray Light: No (USB2+H05261)
Number of Pixels in Processed Spectrum: 2048
>>>>>Begin Processed Spectral Data<<<<<
365.73	0.00
365.92	0.00
366.12	0.00
366.32	0.00
366.52	0.00
366.72	0.00
366.91	0.00
367.11	0.00
367.31	0.00
367.51	0.00
367.70	0.00
367.90	0.00
368.10	0.00
368.30	0.00
368.49	0.00
368.69	0.00
368.89	0.00
369.09	0.00
369.28	0.00
369.48	0.00
369.68	0.00
369.87	0.00
370.07	0.00
370.27	0.00
370.47	84.26
370.66	1472.20
370.86	1631.35
371.06	1870.09
371.25	1671.14
371.45	1551.78
371.65	1437.09
371.84	1320.06
372.04	1444.11
372.24	1659.44
372.44	1682.85
372.63	1584.54
372.83	1488.58
373.03	1188.99
373.22	1296.66
373.42	1387.94
373.62	1643.06
373.81	1638.38
374.01	1516.67
374.21	1301.34
374.40	1303.68
374.60	1397.30
374.79	1708.59
374.99	1996.48
375.19	2036.27
375.38	2080.74
375.58	1933.28
375.78	2054.99
375.97	1846.68
376.17	1982.43
376.37	1998.82
376.56	2062.01
376.76	2155.63
376.95	2359.26
377.15	2623.74
377.35	2733.75
377.54	2724.38
377.74	2750.13
377.93	2806.30
378.13	2691.62
378.33	2597.99
378.52	2335.85
378.72	2328.83
378.91	2216.49
379.11	2181.38
379.31	1991.80
379.50	2125.21
379.70	2214.15
379.89	2499.69
380.09	2602.68
380.28	2665.87
380.48	2806.30
380.68	2679.91
380.87	2502.03
381.07	2385.01
381.26	2209.47
381.46	1940.30
381.65	2008.18
381.85	1879.45
382.04	1734.34
382.24	1696.89
382.43	1643.06
382.63	1561.14
382.83	1610.29
383.02	1554.12
383.22	1650.08
383.41	1621.99
383.61	1778.81
383.80	2047.97
384.00	2452.88
384.19	2527.78
384.39	2696.30
384.58	2555.86
384.78	2705.66
384.97	2605.02
385.17	2417.77
385.36	2373.30
385.56	2303.09
385.75	2546.50
385.95	2527.78
386.14	2740.77
386.34	2818.00
386.53	2778.22
386.72	2506.71
386.92	2654.17
387.11	2782.90
387.31	2782.90
387.50	2712.68
387.70	2663.53
387.89	2738.43
388.09	2626.08
388.28	2588.63
388.48	2855.45
388.67	3119.93
388.86	3311.86
389.06	3475.70
389.25	3667.62
389.45	3721.45
389.64	3627.83
389.84	3510.80
390.03	3578.68
390.22	3658.26
390.42	3889.97
390.61	4098.28
390.81	4266.80
391.00	4205.94
391.19	4222.33
391.39	4079.55
391.58	3887.63
391.78	3569.32
391.97	3569.32
392.16	3328.24
392.36	2951.42
392.55	2218.83
392.75	1671.14
392.94	1366.87
393.13	1497.94
393.33	1888.81
393.52	2495.01
393.71	2958.44
393.91	3358.67
394.10	3641.87
394.29	4037.42
394.49	4231.69
394.68	4643.62
394.88	4601.49
395.07	4718.52
395.26	4645.96
395.46	4496.17
395.65	4163.81
395.84	3463.99
396.04	3014.61
396.23	2401.39
396.42	1984.77
396.62	2223.51
396.81	2516.08
397.00	3335.26
397.19	4081.89
397.39	4896.40
397.58	5324.72
397.77	5579.84
397.97	5823.25
398.16	5760.06
398.35	6169.65
398.55	6183.70
398.74	6466.90
398.93	6420.09
399.12	6417.75
399.32	6277.32
399.51	6462.22
399.70	6754.79
399.90	6689.25
400.09	6808.62
400.28	6623.72
400.47	6827.34
400.67	7035.65
400.86	7300.13
401.05	7328.22
401.24	7255.66
401.44	7288.43
401.63	7412.48
401.82	7559.93
402.01	7407.80
402.21	7382.05
402.40	7431.20
402.59	7302.47
402.78	6946.71
402.97	6850.75
403.17	7335.24
403.36	7445.24
403.55	7751.85
403.74	7857.18
403.93	7396.09
404.13	6864.79
404.32	7098.84
404.51	7513.12
404.70	7721.43
404.89	7536.52
405.09	7442.90
405.28	7286.09
405.47	7414.82
405.66	7379.71
405.85	7033.31
406.05	7054.37
406.24	7028.63
406.43	7473.33
406.62	7756.54
406.81	7723.77
407.00	7552.91
407.20	7194.81
407.39	7150.34
407.58	7756.54
407.77	8056.12
407.96	8383.80
408.15	8540.61
408.34	8423.59
408.54	8641.26
408.73	8727.86
408.92	8716.16
409.11	8402.52
409.30	7793.98
409.49	7531.84
409.68	7007.56
409.87	7096.50
410.07	7543.55
410.26	8191.88
410.45	8264.43
410.64	8491.46
410.83	8968.93
411.02	9100.00
411.21	9355.12
411.40	9060.21
411.59	9317.67
411.78	9282.56
411.98	9022.77
412.17	9352.78
412.36	9312.99
412.55	9078.94
412.74	9011.06
412.93	8840.20
413.12	9226.39
413.31	9860.68
413.50	9877.06
413.69	9738.97
413.88	9331.72
414.07	9202.99
414.26	9511.94
414.45	9778.76
414.64	9802.16
414.83	9727.27
415.02	9603.22
415.22	9706.20
415.41	9708.54
415.60	10188.35
415.79	10703.27
415.98	10817.96
416.17	10937.32
416.36	10562.84
416.55	10506.66
416.74	9823.23
416.93	9860.68
417.12	9640.67
417.31	9956.64
417.50	9799.82
417.69	10326.44
417.88	10335.81
418.07	10167.29
418.26	9942.60
418.45	10420.06
418.64	10824.98
418.83	11236.91
419.02	10544.11
419.21	10303.04
419.39	9994.09
419.58	9750.67
419.77	9816.21
419.96	10436.45
420.15	10817.96
420.34	11372.66
420.53	11417.13
420.72	11206.48
420.91	11337.56
421.10	11136.27
421.29	11431.18
421.48	11023.92
421.67	11220.53
421.86	10857.75
422.05	10377.94
422.24	9100.00
422.43	9530.66
422.61	10539.43
422.80	11171.38
422.99	11220.53
423.18	10548.79
423.37	10499.64
423.56	10583.90
423.75	10754.76
423.94	10764.12
424.13	10342.83
424.32	10118.14
424.50	10494.96
424.69	10530.07
424.88	10305.38
425.07	10361.55
425.26	10478.58
425.45	9951.96
425.64	9846.63
425.83	10120.48
426.01	10628.37
426.20	10817.96
426.39	10949.03
426.58	9872.38
426.77	9238.09
426.96	9160.86
427.15	9472.15
427.33	10352.19
427.52	10391.98
427.71	10574.54
427.90	10263.25
428.09	10289.00
428.28	9968.34
428.46	9865.36
428.65	9802.16
428.84	10003.45
429.03	10160.27
429.22	9500.23
429.40	8762.97
429.59	8044.42
429.78	7248.64
429.97	7377.37
430.16	7431.20
430.34	7246.30
430.53	7452.27
430.72	8009.31
430.91	8669.34
431.10	10324.10
431.28	11843.11
431.47	12526.55
431.66	12348.67
431.85	10981.79
432.03	10221.12
432.22	10242.18
432.41	11080.10
432.60	11793.96
432.79	12147.38
432.97	12329.94
433.16	12002.27
433.35	10616.67
433.54	9813.87
433.72	9430.02
433.91	9926.21
434.10	11199.46
434.28	11555.22
434.47	11850.13
434.66	11833.75
434.85	11901.62
435.03	11831.41
435.22	12042.06
435.41	12475.06
435.59	12776.98
435.78	12512.50
435.97	13345.73
436.16	13366.80
436.34	12973.59
436.53	12725.49
436.72	12795.71
436.90	12147.38
437.09	12084.19
437.28	12053.76
437.46	12503.14
437.65	12016.31
437.84	11112.86
438.02	10448.15
438.21	10930.30
438.40	10916.26
438.58	12182.49
438.77	12383.77
438.96	12287.81
439.14	13289.56
439.33	13254.45
439.52	13317.65
439.70	13060.19
439.89	12299.52
440.08	12531.23
440.26	12699.75
440.45	13224.03
440.63	14038.53
440.82	14712.61
441.01	14258.54
441.19	14209.39
441.38	14684.52
441.57	15009.86
441.75	14934.96
441.94	15096.46
442.12	15325.83
442.31	15255.61
442.50	15728.40
442.68	14689.20
442.87	14740.69
443.05	14949.00
443.24	15180.71
443.43	15428.81
443.61	15477.96
443.80	15597.33
443.98	14864.74
444.17	14815.59
444.35	15655.84
444.54	15903.94
444.73	15798.62
444.91	14864.74
445.10	14473.87
445.28	13795.12
445.47	13439.36
445.65	13862.99
445.84	14431.74
446.02	14717.29
446.21	15206.46
446.39	14991.13
446.58	15346.89
446.77	15449.88
446.95	15700.31
447.14	15976.50
447.32	16168.42
447.51	15449.88
447.69	14977.09
447.88	15414.77
448.06	15744.78
448.25	15798.62
448.43	15805.64
448.62	15651.16
448.80	15463.92
448.99	15723.72
449.17	15815.00
449.36	15939.05
449.54	16320.56
449.73	16772.28
449.91	16772.28
450.10	17294.22
450.28	17706.15
450.46	17174.85
450.65	17027.40
450.83	17376.14
451.02	16727.81
451.20	16666.95
451.39	17048.46
451.57	16814.41
451.76	16748.87
451.94	16402.47
452.13	16280.77
452.31	15215.82
452.49	14455.15
452.68	15009.86
452.86	14864.74
453.05	15358.60
453.23	16121.61
453.42	16341.62
453.60	16009.26
453.78	16336.94
453.97	16222.25
454.15	16365.03
454.34	15602.01
454.52	15920.32
454.70	15847.77
454.89	15836.06
455.07	15950.75
455.26	16226.93
455.44	17071.87
455.62	17568.06
455.81	17102.29
455.99	17348.05
456.17	16980.59
456.36	17425.29
456.54	17797.43
456.73	17460.40
456.91	17755.30
457.09	17867.65
457.28	18265.54
457.46	17369.12
457.64	17003.99
457.83	16751.21
458.01	16425.88
458.19	16933.78
458.38	17111.66
458.56	17518.91
458.74	17539.97
458.93	17198.26
459.11	17060.16
459.29	16868.24
459.48	17151.45
459.66	17062.51
459.84	17156.13
460.03	17624.23
460.21	17654.66
460.39	18127.45
460.57	18221.07
460.76	18167.24
460.94	17961.27
461.12	18043.19
461.31	17872.33
461.49	18036.17
461.67	17921.48
461.85	18265.54
462.04	18352.14
462.22	18647.05
462.40	18537.04
462.59	18387.25
462.77	18230.43
462.95	18455.12
463.13	17689.77
463.32	17771.69
463.50	18082.98
463.68	17919.14
463.86	17900.42
464.05	17451.03
464.23	17270.81
464.41	17205.28
464.59	17221.66
464.78	17736.58
464.96	18024.47
465.14	17610.19
465.32	17928.50
465.50	18602.58
465.69	18658.75
465.87	18328.74
466.05	17781.05
466.23	16933.78
466.41	16563.97
466.60	17504.87
466.78	17167.83
466.96	17425.29
467.14	17731.90
467.32	17736.58
467.51	17565.72
467.69	17029.74
467.87	17523.59
468.05	17757.64
468.23	17844.24
468.41	18195.32
468.60	18073.62
468.78	17937.87
468.96	17771.69
469.14	18384.91
469.32	18410.65
469.50	17142.08
469.69	17050.80
469.87	17036.76
470.05	17322.30
470.23	17364.43
470.41	17303.58
470.59	17076.55
470.77	17898.08
470.95	18150.85
471.14	18235.11
471.32	18279.58
471.50	19056.64
471.68	19351.55
471.86	19381.98
472.04	19754.12
472.22	19211.12
472.40	18483.21
472.58	18200.01
472.77	18560.45
472.95	18476.19
473.13	19424.11
473.31	18663.43
473.49	18911.53
473.67	19042.60
473.85	19309.42
474.03	19992.86
474.21	19915.62
474.39	20381.38
474.57	20095.84
474.75	20334.57
474.93	20039.67
475.12	19475.60
475.30	19491.98
475.48	19351.55
475.66	19538.79
475.84	19440.49
476.02	19583.26
476.20	19007.49
476.38	19814.98
476.56	20428.20
476.74	20624.80
476.92	20566.29
477.10	20673.95
477.28	21832.52
477.46	21090.57
477.64	21273.13
477.82	21757.62
478.00	22040.82
478.18	21308.24
478.36	21252.06
478.54	21771.66
478.72	21991.67
478.90	22511.27
479.08	22995.76
479.26	22843.63
479.44	22728.94
479.62	22766.39
479.80	22682.13
479.98	23138.54
480.16	23417.06
480.34	22462.12
480.52	23278.97
480.70	23590.26
480.88	23166.62
481.06	23917.93
481.24	23449.83
481.41	24386.04
481.59	24648.18
481.77	24636.48
481.95	24678.61
482.13	24301.78
482.31	24444.56
482.49	25633.55
482.67	25041.39
482.85	25249.70
483.03	25993.99
483.21	25830.15
483.39	25420.56
483.57	24549.88
483.74	24510.09
483.92	24767.55
484.10	25111.61
484.28	25553.97
484.46	25591.42
484.64	25495.46
484.82	25350.34
485.00	24797.98
485.18	24400.08
485.35	23407.70
485.53	21289.51
485.71	19456.87
485.89	20063.07
486.07	21057.80
486.25	23070.66
486.43	24095.82
486.61	24189.44
486.78	24575.62
486.96	25142.03
487.14	26024.42
487.32	26253.79
487.50	26855.31
487.68	27276.60
487.85	28219.84
488.03	28416.44
488.21	28091.11
488.39	27297.67
488.57	26356.77
488.75	27016.80
488.92	28325.16
489.10	30059.50
489.28	30260.79
489.46	30724.21
489.64	30630.59
489.81	30852.94
489.99	30312.28
490.17	31108.06
490.35	31204.02
490.53	30085.25
490.70	29797.36
490.88	29717.78
491.06	31103.38
491.24	30354.41
491.41	29104.56
491.59	27896.85
491.77	27590.24
491.95	29296.49
492.13	30958.27
492.30	31381.90
492.48	32355.57
492.66	32479.61
492.84	31505.95
493.01	31859.37
493.19	31793.84
493.37	31519.99
493.54	31503.61
493.72	32980.49
493.90	32835.38
494.08	33041.34
494.25	34223.31
494.43	33785.63
494.61	34206.93
494.79	34422.26
494.96	33874.57
495.14	32687.92
495.32	32627.07
495.49	32725.37
495.67	33530.51
495.85	35548.06
496.02	35543.38
496.20	35082.29
496.38	34499.50
496.55	34677.38
496.73	35098.67
496.91	35140.80
497.09	36074.68
497.26	36170.64
497.44	35449.75
497.62	34499.50
497.79	34148.42
497.97	32943.04
498.14	33333.91
498.32	35274.21
498.50	35344.43
498.67	35316.34
498.85	36128.51
499.03	35861.69
499.20	36374.27
499.38	36187.02
499.56	36020.84
499.73	34939.52
499.91	33993.94
500.08	33362.00
500.26	32872.82
500.44	33914.36
500.61	34876.32
500.79	34747.59
500.97	33202.84
501.14	33474.34
501.32	33413.49
501.49	33876.91
501.67	34134.37
501.84	34754.61
502.02	35007.39
502.20	35260.17
502.37	35803.17
502.55	35775.09
502.72	35840.62
502.90	36360.22
503.07	36093.40
503.25	34700.78
503.43	33912.02
503.60	33745.84
503.78	33132.62
503.95	34890.37
504.13	36292.35
504.30	37081.11
504.48	36128.51
504.65	35770.41
504.83	35629.98
505.01	36601.30
505.18	36172.98
505.36	36926.63
505.53	37584.32
505.71	38349.68
505.88	38983.96
506.06	37806.67
506.23	37670.92
506.41	36849.39
506.58	37682.62
506.76	37095.15
506.93	36708.96
507.11	36142.55
507.28	36226.81
507.46	36369.58
507.63	35557.42
507.81	35044.84
507.98	35330.39
508.16	36566.19
508.33	37673.26
508.50	37565.60
508.68	37799.65
508.85	38756.93
509.03	38621.18
509.20	37729.44
509.38	36224.47
509.55	36500.65
509.73	37090.47
509.90	37067.06
510.08	36617.68
510.25	36622.36
510.42	35892.12
510.60	37134.94
510.77	38043.07
510.95	39000.35
511.12	38347.34
511.30	39445.05
511.47	38368.40
511.64	38431.60
511.82	38122.65
511.99	36746.41
512.17	37156.00
512.34	37160.69
512.51	36334.48
512.69	36070.00
512.86	36051.27
513.04	37647.52
513.21	37008.55
513.38	36285.33
513.56	34497.16
513.73	34216.29
513.90	35646.36
514.08	35402.94
514.25	36240.86
514.43	36282.98
514.60	35828.92
514.77	36020.84
514.95	37270.69
515.12	36713.64
515.29	36514.70
515.47	37322.18
515.64	38017.32
515.81	37872.21
515.99	36203.41
516.16	34026.71
516.33	31267.22
516.51	30494.84
516.68	29500.11
516.85	29546.92
517.03	30246.74
517.20	33837.12
517.37	36257.24
517.54	36676.19
517.72	35145.48
517.89	32418.76
518.06	31058.91
518.24	31847.67
518.41	33301.14
518.58	35552.74
518.75	36175.32
518.93	35386.56
519.10	35620.61
519.27	35400.60
519.45	36823.65
519.62	37013.23
519.79	36856.42
519.96	37317.50
520.14	36346.18
520.31	35227.40
520.48	35637.00
520.65	36121.49
520.83	37759.86
521.00	37755.18
521.17	37053.02
521.34	37605.39
521.52	37406.44
521.69	37610.07
521.86	38316.91
522.03	37467.30
522.20	35976.37
522.38	34902.07
522.55	35894.46
522.72	36381.29
522.89	35278.89
523.07	36376.61
523.24	36252.56
523.41	37727.10
523.58	37708.37
523.75	38225.63
523.92	39033.11
524.10	38387.13
524.27	38841.19
524.44	38553.30
524.61	37907.32
524.78	37322.18
524.96	36898.55
525.13	36713.64
525.30	37977.53
525.47	38756.93
525.64	38529.90
525.81	36650.45
525.98	35276.55
526.16	34101.61
526.33	32662.18
526.50	31686.17
526.67	31215.72
526.84	32772.18
527.01	34967.60
527.18	35859.35
527.36	37118.56
527.53	36641.09
527.70	36933.65
527.87	35576.14
528.04	36875.14
528.21	37092.81
528.38	38614.16
528.55	39583.14
528.72	39964.65
528.89	39842.94
529.07	39086.95
529.24	36912.59
529.41	36903.23
529.58	36620.02
529.75	37425.17
529.92	38139.03
530.09	38700.76
530.26	38988.64
530.43	39419.30
530.60	38986.30
530.77	38932.47
530.94	39409.94
531.11	38160.09
531.28	37647.52
531.46	37303.46
531.63	37378.36
531.80	36617.68
531.97	36252.56
532.14	34911.43
532.31	33837.12
532.48	35213.36
532.65	34553.33
532.82	35290.60
532.99	37827.74
533.16	37502.40
533.33	37275.37
533.50	35693.17
533.67	36006.80
533.84	36690.24
534.01	36706.62
534.18	36395.33
534.35	37350.27
534.52	36760.45
534.69	38132.01
534.86	38054.77
535.03	37354.95
535.20	38546.28
535.37	39274.19
535.54	38848.21
535.71	39058.86
535.88	38162.43
536.05	36758.11
536.22	36924.29
536.38	36334.48
536.55	34426.94
536.72	34651.63
536.89	35442.73
537.06	35505.93
537.23	37996.26
537.40	37757.52
537.57	37579.64
537.74	37563.26
537.91	37331.54
538.08	36128.51
538.25	36002.12
538.42	37024.93
538.59	36699.60
538.75	35562.10
538.92	35412.31
539.09	36238.51
539.26	36100.42
539.43	35424.01
539.60	35358.47
539.77	36657.47
539.94	35791.47
540.11	33930.75
540.28	33535.20
540.44	32910.27
540.61	34607.16
540.78	36067.66
540.95	36762.79
541.12	36191.70
541.29	36250.22
541.46	36517.04
541.62	36921.95
541.79	37539.85
541.96	36451.50
542.13	35037.82
542.30	35269.53
542.47	35543.38
542.63	35723.60
542.80	34976.97
542.97	35807.86
543.14	34698.44
543.31	35735.30
543.48	36030.21
543.64	36563.85
543.81	37336.23
543.98	37214.52
544.15	35625.29
544.32	35101.01
544.48	36266.60
544.65	37003.87
544.82	36992.17
544.99	35922.54
545.16	35489.54
545.32	35686.15
545.49	37560.92
545.66	35777.43
545.83	35239.11
546.00	35526.99
546.16	35250.81
546.33	35784.45
546.50	35049.52
546.67	36631.72
546.83	35449.75
547.00	34934.84
547.17	34698.44
547.34	33762.23
547.50	34635.25
547.67	35154.85
547.84	35260.17
548.00	36112.13
548.17	35817.22
548.34	35211.02
548.51	35716.58
548.67	36297.03
548.84	36048.93
549.01	36561.51
549.18	35857.01
549.34	35534.01
549.51	35592.53
549.68	36149.57
549.84	35817.22
550.01	35014.41
550.18	35622.95
550.34	34803.77
550.51	34714.83
550.68	35452.09
550.84	35185.27
551.01	34752.27
551.18	35026.12
551.34	36018.50
551.51	34953.56
551.68	35576.14
551.84	36538.10
552.01	36105.10
552.18	35351.45
552.34	34962.92
552.51	34672.70
552.68	35215.70
552.84	35470.82
553.01	34738.23
553.18	34534.60
553.34	34501.84
553.51	35503.59
553.67	35344.43
553.84	34586.10
554.01	34892.71
554.17	34775.68
554.34	35379.54
554.51	34904.41
554.67	34967.60
554.84	35218.04
555.00	35007.39
555.17	34719.51
555.33	34270.12
555.50	35218.04
555.67	33652.22
555.83	33479.02
556.00	32374.29
556.16	33270.72
556.33	32664.52
556.50	33996.28
556.66	34216.29
556.83	34263.10
556.99	33717.76
557.16	33525.83
557.32	34071.18
557.49	34448.00
557.65	34635.25
557.82	34792.06
557.98	34249.06
558.15	33865.21
558.32	33490.73
558.48	32142.58
558.65	31796.18
558.81	30803.79
558.98	31445.10
559.14	32861.12
559.31	33291.78
559.47	32629.41
559.64	31519.99
559.80	30429.30
559.97	32023.21
560.13	33392.42
560.30	33221.56
560.46	34316.93
560.63	35077.61
560.79	35459.12
560.96	33291.78
561.12	31700.22
561.29	31906.18
561.45	31182.96
561.61	31318.71
561.78	32072.36
561.94	32774.52
562.11	32596.64
562.27	33158.37
562.44	32947.72
562.60	33455.62
562.77	33654.56
562.93	33017.94
563.10	32507.70
563.26	32552.17
563.42	32350.88
563.59	31850.01
563.75	31681.49
563.92	32285.35
564.08	32304.07
564.24	32020.87
564.41	31660.43
564.57	32781.54
564.74	31990.44
564.90	31557.44
565.07	31147.85
565.23	30565.06
565.39	30277.17
565.56	30632.93
565.72	30286.53
565.88	30050.14
566.05	30932.52
566.21	31864.05
566.38	30827.20
566.54	31398.29
566.70	31674.47
566.87	32034.91
567.03	31339.77
567.19	30984.01
567.36	31700.22
567.52	30951.24
567.68	31363.18
567.85	30316.96
568.01	28943.06
568.17	30213.98
568.34	30848.26
568.50	31337.43
568.66	31805.54
568.83	31302.32
568.99	30923.16
569.15	30923.16
569.32	31328.07
569.48	30370.79
569.64	29940.13
569.81	30789.75
569.97	30625.91
570.13	30494.84
570.30	29888.64
570.46	29586.71
570.62	28952.43
570.78	29125.63
570.95	30094.61
571.11	30202.27
571.27	30433.99
571.43	30705.49
571.60	29963.54
571.76	30487.82
571.92	30228.02
572.09	30132.06
572.25	31042.53
572.41	32114.49
572.57	32107.47
572.74	32151.94
572.90	30822.51
573.06	30480.80
573.22	29780.98
573.38	29647.57
573.55	29947.15
573.71	29177.12
573.87	29713.10
574.03	29956.52
574.20	30291.21
574.36	30490.16
574.52	30934.86
574.68	29539.90
574.84	28819.02
575.01	28790.93
575.17	28844.76
575.33	29298.83
575.49	29013.28
575.65	29212.23
575.82	28996.90
575.98	28379.00
576.14	28823.70
576.30	28760.50
576.46	29142.01
576.62	29921.41
576.79	29647.57
576.95	28938.38
577.11	27852.38
577.27	29062.43
577.43	29221.59
577.59	28631.77
577.75	28631.77
577.92	27674.49
578.08	27623.00
578.24	28170.69
578.40	28194.09
578.56	28364.95
578.72	28421.13
578.88	28535.81
579.04	28982.85
579.21	28643.48
579.37	28687.95
579.53	29790.34
579.69	30108.65
579.85	28919.66
580.01	28774.55
580.17	27936.63
580.33	28573.26
580.49	28610.71
580.65	27700.24
580.82	28170.69
580.98	28065.36
581.14	28781.57
581.30	28180.05
581.46	28479.64
581.62	28615.39
581.78	28308.78
581.94	28931.36
582.10	29219.25
582.26	29163.08
582.42	29156.05
582.58	28603.69
582.74	28903.28
582.90	28971.15
583.06	29127.97
583.22	28542.83
583.38	29200.52
583.54	28390.70
583.70	28826.04
583.86	28418.78
584.02	28933.70
584.18	28435.17
584.34	29069.45
584.50	28140.26
584.66	27857.06
584.82	27747.05
584.98	28130.90
585.14	27344.48
585.30	26883.39
585.46	27264.90
585.62	27138.51
585.78	27365.54
585.94	27339.80
586.10	26548.70
586.26	26801.47
586.42	27686.20
586.58	27182.98
586.74	27770.46
586.90	27779.82
587.06	27824.29
587.22	27770.46
587.38	27372.57
587.54	26958.29
587.70	26710.19
587.86	25532.90
588.02	25703.76
588.18	25776.32
588.34	24477.32
588.49	23115.13
588.65	22185.94
588.81	22946.61
588.97	22192.96
589.13	22927.89
589.29	22616.60
589.45	23077.68
589.61	23480.25
589.77	24973.52
589.93	24828.40
590.08	24751.17
590.24	25607.80
590.40	24996.92
590.56	25303.53
590.72	25062.46
590.88	24781.59
591.04	24814.36
591.20	24907.98
591.35	24870.53
591.51	24940.75
591.67	25954.20
591.83	24926.71
591.99	24863.51
592.15	25495.46
592.31	25294.17
592.46	24418.81
592.62	25476.73
592.78	25647.59
592.94	25518.86
593.10	25420.56
593.26	25802.07
593.41	24772.23
593.57	24727.76
593.73	24816.70
593.89	24692.65
594.05	24795.64
594.20	24697.33
594.36	24542.86
594.52	23941.34
594.68	23920.28
594.84	23852.40
594.99	24554.56
595.15	23747.08
595.31	23915.59
595.47	25340.98
595.62	25020.33
595.78	24549.88
595.94	25453.33
596.10	23522.38
596.25	23908.57
596.41	24294.76
596.57	25090.54
596.73	24563.92
596.88	24919.68
597.04	23782.18
597.20	23592.60
597.36	23569.19
597.51	24467.96
597.67	23941.34
597.83	23990.49
597.99	24079.43
598.14	23728.35
598.30	23063.64
598.46	23140.88
598.61	23857.08
598.77	23814.95
598.93	23571.54
599.09	23646.43
599.24	25053.09
599.40	23606.64
599.56	24013.90
599.71	24191.78
599.87	23733.03
600.03	23229.82
600.18	23185.35
600.34	22625.96
600.50	23206.41
600.65	23616.01
600.81	23477.91
600.97	23405.36
601.12	23033.21
601.28	22319.35
601.44	22995.76
601.59	23665.16
601.75	22586.17
601.91	22883.42
602.06	23414.72
602.22	23091.73
602.37	23190.03
602.53	23861.76
602.69	23665.16
602.84	23850.06
603.00	24004.53
603.16	24219.86
603.31	23749.42
603.47	23094.07
603.62	23477.91
603.78	23721.33
603.94	22829.59
604.09	23267.27
604.25	23735.37
604.40	23459.19
604.56	23929.64
604.71	24849.47
604.87	24526.47
605.03	24121.56
605.18	23606.64
605.34	23690.90
605.49	22518.29
605.65	23400.68
605.80	23019.17
605.96	23569.19
606.12	23234.50
606.27	23494.30
606.43	22895.12
606.58	22771.07
606.74	23117.47
606.89	23267.27
607.05	23302.37
607.20	22050.19
607.36	22647.02
607.51	23014.49
607.67	22623.62
607.82	22623.62
607.98	21954.22
608.13	22291.26
608.29	22752.35
608.44	22279.56
608.60	22532.34
608.75	21542.29
608.91	21956.57
609.06	22824.90
609.22	23042.57
609.37	22588.51
609.53	22611.92
609.68	21607.83
609.84	20865.88
609.99	21799.75
610.15	21174.83
610.30	21886.35
610.46	22005.72
610.61	21671.02
610.76	21834.86
610.92	21043.76
611.07	22462.12
611.23	22307.65
611.38	22544.04
611.54	22766.39
611.69	22038.48
611.84	21935.50
612.00	21118.65
612.15	21111.63
612.31	21544.63
612.46	21158.44
612.62	21898.05
612.77	21867.63
612.92	21701.45
613.08	21273.13
613.23	20287.76
613.39	19594.96
613.54	19859.45
613.69	20566.29
613.85	21692.08
614.00	21254.40
614.15	20868.22
614.31	21675.70
614.46	21549.31
614.62	20531.18
614.77	19939.02
614.92	20383.73
615.08	20767.57
615.23	19983.49
615.38	20135.63
615.54	20360.32
615.69	19351.55
615.84	19257.93
616.00	19625.39
616.15	20065.41
616.30	19447.51
616.46	19433.47
616.61	20025.62
616.76	20070.09
616.92	20369.68
617.07	20589.69
617.22	20484.37
617.37	20559.27
617.53	19922.64
617.68	19878.17
617.83	20409.47
617.99	20477.35
618.14	20388.41
618.29	20119.24
618.45	19906.26
618.60	19953.07
618.75	19599.65
618.90	19894.55
619.06	19456.87
619.21	19824.34
619.36	20091.16
619.51	19309.42
619.67	19239.20
619.82	20276.06
619.97	20964.18
620.12	20982.90
620.28	20786.30
620.43	21144.40
620.58	20198.82
620.73	20559.27
620.89	19962.43
621.04	19190.05
621.19	18546.40
621.34	18487.89
621.49	19115.16
621.65	19372.61
621.80	20009.24
621.95	19864.13
622.10	19185.37
622.25	18333.42
622.41	18370.86
622.56	18394.27
622.71	18436.40
622.86	17734.24
623.01	18480.87
623.16	18307.67
623.32	18361.50
623.47	18523.00
623.62	18853.02
623.77	19028.56
623.92	18494.91
624.07	18197.67
624.23	18420.02
624.38	18022.12
624.53	17488.48
624.68	17336.35
624.83	17521.25
624.98	17750.62
625.13	17425.29
625.29	17867.65
625.44	18078.30
625.59	18153.20
625.74	17640.62
625.89	18544.06
626.04	18237.45
626.19	18401.29
626.34	18008.08
626.49	17277.83
626.65	17666.36
626.80	17825.52
626.95	18228.09
627.10	18394.27
627.25	17846.58
627.40	17177.19
627.55	16512.48
627.70	16184.80
627.85	16648.23
628.00	16964.20
628.15	17041.44
628.30	17413.59
628.45	17303.58
628.60	16826.11
628.76	16776.96
628.91	16968.88
629.06	17097.61
629.21	18354.48
629.36	16828.45
629.51	16814.41
629.66	16215.23
629.81	15992.88
629.96	16568.65
630.11	16409.50
630.26	16533.54
630.41	16594.40
630.56	16517.16
630.71	16416.52
630.86	16058.42
631.01	16468.01
631.16	16315.87
631.31	16105.23
631.46	16091.18
631.61	16133.31
631.76	16044.37
631.91	16561.63
632.06	16262.04
632.21	16751.21
632.36	16152.04
632.51	16009.26
632.66	16613.12
632.81	16173.10
632.96	16177.78
633.10	16205.87
633.25	16329.92
633.40	15936.71
633.55	15304.76
633.70	15655.84
633.85	15585.63
634.00	15770.53
634.15	16255.02
634.30	15503.71
634.45	15712.02
634.60	15913.30
634.75	15627.76
634.90	16105.23
635.05	16837.81
635.19	16170.76
635.34	16112.25
635.49	15648.82
635.64	15733.08
635.79	15948.41
635.94	16526.52
636.09	17322.30
636.24	16755.90
636.39	16219.91
636.53	16404.81
636.68	16472.69
636.83	16294.81
636.98	16311.19
637.13	16449.28
637.28	16688.02
637.43	17078.89
637.57	17029.74
637.72	16056.08
637.87	16114.59
638.02	15676.91
638.17	15866.49
638.32	16807.39
638.46	16456.31
638.61	15934.37
638.76	16095.86
638.91	16051.39
639.06	15840.75
639.20	15763.51
639.35	15644.14
639.50	15089.43
639.65	15400.72
639.80	15061.35
639.94	15143.27
640.09	15573.92
640.24	14934.96
640.39	14630.69
640.54	14490.26
640.68	14820.27
640.83	14621.33
640.98	15133.90
641.13	15367.96
641.27	15634.78
641.42	15119.86
641.57	15103.48
641.72	15115.18
641.86	15407.75
642.01	15632.44
642.16	15246.25
642.31	15075.39
642.45	14710.27
642.60	14916.23
642.75	14342.80
642.90	14862.40
643.04	14551.11
643.19	14136.84
643.34	14380.25
643.48	14471.53
643.63	14347.48
643.78	14176.62
643.93	13914.48
644.07	14424.72
644.22	14871.76
644.37	14473.87
644.51	14300.67
644.66	13973.00
644.81	14733.67
644.95	14532.39
645.10	14066.62
645.25	14031.51
645.39	13579.79
645.54	13738.94
645.69	13390.20
645.83	13628.94
645.98	13980.02
646.13	14083.00
646.27	13832.57
646.42	13926.19
646.57	13699.16
646.71	13722.56
646.86	13537.66
647.00	13348.08
647.15	13659.37
647.30	13364.46
647.44	13114.02
647.59	13034.44
647.74	13132.75
647.88	13027.42
648.03	13252.11
648.17	13048.49
648.32	13163.17
648.47	13432.33
648.61	13706.18
648.76	13872.36
648.90	13165.51
649.05	12837.84
649.20	12435.27
649.34	12102.91
649.49	12446.97
649.63	12580.38
649.78	12826.14
649.92	12877.63
650.07	13376.16
650.21	13146.79
650.36	13130.41
650.51	13308.29
650.65	13671.07
650.80	13722.56
650.94	13357.44
651.09	13011.04
651.23	12903.37
651.38	12416.54
651.52	12484.42
651.67	12833.16
651.81	13364.46
651.96	13451.06
652.10	13542.34
652.25	13245.09
652.39	13097.64
652.54	12917.42
652.68	13376.16
652.83	13078.91
652.97	12678.68
653.12	12475.06
653.26	12826.14
653.41	12226.96
653.55	12830.82
653.70	13006.36
653.84	12528.89
653.99	13376.16
654.13	12748.90
654.27	12381.43
654.42	12566.34
654.56	12678.68
654.71	12470.37
654.85	12044.40
655.00	11906.31
655.14	11765.87
655.29	11534.16
655.43	11793.96
655.57	10888.17
655.72	10270.27
655.86	9633.64
656.01	9701.52
656.15	9893.44
656.30	10312.40
656.44	10494.96
656.58	10506.66
656.73	11098.82
656.87	11515.44
657.01	11754.17
657.16	11255.64
657.30	11571.61
657.45	11798.64
657.59	11688.64
657.73	11777.58
657.88	11784.60
658.02	12201.21
658.16	11639.48
658.31	12063.12
658.45	12159.08
658.60	11779.92
658.74	12849.54
658.88	12353.35
659.03	11925.03
659.17	12170.79
659.31	11742.47
659.46	11456.92
659.60	11918.01
659.74	11932.05
659.89	11932.05
660.03	12037.38
660.17	11798.64
660.32	11463.94
660.46	11566.93
660.60	11651.19
660.74	11557.57
660.89	11688.64
661.03	12444.63
661.17	12131.00
661.32	12622.51
661.46	12145.04
661.60	12053.76
661.74	12053.76
661.89	11995.25
662.03	12140.36
662.17	11316.49
662.31	11360.96
662.46	11513.10
662.60	11037.97
662.74	10703.27
662.88	10464.54
663.03	11164.36
663.17	11304.79
663.31	10431.77
663.45	11183.08
663.60	11108.18
663.74	10874.13
663.88	11346.92
664.02	10986.47
664.17	11176.06
664.31	10380.28
664.45	10232.82
664.59	11089.46
664.73	11524.80
664.88	11499.05
665.02	11871.20
665.16	11726.08
665.30	11784.60
665.44	12093.55
665.59	11499.05
665.73	11040.31
665.87	10733.70
666.01	10644.76
666.15	10731.36
666.29	10705.61
666.44	11147.97
666.58	10876.47
666.72	10967.75
666.86	11157.33
667.00	11232.23
667.14	10691.57
667.28	10642.42
667.43	10654.12
667.57	11180.74
667.71	11075.42
667.85	10904.56
667.99	11098.82
668.13	11009.88
668.27	10878.81
668.41	10904.56
668.56	10757.10
668.70	10600.29
668.84	11337.56
668.98	11225.21
669.12	10677.52
669.26	10246.87
669.40	9916.85
669.54	10204.74
669.68	9933.23
669.82	10153.24
669.96	10265.59
670.10	10328.78
670.25	10209.42
670.39	9998.77
670.53	9701.52
670.67	9982.38
670.81	9729.61
670.95	9589.17
671.09	9486.19
671.23	9607.90
671.37	9336.40
671.51	9336.40
671.65	9446.40
671.79	9509.60
671.93	10319.42
672.07	10331.12
672.21	9359.80
672.35	9643.01
672.49	9626.62
672.63	9282.56
672.77	9528.32
672.91	9385.55
673.05	9518.96
673.19	9125.75
673.33	9764.72
673.47	10026.86
673.61	9645.35
673.75	9425.34
673.89	9369.16
674.03	9020.42
674.17	9057.87
674.31	9144.47
674.45	9111.71
674.59	9511.94
674.73	9589.17
674.87	9324.69
675.01	9004.04
675.15	8891.70
675.29	8936.17
675.43	8662.32
675.56	8533.59
675.70	8767.65
675.84	9006.38
675.98	8608.49
676.12	8528.91
676.26	8383.80
676.40	8514.87
676.54	8699.77
676.68	8732.54
676.82	8351.03
676.96	8578.06
677.10	8238.69
677.23	8329.97
677.37	8238.69
677.51	8241.03
677.65	8201.24
677.79	7887.61
677.93	8051.44
678.07	8231.66
678.21	8140.38
678.34	8592.11
678.48	8322.94
678.62	8098.25
678.76	8470.40
678.90	8116.98
679.04	8182.51
679.18	8336.99
679.31	8285.50
679.45	7859.52
679.59	7941.44
679.73	8100.59
679.87	8013.99
680.00	8116.98
680.14	8126.34
680.28	8259.75
680.42	8088.89
680.56	7485.03
680.70	7506.10
680.83	7911.01
680.97	7948.46
681.11	7829.09
681.25	7899.31
681.39	7957.82
681.52	7873.56
681.66	7536.52
681.80	7260.34
681.94	7215.87
682.07	7737.81
682.21	7307.15
682.35	7522.48
682.49	7248.64
682.62	7279.07
682.76	6925.65
682.90	6780.53
683.04	6867.13
683.17	6857.77
683.31	6902.24
683.45	7290.77
683.59	6869.47
683.72	6761.81
683.86	6642.44
684.00	6450.52
684.13	6253.91
684.27	6490.31
684.41	6612.01
684.55	6890.54
684.68	6827.34
684.82	6724.36
684.96	7035.65
685.09	6516.05
685.23	6670.53
685.37	6628.40
685.50	6590.95
685.64	6558.18
685.78	6565.20
685.91	6616.69
686.05	6825.00
686.19	6392.00
686.32	5708.57
686.46	5116.41
686.60	4610.86
686.73	4011.68
686.87	4011.68
687.01	4067.85
687.14	4084.23
687.28	4500.85
687.42	5186.63
687.55	4943.21
687.69	5083.64
687.82	5263.86
687.96	5268.55
688.10	5291.95
688.23	5736.65
688.37	5411.32
688.50	4903.42
688.64	5018.11
688.78	4959.60
688.91	5102.37
689.05	4936.19
689.18	4950.23
689.32	5041.51
689.46	4713.84
689.59	4835.55
689.73	5034.49
689.86	4814.48
690.00	4746.61
690.13	4924.49
690.27	4833.21
690.41	4704.48
690.54	4891.72
690.68	4971.30
690.81	5160.88
690.95	5483.88
691.08	5502.60
691.22	5359.83
691.35	5170.24
691.49	5015.77
691.62	4973.64
691.76	5100.03
691.89	4959.60
692.03	4791.08
692.16	4709.16
692.30	4910.44
692.43	4861.29
692.57	4765.33
692.70	4662.35
692.84	4690.43
692.97	4711.50
693.11	4755.97
693.24	4491.49
693.38	4507.87
693.51	4779.37
693.65	4662.35
693.78	4140.41
693.92	4315.95
694.05	4348.72
694.19	4227.01
694.32	4002.32
694.45	4299.56
694.59	4475.10
694.72	4329.99
694.86	4458.72
694.99	4451.70
695.13	4397.87
695.26	4550.00
695.39	4479.79
695.53	4337.01
695.66	4456.38
695.80	4198.92
695.93	4365.10
696.07	4617.88
696.20	4784.06
696.33	4772.35
696.47	4861.29
696.60	4318.29
696.73	4315.95
696.87	4428.29
697.00	4484.47
697.14	4594.47
697.27	4287.86
697.40	4311.27
697.54	4315.95
697.67	4159.13
697.80	4355.74
697.94	4365.10
698.07	4222.33
698.21	3964.87
698.34	3889.97
698.47	3819.75
698.61	3899.33
698.74	3817.41
698.87	3964.87
699.01	4046.79
699.14	4028.06
699.27	4056.15
699.40	4294.88
699.54	4098.28
699.67	3950.82
699.80	3997.64
699.94	3819.75
700.07	3742.52
700.20	3768.26
700.34	3854.86
700.47	3489.74
700.60	3459.31
700.73	3517.83
700.87	3618.47
701.00	3562.30
701.13	3513.14
701.26	3520.17
701.40	3653.58
701.53	3414.84
701.66	3609.11
701.79	3442.93
701.93	3382.07
702.06	3288.45
702.19	3405.48
702.32	3206.53
702.46	3276.75
702.59	3396.12
702.72	3419.52
702.85	3496.76
702.99	3604.42
703.12	3496.76
703.25	3529.53
703.38	3370.37
703.51	3286.11
703.65	3515.48
703.78	3407.82
703.91	3400.80
704.04	3281.43
704.17	3225.26
704.31	3339.94
704.44	3452.29
704.57	3363.35
704.70	3295.47
704.83	3115.25
704.96	3206.53
705.10	3300.16
705.23	3155.04
>>>>>End Processed Spectral Data<<<<<
