SpectraSuite Data File
++++++++++++++++++++++++++++++++++++
Date: Mon Oct 07 14:53:38 GMT-05:00 2013
User: price-jones
Dark Spectrum Present: No
Reference Spectrum Present: No
Number of Sampled Component Spectra: 1
Spectrometers: USB2+H05261
Integration Time (usec): 100000 (USB2+H05261)
Spectra Averaged: 1 (USB2+H05261)
Boxcar Smoothing: 0 (USB2+H05261)
Correct for Electrical Dark: No (USB2+H05261)
Strobe/Lamp Enabled: No (USB2+H05261)
Correct for Detector Non-linearity: No (USB2+H05261)
Correct for Stray Light: No (USB2+H05261)
Number of Pixels in Processed Spectrum: 2048
>>>>>Begin Processed Spectral Data<<<<<
365.73	0.00
365.92	0.00
366.12	0.00
366.32	0.00
366.52	0.00
366.72	0.00
366.91	0.00
367.11	0.00
367.31	0.00
367.51	0.00
367.70	0.00
367.90	0.00
368.10	0.00
368.30	0.00
368.49	0.00
368.69	0.00
368.89	0.00
369.09	0.00
369.28	0.00
369.48	0.00
369.68	0.00
369.87	0.00
370.07	0.00
370.27	0.00
370.47	360.44
370.66	1818.60
370.86	2251.60
371.06	2548.84
371.25	2558.21
371.45	2253.94
371.65	2066.69
371.84	1874.77
372.04	2069.03
372.24	2200.10
372.44	2380.32
372.63	2349.90
372.83	2165.00
373.03	1853.70
373.22	1675.82
373.42	1767.10
373.62	2043.29
373.81	2342.88
374.01	2225.85
374.21	2085.42
374.40	1827.96
374.60	2031.58
374.79	2354.58
374.99	2590.97
375.19	2855.45
375.38	2764.17
375.58	2619.06
375.78	2619.06
375.97	2619.06
376.17	2750.13
376.37	2782.90
376.56	2806.30
376.76	3082.49
376.95	3220.58
377.15	3302.50
377.35	3564.64
377.54	3786.99
377.74	3810.39
377.93	3730.81
378.13	3784.65
378.33	3522.51
378.52	3269.73
378.72	3136.32
378.91	3052.06
379.11	2883.54
379.31	2871.84
379.50	2796.94
379.70	3159.72
379.89	3613.79
380.09	3651.24
380.28	3712.09
380.48	3637.19
380.68	3756.56
380.87	3604.42
381.07	3400.80
381.26	3089.51
381.46	2925.67
381.65	2768.85
381.85	2827.37
382.04	2541.82
382.24	2396.71
382.43	2272.66
382.63	2111.16
382.83	2347.56
383.02	2305.43
383.22	2221.17
383.41	2307.77
383.61	2382.67
383.80	2712.68
384.00	3236.96
384.19	3564.64
384.39	3721.45
384.58	3653.58
384.78	3646.55
384.97	3658.26
385.17	3318.88
385.36	3297.81
385.56	3201.85
385.75	3251.00
385.95	3578.68
386.14	3896.99
386.34	3920.40
386.53	3632.51
386.72	3407.82
386.92	3510.80
387.11	3634.85
387.31	3896.99
387.50	3801.03
387.70	3611.45
387.89	3566.98
388.09	3595.06
388.28	3529.53
388.48	3714.43
388.67	4030.40
388.86	4432.97
389.06	4678.73
389.25	4917.47
389.45	5020.45
389.64	4898.74
389.84	4938.53
390.03	5060.24
390.22	4856.61
390.42	5128.11
390.61	5406.64
390.81	5556.43
391.00	5956.66
391.19	5778.78
391.39	5591.54
391.58	5313.02
391.78	4800.44
391.97	4770.01
392.16	4528.94
392.36	4051.47
392.55	3304.84
392.75	2579.27
392.94	2005.84
393.13	2157.97
393.33	2396.71
393.52	3038.02
393.71	3960.19
393.91	4451.70
394.10	4746.61
394.29	5191.31
394.49	5636.01
394.68	6008.16
394.88	6279.66
395.07	6286.68
395.26	6155.61
395.46	6015.18
395.65	5729.63
395.84	4980.66
396.04	4198.92
396.23	3478.04
396.42	2832.05
396.62	2810.98
396.81	3220.58
397.00	4184.88
397.19	5158.54
397.39	6228.17
397.58	6953.73
397.77	7339.92
397.97	7707.38
398.16	7822.07
398.35	8205.92
398.55	8259.75
398.74	8603.81
398.93	8968.93
399.12	8528.91
399.32	8236.35
399.51	8533.59
399.70	9268.52
399.90	8959.57
400.09	9020.42
400.28	9060.21
400.47	9074.26
400.67	9399.59
400.86	9706.20
401.05	9640.67
401.24	9830.25
401.44	9947.28
401.63	9975.36
401.82	10071.33
402.01	9961.32
402.21	9958.98
402.40	10324.10
402.59	9926.21
402.78	9472.15
402.97	9064.89
403.17	9530.66
403.36	10139.20
403.55	10260.91
403.74	10668.16
403.93	10242.18
404.13	9376.19
404.32	9160.86
404.51	9558.75
404.70	10310.06
404.89	10462.19
405.09	10099.41
405.28	9902.81
405.47	9912.17
405.66	10026.86
405.85	9657.05
406.05	9348.10
406.24	9357.46
406.43	9820.89
406.62	10253.89
406.81	10298.36
407.00	9991.75
407.20	9799.82
407.39	9888.76
407.58	10253.89
407.77	10747.74
407.96	10944.34
408.15	10998.18
408.34	11236.91
408.54	11803.32
408.73	11449.90
408.92	11630.12
409.11	11456.92
409.30	10583.90
409.49	10122.82
409.68	9434.70
409.87	9198.31
410.07	9666.41
410.26	10513.69
410.45	11283.72
410.64	11403.09
410.83	11747.15
411.02	12063.12
411.21	12514.84
411.40	12421.22
411.59	12395.48
411.78	12451.65
411.98	12182.49
412.17	12400.16
412.36	11978.86
412.55	12407.18
412.74	11840.77
412.93	11623.10
413.12	11784.60
413.31	12886.99
413.50	12966.57
413.69	13343.39
413.88	12802.73
414.07	12243.34
414.26	12664.64
414.45	12945.50
414.64	13327.01
414.83	13217.01
415.02	13011.04
415.22	12851.88
415.41	13249.77
415.60	13568.09
415.79	14094.71
415.98	14232.80
416.17	14270.25
416.36	13886.40
416.55	13722.56
416.74	13366.80
416.93	13022.74
417.12	13099.98
417.31	13062.53
417.50	13179.56
417.69	13830.23
417.88	13771.71
418.07	13420.63
418.26	13561.06
418.45	13406.59
418.64	13848.95
418.83	14686.86
419.02	14485.58
419.21	14317.06
419.39	13570.43
419.58	12751.24
419.77	12978.27
419.96	13509.57
420.15	14356.85
420.34	14424.72
420.53	15342.21
420.72	15623.08
420.91	15641.80
421.10	15117.52
421.29	15129.22
421.48	14560.47
421.67	15398.38
421.86	14916.23
422.05	13874.70
422.24	12596.76
422.43	12224.62
422.61	13785.76
422.80	14780.48
422.99	14937.30
423.18	14288.97
423.37	13916.83
423.56	13893.42
423.75	13998.74
423.94	14553.45
424.13	13816.18
424.32	13781.07
424.50	14005.77
424.69	13444.04
424.88	13867.67
425.07	13724.90
425.26	13907.46
425.45	13771.71
425.64	13273.18
425.83	13301.26
426.01	14183.65
426.20	14436.42
426.39	14260.88
426.58	13408.93
426.77	12212.92
426.96	11943.75
427.15	12444.63
427.33	13369.14
427.52	13860.65
427.71	14019.81
427.90	13696.82
428.09	13671.07
428.28	13369.14
428.46	13090.62
428.65	12549.95
428.84	13046.15
429.03	13217.01
429.22	12503.14
429.40	11810.34
429.59	10906.90
429.78	9600.88
429.97	9806.84
430.16	9729.61
430.34	9811.53
430.53	9753.01
430.72	10012.81
430.91	10897.53
431.10	12943.16
431.28	14941.98
431.47	16800.37
431.66	17149.11
431.85	15297.74
432.03	14169.60
432.22	13331.69
432.41	14050.24
432.60	15358.60
432.79	15868.83
432.97	16547.59
433.16	16114.59
433.35	14810.91
433.54	13338.71
433.72	12472.71
433.91	12659.96
434.10	14141.52
434.28	15407.75
434.47	16063.10
434.66	15751.81
434.85	15396.04
435.03	15424.13
435.22	15770.53
435.41	17128.04
435.59	16812.07
435.78	17373.80
435.97	17436.99
436.16	17338.69
436.34	17338.69
436.53	16781.64
436.72	17200.60
436.90	16248.00
437.09	16067.78
437.28	15915.64
437.46	16184.80
437.65	16219.91
437.84	15161.99
438.02	14066.62
438.21	13774.05
438.40	14581.54
438.58	15901.60
438.77	16233.96
438.96	16355.66
439.14	17385.50
439.33	17338.69
439.52	17846.58
439.70	17633.60
439.89	17057.82
440.08	16748.87
440.26	16552.27
440.45	17268.47
440.63	18434.06
440.82	19176.01
441.01	18869.40
441.19	18876.42
441.38	19246.23
441.57	20067.75
441.75	20006.90
441.94	20189.46
442.12	20170.74
442.31	20112.22
442.50	20395.43
442.68	20205.84
442.87	19604.33
443.05	19660.50
443.24	19924.98
443.43	20304.15
443.61	20755.87
443.80	21216.96
443.98	19885.19
444.17	19733.06
444.35	20900.98
444.54	21198.23
444.73	20971.20
444.91	20285.42
445.10	19351.55
445.28	18429.38
445.47	18405.97
445.65	18307.67
445.84	19115.16
446.02	19534.11
446.21	20091.16
446.39	19728.38
446.58	20453.94
446.77	20549.90
446.95	20463.30
447.14	21432.29
447.32	21752.94
447.51	21319.94
447.69	20257.34
447.88	20067.75
448.06	20198.82
448.25	20879.92
448.43	20989.92
448.62	20812.04
448.80	20439.90
448.99	20463.30
449.17	20898.64
449.36	20884.60
449.54	21685.06
449.73	21614.85
449.91	22155.51
450.10	23438.12
450.28	22867.03
450.46	23084.70
450.65	22913.84
450.83	22583.83
451.02	22218.71
451.20	22232.75
451.39	22431.69
451.57	22190.62
451.76	22129.77
451.94	21958.91
452.13	21462.71
452.31	20711.40
452.49	19585.60
452.68	19957.75
452.86	19885.19
453.05	20133.29
453.23	20758.21
453.42	20931.41
453.60	21638.25
453.78	22094.66
453.97	21778.68
454.15	21982.31
454.34	21184.19
454.52	21584.42
454.70	20884.60
454.89	21207.59
455.07	21266.11
455.26	21671.02
455.44	22267.86
455.62	22483.19
455.81	22974.70
455.99	22948.95
456.17	22822.56
456.36	22457.44
456.54	23206.41
456.73	23293.01
456.91	23473.23
457.09	23473.23
457.28	24304.12
457.46	23360.89
457.64	23110.45
457.83	22707.88
458.01	21757.62
458.19	22391.91
458.38	22775.75
458.56	22885.76
458.74	23290.67
458.93	22417.65
459.11	22714.90
459.29	22590.85
459.48	22836.61
459.66	22352.12
459.84	22998.10
460.03	23274.29
460.21	23449.83
460.39	23723.67
460.57	23433.44
460.76	24142.63
460.94	24025.60
461.12	23674.52
461.31	23810.27
461.49	23557.49
461.67	23665.16
461.85	24123.90
462.04	24166.03
462.22	24879.89
462.40	24507.75
462.59	24154.33
462.77	24364.98
462.95	24400.08
463.13	24065.39
463.32	23880.49
463.50	23627.71
463.68	23828.99
463.86	23700.26
464.05	23302.37
464.23	22993.42
464.41	22836.61
464.59	22396.59
464.78	23440.47
464.96	23550.47
465.14	23349.18
465.32	23960.06
465.50	24273.70
465.69	24800.32
465.87	24215.18
466.05	23473.23
466.23	22508.93
466.41	22087.64
466.60	22494.89
466.78	22815.54
466.96	23037.89
467.14	23208.75
467.32	23646.43
467.51	23674.52
467.69	22766.39
467.87	22939.59
468.05	23475.57
468.23	23594.94
468.41	23819.63
468.60	23840.70
468.78	23648.77
468.96	23367.91
469.14	23924.96
469.32	24063.05
469.50	23154.92
469.69	22951.29
469.87	22927.89
470.05	22862.35
470.23	22771.07
470.41	23068.32
470.59	23407.70
470.77	23274.29
470.95	24049.00
471.14	24269.01
471.32	24254.97
471.50	25397.15
471.68	25736.53
471.86	25902.71
472.04	25869.94
472.22	26111.02
472.40	24669.25
472.58	24568.60
472.77	24283.06
472.95	25048.41
473.13	25663.97
473.31	24538.18
473.49	24987.56
473.67	25528.22
473.85	25518.86
474.03	26204.64
474.21	26223.36
474.39	26181.23
474.57	26541.68
474.75	26855.31
474.93	26312.30
475.12	25713.13
475.30	25848.88
475.48	26108.68
475.66	26328.69
475.84	26305.28
476.02	26008.03
476.20	25500.14
476.38	25986.97
476.56	26937.23
476.74	27037.87
476.92	27417.04
477.10	28074.73
477.28	28264.31
477.46	28746.46
477.64	29067.11
477.82	28952.43
478.00	29212.23
478.18	28545.17
478.36	28400.06
478.54	28259.63
478.72	28718.37
478.90	29392.45
479.08	30508.88
479.26	30536.97
479.44	30345.05
479.62	30075.88
479.80	30450.37
479.98	30375.47
480.16	30506.54
480.34	30375.47
480.52	30529.95
480.70	30738.26
480.88	31304.67
481.06	31512.97
481.24	31915.54
481.41	32397.70
481.59	32779.20
481.77	32507.70
481.95	32002.14
482.13	32348.54
482.31	32067.68
482.49	32517.06
482.67	32217.47
482.85	32657.49
483.03	33626.48
483.21	33839.47
483.39	33715.42
483.57	32701.96
483.74	33060.07
483.92	33090.49
484.10	32952.40
484.28	34026.71
484.46	34607.16
484.64	34604.82
484.82	34127.35
485.00	33443.91
485.18	32872.82
485.35	31543.40
485.53	29514.16
485.71	26874.03
485.89	26555.72
486.07	27470.87
486.25	29844.17
486.43	32189.39
486.61	32680.90
486.78	32423.44
486.96	32961.76
487.14	34188.21
487.32	34983.99
487.50	35786.79
487.68	36378.95
487.85	37509.43
488.03	37062.38
488.21	37139.62
488.39	35845.30
488.57	35335.07
488.75	34998.03
488.92	36655.13
489.10	38637.56
489.28	39627.61
489.46	40692.55
489.64	40308.71
489.81	40760.43
489.99	40563.82
490.17	40751.07
490.35	40989.80
490.53	40280.62
490.70	39845.28
490.88	39765.70
491.06	40734.68
491.24	41076.40
491.41	39599.52
491.59	37734.12
491.77	36781.52
491.95	38064.13
492.13	39267.17
492.30	41186.41
492.48	42190.50
492.66	42979.26
492.84	43070.54
493.01	42590.73
493.19	41654.51
493.37	41390.03
493.54	41106.83
493.72	41663.88
493.90	43365.45
494.08	44261.87
494.25	44692.53
494.43	44870.41
494.61	45617.04
494.79	45446.18
494.96	45003.82
495.14	44346.13
495.32	43049.47
495.49	42525.19
495.67	43557.37
495.85	45675.55
496.02	45986.85
496.20	45874.50
496.38	45251.92
496.55	45261.28
496.73	45928.33
496.91	46066.42
497.09	46738.16
497.26	47196.90
497.44	46534.53
497.62	45492.99
497.79	44765.09
497.97	43213.31
498.14	43217.99
498.32	44877.43
498.50	46101.53
498.67	46937.10
498.85	46237.28
499.03	46689.01
499.20	47058.81
499.38	47131.37
499.56	47208.61
499.73	46480.70
499.91	45118.51
500.08	45013.18
500.26	44154.21
500.44	44538.05
500.61	45560.87
500.79	45174.68
500.97	45029.57
501.14	44470.18
501.32	44313.36
501.49	44552.10
501.67	44893.82
501.84	45406.39
502.02	45432.14
502.20	46461.97
502.37	46635.17
502.55	46497.08
502.72	47456.70
502.90	47700.12
503.07	47676.71
503.25	46532.19
503.43	45696.62
503.60	44964.03
503.78	44004.41
503.95	44718.28
504.13	46649.22
504.30	48121.41
504.48	47767.99
504.65	46946.47
504.83	47454.36
505.01	47835.87
505.18	48521.65
505.36	49343.17
505.53	49287.00
505.71	49579.57
505.88	49993.84
506.06	48966.35
506.23	48421.00
506.41	47672.03
506.58	48516.96
506.76	48100.35
506.93	48179.93
507.11	48114.39
507.28	47950.56
507.46	47283.50
507.63	46436.23
507.81	46277.07
507.98	46628.15
508.16	47447.34
508.33	48437.39
508.50	48783.79
508.68	49151.25
508.85	49825.32
509.03	49855.75
509.20	49897.88
509.38	48673.78
509.55	47538.62
509.73	47540.96
509.90	48308.66
510.08	49319.77
510.25	48933.58
510.42	48315.68
510.60	48355.47
510.77	48788.47
510.95	49696.59
511.12	49998.52
511.30	50377.69
511.47	50714.73
511.64	50740.47
511.82	49970.44
511.99	48610.59
512.17	48399.94
512.34	47522.24
512.51	48177.59
512.69	48266.53
512.86	48531.01
513.04	48865.70
513.21	49074.01
513.38	48350.79
513.56	47964.60
513.73	46951.15
513.90	47030.72
514.08	47182.86
514.25	47863.96
514.43	48079.28
514.60	48313.34
514.77	48842.30
514.95	48680.80
515.12	48435.05
515.29	48856.34
515.47	49223.81
515.64	49757.45
515.81	49291.68
515.99	48397.60
516.16	46150.68
516.33	42909.04
516.51	41273.01
516.68	40196.36
516.85	39569.10
517.03	40128.48
517.20	43529.28
517.37	47494.15
517.54	48549.73
517.72	47564.37
517.89	44264.21
518.06	41074.06
518.24	41684.94
518.41	44205.70
518.58	46440.91
518.75	46904.34
518.93	47337.33
519.10	46806.03
519.27	47803.10
519.45	47669.69
519.62	49069.33
519.79	49565.52
519.96	49069.33
520.14	48456.11
520.31	47147.75
520.48	47334.99
520.65	47662.67
520.83	49263.60
521.00	49404.03
521.17	49244.87
521.34	48360.15
521.52	49485.95
521.69	49947.03
521.86	50621.11
522.03	50248.96
522.20	48212.70
522.38	46979.23
522.55	46625.81
522.72	47484.79
522.89	48175.25
523.07	48233.76
523.24	48322.70
523.41	49874.48
523.58	50225.56
523.75	50953.46
523.92	51051.76
524.10	50623.45
524.27	50679.62
524.44	50443.23
524.61	50323.86
524.78	50057.04
524.96	49808.94
525.13	49712.98
525.30	50461.95
525.47	50939.42
525.64	50529.83
525.81	49736.38
525.98	47442.66
526.16	45855.78
526.33	45041.27
526.50	44217.40
526.67	43660.35
526.84	44566.14
527.01	46164.73
527.18	47185.20
527.36	48226.74
527.53	49418.07
527.70	49970.44
527.87	48851.66
528.04	48673.78
528.21	49586.59
528.38	49954.05
528.55	51026.02
528.72	51430.93
528.89	51639.24
529.07	50969.85
529.24	50539.19
529.41	49523.40
529.58	48514.62
529.75	48846.98
529.92	49109.12
530.09	50260.66
530.26	50653.87
530.43	50808.35
530.60	50997.93
530.77	51019.00
530.94	51564.34
531.11	50806.01
531.28	50319.18
531.46	50459.61
531.63	50382.37
531.80	50185.77
531.97	49464.88
532.14	48439.73
532.31	47220.31
532.48	46181.11
532.65	45937.69
532.82	47540.96
532.99	48854.00
533.16	49624.04
533.33	50319.18
533.50	50014.91
533.67	48961.67
533.84	48776.76
534.01	48924.22
534.18	49357.22
534.35	49832.35
534.52	49235.51
534.69	49469.56
534.86	50000.86
535.03	50323.86
535.20	50822.39
535.37	51349.01
535.54	51459.02
535.71	50948.78
535.88	50607.06
536.05	49841.71
536.22	49195.72
536.38	48603.56
536.55	48303.98
536.72	47604.16
536.89	47210.95
537.06	48477.18
537.23	49514.03
537.40	50054.70
537.57	50117.89
537.74	49591.27
537.91	49724.68
538.08	49497.65
538.25	49694.25
538.42	49867.45
538.59	49696.59
538.75	48758.04
538.92	48388.24
539.09	48488.88
539.26	47770.33
539.43	47803.10
539.60	47735.23
539.77	48210.35
539.94	47887.36
540.11	46808.37
540.28	46064.08
540.44	46595.38
540.61	46370.69
540.78	46953.49
540.95	47770.33
541.12	48275.89
541.29	48523.99
541.46	48739.32
541.62	49172.31
541.79	48655.06
541.96	47744.59
542.13	48200.99
542.30	48411.64
542.47	48629.31
542.63	48133.12
542.80	47564.37
542.97	47892.04
543.14	47859.27
543.31	47800.76
543.48	48428.02
543.64	50031.29
543.81	50445.57
543.98	50127.25
544.15	49050.61
544.32	47819.49
544.48	48257.17
544.65	49130.19
544.82	49478.92
544.99	48985.07
545.16	48512.28
545.32	48514.62
545.49	49333.81
545.66	50078.10
545.83	49638.08
546.00	48629.31
546.16	47887.36
546.33	48275.89
546.50	48430.36
546.67	49074.01
546.83	48229.08
547.00	48240.78
547.17	47421.59
547.34	46665.60
547.50	46712.41
547.67	47428.62
547.84	47365.42
548.00	48257.17
548.17	48402.28
548.34	48266.53
548.51	48215.04
548.67	48570.80
548.84	48212.70
549.01	48425.68
549.18	48137.80
549.34	48378.87
549.51	48009.07
549.68	47899.06
549.84	47931.83
550.01	47782.04
550.18	47393.51
550.34	47571.39
550.51	47679.05
550.68	48053.54
550.84	47058.81
551.01	47416.91
551.18	47253.08
551.34	47480.11
551.51	48250.14
551.68	48208.01
551.84	48516.96
552.01	48058.22
552.18	47870.98
552.34	46986.25
552.51	46171.75
552.68	45687.26
552.84	46422.19
553.01	47227.33
553.18	46995.62
553.34	47384.15
553.51	47227.33
553.67	47936.51
553.84	48191.63
554.01	47922.47
554.17	47363.08
554.34	47487.13
554.51	47873.32
554.67	48568.46
554.84	48076.94
555.00	47496.49
555.17	47250.74
555.33	47234.35
555.50	46841.14
555.67	47210.95
555.83	47028.38
556.00	46784.97
556.16	46555.60
556.33	45883.86
556.50	45579.59
556.66	45525.76
556.83	45415.76
556.99	45488.31
557.16	45696.62
557.32	46525.17
557.49	46244.30
557.65	46700.71
557.82	46134.30
557.98	46155.36
558.15	45577.25
558.32	44456.14
558.48	43386.51
558.65	43578.43
558.81	43826.53
558.98	44769.77
559.14	45010.84
559.31	45052.97
559.47	44811.90
559.64	44348.47
559.80	43826.53
559.97	44268.89
560.13	44603.59
560.30	45923.65
560.46	46747.52
560.63	46686.67
560.79	46843.48
560.96	46595.38
561.12	45003.82
561.29	43550.35
561.45	43604.18
561.61	44325.07
561.78	44980.42
561.94	45251.92
562.11	45064.67
562.27	44701.89
562.44	44783.81
562.60	45371.28
562.77	45698.96
562.93	45743.43
563.10	45509.38
563.26	44444.43
563.42	44467.84
563.59	43941.22
563.75	44191.65
563.92	44222.08
564.08	44236.12
564.24	44751.04
564.41	44458.48
564.57	44624.65
564.74	44748.70
564.90	44348.47
565.07	44198.68
565.23	43498.86
565.39	42527.53
565.56	42581.37
565.72	42597.75
565.88	42806.06
566.05	43079.90
566.21	42902.02
566.38	43723.55
566.54	43716.53
566.70	44311.02
566.87	44664.44
567.03	44559.12
567.19	44041.86
567.36	44142.50
567.52	44369.54
567.68	43545.67
567.85	42806.06
568.01	42478.38
568.17	41773.88
568.34	41993.89
568.50	41750.48
568.66	41855.80
568.83	42359.02
568.99	42623.50
569.15	42824.78
569.32	43047.13
569.48	42422.21
569.64	42167.09
569.81	42036.02
569.97	41731.75
570.13	42101.56
570.30	41043.63
570.46	40552.12
570.62	39943.58
570.78	39875.71
570.95	40371.90
571.11	41092.79
571.27	41029.59
571.43	41769.20
571.60	42415.19
571.76	42073.47
571.92	42356.67
572.09	42845.85
572.25	42749.88
572.41	42548.60
572.57	42511.15
572.74	42817.76
572.90	41596.00
573.06	42206.88
573.22	41893.25
573.38	42174.11
573.55	42047.72
573.71	42492.43
573.87	41869.84
574.03	41799.63
574.20	41731.75
574.36	40989.80
574.52	41111.51
574.68	40809.58
574.84	40687.87
575.01	40252.53
575.17	39864.00
575.33	40285.30
575.49	40350.84
575.65	40418.71
575.82	40364.88
575.98	40231.47
576.14	41017.89
576.30	40652.76
576.46	41179.39
576.62	41200.45
576.79	40811.92
576.95	40308.71
577.11	40329.77
577.27	40781.49
577.43	40449.14
577.59	40112.10
577.75	39512.92
577.92	39117.37
578.08	38581.39
578.24	38234.99
578.40	39196.95
578.56	39342.06
578.72	39281.21
578.88	39559.73
579.04	39999.76
579.21	39901.45
579.37	40128.48
579.53	40151.89
579.69	39978.69
579.85	40601.27
580.01	40493.61
580.17	39510.58
580.33	39346.75
580.49	39601.86
580.65	39679.10
580.82	40032.52
580.98	40334.45
581.14	39988.05
581.30	40121.46
581.46	39679.10
581.62	40383.60
581.78	39817.19
581.94	40526.38
582.10	40011.46
582.26	40481.91
582.42	40137.85
582.58	40318.07
582.74	40224.45
582.90	40437.44
583.06	40217.43
583.22	40018.48
583.38	39842.94
583.54	39775.06
583.70	39646.33
583.86	40100.40
584.02	39683.78
584.18	39599.52
584.34	39536.33
584.50	39704.85
584.66	39407.60
584.82	39098.65
584.98	38485.43
585.14	38644.59
585.30	37801.99
585.46	37235.58
585.62	37500.06
585.78	37298.78
585.94	38146.05
586.10	38469.04
586.26	38106.26
586.42	38667.99
586.58	39140.78
586.74	39187.59
586.90	38291.16
587.06	38356.70
587.22	38202.22
587.38	38075.84
587.54	37809.01
587.70	37780.93
587.86	37502.40
588.02	37020.25
588.18	37062.38
588.34	36327.45
588.49	33521.15
588.65	32723.03
588.81	31793.84
588.97	32231.52
589.13	31646.38
589.29	31463.82
589.45	32385.99
589.61	33797.34
589.77	34471.41
589.93	35337.41
590.08	36194.04
590.24	36739.39
590.40	36858.76
590.56	36292.35
590.72	36498.31
590.88	35943.61
591.04	35857.01
591.20	35983.40
591.35	35576.14
591.51	35688.49
591.67	36191.70
591.83	35346.77
591.99	36133.19
592.15	36058.29
592.31	36121.49
592.46	36257.24
592.62	35489.54
592.78	35332.73
592.94	35948.29
593.10	35409.96
593.26	35981.06
593.41	36039.57
593.57	35938.93
593.73	35667.42
593.89	35388.90
594.05	35372.52
594.20	34991.01
594.36	34471.41
594.52	34394.17
594.68	34178.84
594.84	34494.82
594.99	34595.46
595.15	34993.35
595.31	35157.19
595.47	34960.58
595.62	35428.69
595.78	35400.60
595.94	35768.07
596.10	35260.17
596.25	35330.39
596.41	35199.32
596.57	35419.33
596.73	35014.41
596.88	35234.42
597.04	35419.33
597.20	34623.54
597.36	34644.61
597.51	34658.65
597.67	34384.81
597.83	34719.51
597.99	34719.51
598.14	34204.59
598.30	33694.35
598.46	33954.15
598.61	34281.83
598.77	34110.97
598.93	34473.75
599.09	34609.50
599.24	34616.52
599.40	34284.17
599.56	34054.79
599.71	34480.77
599.87	34644.61
600.03	34202.25
600.18	33879.25
600.34	34155.44
600.50	33483.70
600.65	33804.36
600.81	33752.87
600.97	33565.62
601.12	33560.94
601.28	33221.56
601.44	33399.44
601.59	33233.27
601.75	32861.12
601.91	33167.73
602.06	32851.76
602.22	33228.59
602.37	33273.06
602.53	33305.82
602.69	33795.00
602.84	33797.34
603.00	34443.32
603.16	34401.19
603.31	34300.55
603.47	33867.55
603.62	34146.08
603.78	33855.85
603.94	33687.33
604.09	33809.04
604.25	33593.71
604.40	33385.40
604.56	33280.08
604.71	33893.30
604.87	33450.94
605.03	32800.27
605.18	33425.19
605.34	33432.21
605.49	32737.07
605.65	33277.74
605.80	33144.33
605.96	33116.24
606.12	32847.08
606.27	32886.87
606.43	32290.03
606.58	32910.27
606.74	33006.23
606.89	32685.58
607.05	33305.82
607.20	32985.17
607.36	32341.52
607.51	32414.08
607.67	31531.70
607.82	32203.43
607.98	31915.54
608.13	32063.00
608.29	31885.12
608.44	31672.13
608.60	31775.11
608.75	31924.91
608.91	31831.29
609.06	31438.08
609.22	32126.19
609.37	31988.10
609.53	31892.14
609.68	30778.04
609.84	31070.61
609.99	30682.08
610.15	30639.95
610.30	31014.44
610.46	31508.29
610.61	31639.36
610.76	32243.22
610.92	32215.13
611.07	32500.68
611.23	32074.70
611.38	32479.61
611.54	31943.63
611.69	31239.13
611.84	30349.73
612.00	30543.99
612.15	30508.88
612.31	30394.20
612.46	30204.61
612.62	30630.59
612.77	30913.80
612.92	30866.98
613.08	30342.70
613.23	29942.47
613.39	29352.66
613.54	29170.10
613.69	29401.81
613.85	29727.14
614.00	29699.06
614.15	30515.90
614.31	30235.04
614.46	29699.06
614.62	29862.90
614.77	30190.57
614.92	29879.28
615.08	29792.68
615.23	29928.43
615.38	29951.84
615.54	28786.25
615.69	28325.16
615.84	27623.00
616.00	27292.99
616.15	27599.60
616.30	28140.26
616.46	27873.44
616.61	27878.12
616.76	28119.20
616.92	28362.61
617.07	28765.18
617.22	28521.77
617.37	28950.09
617.53	28959.45
617.68	29069.45
617.83	29116.26
617.99	29142.01
618.14	29537.56
618.29	29013.28
618.45	28503.04
618.60	28636.45
618.75	28226.86
618.90	27910.89
619.06	28437.51
619.21	28575.60
619.36	28917.32
619.51	28601.35
619.67	28283.03
619.82	28496.02
619.97	28507.72
620.12	28276.01
620.28	28444.53
620.43	28540.49
620.58	28533.47
620.73	28308.78
620.89	28467.94
621.04	27915.57
621.19	27990.47
621.34	27854.72
621.49	27585.55
621.65	27627.68
621.80	27648.75
621.95	27438.10
622.10	27592.58
622.25	27372.57
622.41	26944.25
622.56	27166.60
622.71	26979.36
622.86	26480.82
623.01	27115.11
623.16	27164.26
623.32	27166.60
623.47	26991.06
623.62	26651.68
623.77	26831.90
623.92	26398.90
624.07	26405.92
624.23	25923.77
624.38	26122.72
624.53	25982.29
624.68	26529.97
624.83	25853.56
624.98	25535.24
625.13	25418.22
625.29	25687.38
625.44	25511.84
625.59	25944.84
625.74	25743.55
625.89	25706.10
626.04	25879.30
626.19	25663.97
626.34	25771.64
626.49	25546.95
626.65	25514.18
626.80	25628.87
626.95	26087.61
627.10	25631.21
627.25	24793.29
627.40	24269.01
627.55	24191.78
627.70	23417.06
627.85	23702.61
628.00	23695.58
628.15	24676.27
628.30	24854.15
628.45	24797.98
628.60	24938.41
628.76	24713.72
628.91	24690.31
629.06	24641.16
629.21	24194.12
629.36	24432.85
629.51	23850.06
629.66	23990.49
629.81	23899.21
629.96	24004.53
630.11	24306.46
630.26	24460.94
630.41	24294.76
630.56	24189.44
630.71	24774.57
630.86	24477.32
631.01	23939.00
631.16	23903.89
631.31	23239.18
631.46	23145.56
631.61	23836.02
631.76	23756.44
631.91	23878.15
632.06	24154.33
632.21	24170.71
632.36	24287.74
632.51	23798.57
632.66	24250.29
632.81	23838.36
632.96	23946.02
633.10	23840.70
633.25	23641.75
633.40	23421.74
633.55	23253.22
633.70	23594.94
633.85	23854.74
634.00	23538.77
634.15	23559.83
634.30	23501.32
634.45	23353.87
634.60	23311.74
634.75	23316.42
634.90	23250.88
635.05	23625.37
635.19	23105.77
635.34	23302.37
635.49	23201.73
635.64	23023.85
635.79	22703.20
635.94	23250.88
636.09	23047.26
636.24	22881.08
636.39	22796.82
636.53	23101.09
636.68	23194.71
636.83	22888.10
636.98	23190.03
637.13	23269.61
637.28	23351.52
637.43	23541.11
637.57	23440.47
637.72	23044.91
637.87	23136.20
638.02	22897.46
638.17	23300.03
638.32	22845.97
638.46	22850.65
638.61	23073.00
638.76	22728.94
638.91	22466.80
639.06	22361.48
639.20	22637.66
639.35	22361.48
639.50	22050.19
639.65	21884.01
639.80	22064.23
639.94	22157.85
640.09	22485.53
640.24	22497.23
640.39	22167.21
640.54	21769.32
640.68	21727.19
640.83	21743.58
640.98	21502.50
641.13	21387.82
641.27	21839.54
641.42	21539.95
641.57	21687.40
641.72	21451.01
641.86	21418.24
642.01	21525.91
642.16	22057.21
642.31	22068.91
642.45	21900.39
642.60	21675.70
642.75	21621.87
642.90	21579.74
643.04	21355.05
643.19	21516.54
643.34	21481.44
643.48	21167.80
643.63	20968.86
643.78	21207.59
643.93	21380.79
644.07	21425.26
644.22	21406.54
644.37	21350.37
644.51	21177.17
644.66	21280.15
644.81	21249.72
644.95	21083.55
645.10	20844.81
645.25	20636.50
645.39	20479.69
645.54	20678.63
645.69	20566.29
645.83	20388.41
645.98	20514.80
646.13	19960.09
646.27	20594.37
646.42	20116.90
646.57	20168.40
646.71	20397.77
646.86	20294.79
647.00	19814.98
647.15	19941.36
647.30	19250.91
647.44	19777.53
647.59	19812.63
647.74	19814.98
647.88	19609.01
648.03	19501.34
648.17	19910.94
648.32	19807.95
648.47	20053.71
648.61	19721.35
648.76	19660.50
648.90	19246.23
649.05	18691.52
649.20	18501.93
649.34	18057.23
649.49	18288.95
649.63	18434.06
649.78	18944.30
649.92	19431.13
650.07	19566.88
650.21	19396.02
650.36	19960.09
650.51	19967.11
650.65	19946.05
650.80	19606.67
650.94	19506.02
651.09	19564.54
651.23	18965.36
651.38	18801.52
651.52	18401.29
651.67	18562.79
651.81	18946.64
651.96	18883.44
652.10	19087.07
652.25	19269.63
652.39	19257.93
652.54	19012.17
652.68	19342.19
652.83	18965.36
652.97	18836.63
653.12	18939.62
653.26	19080.05
653.41	19014.51
653.55	19220.48
653.70	19197.07
653.84	18853.02
653.99	18721.95
654.13	18270.22
654.27	18082.98
654.42	18031.49
654.56	18157.88
654.71	17914.46
654.85	17722.54
655.00	18008.08
655.14	17664.02
655.29	17341.03
655.43	17158.47
655.57	16065.44
655.72	15279.02
655.86	14015.13
656.01	13254.45
656.15	13406.59
656.30	14295.99
656.44	15007.52
656.58	15796.28
656.73	16325.24
656.87	16568.65
657.01	17015.69
657.16	17231.02
657.30	17308.26
657.45	17554.02
657.59	17851.27
657.73	17579.76
657.88	18132.13
658.02	17820.84
658.16	17736.58
658.31	17668.70
658.45	17944.89
658.60	18075.96
658.74	17326.99
658.88	17298.90
659.03	17104.64
659.17	17158.47
659.31	17406.56
659.46	17504.87
659.60	17806.80
659.74	17633.60
659.89	17752.96
660.03	17600.83
660.17	17790.41
660.32	17797.43
660.46	17362.09
660.60	17397.20
660.74	17296.56
660.89	17221.66
661.03	17509.55
661.17	17418.27
661.32	17406.56
661.46	17495.50
661.60	17315.28
661.74	17245.07
661.89	17247.41
662.03	17275.49
662.17	17289.54
662.31	16896.33
662.46	17160.81
662.60	17064.85
662.74	16973.56
662.88	16865.90
663.03	16690.36
663.17	16336.94
663.31	16418.86
663.45	16493.76
663.60	16372.05
663.74	16432.90
663.88	16521.84
664.02	16194.17
664.17	16346.30
664.31	16205.87
664.45	16659.93
664.59	16755.90
664.73	16709.08
664.88	16676.32
665.02	16315.87
665.16	16449.28
665.30	16402.47
665.44	16313.53
665.59	16137.99
665.73	15978.84
665.87	15843.09
666.01	16049.05
666.15	15669.89
666.29	15960.11
666.44	16025.65
666.58	16049.05
666.72	15929.69
666.86	15997.56
667.00	15861.81
667.14	15992.88
667.28	15791.59
667.43	15569.24
667.57	15407.75
667.71	15786.91
667.85	15314.13
667.99	15382.00
668.13	15536.48
668.27	15393.70
668.41	15531.80
668.56	15480.30
668.70	15587.97
668.84	15510.73
668.98	15386.68
669.12	15255.61
669.26	15349.23
669.40	15211.14
669.54	15183.06
669.68	15126.88
669.82	15318.81
669.96	14972.41
670.10	14899.85
670.25	15037.94
670.39	14775.80
670.53	14773.46
670.67	14736.01
670.81	14846.02
670.95	14611.96
671.09	14508.98
671.23	14464.51
671.37	14422.38
671.51	14288.97
671.65	14410.68
671.79	14249.18
671.93	14490.26
672.07	14462.17
672.21	14457.49
672.35	14251.52
672.49	14541.75
672.63	14441.11
672.77	14204.71
672.91	13975.34
673.05	14061.94
673.19	14164.92
673.33	14054.92
673.47	13994.06
673.61	13659.37
673.75	14068.96
673.89	13755.33
674.03	13678.09
674.17	13846.61
674.31	13891.08
674.45	13678.09
674.59	13855.97
674.73	13799.80
674.87	13628.94
675.01	13387.86
675.15	13437.02
675.29	13617.24
675.43	13483.83
675.56	13554.04
675.70	13593.83
675.84	13469.78
675.98	13088.28
676.12	13500.21
676.26	13369.14
676.40	12901.03
676.54	13036.78
676.68	13048.49
676.82	12774.64
676.96	12849.54
677.10	13067.21
677.23	12950.18
677.37	12957.21
677.51	12987.63
677.65	13029.76
677.79	12706.77
677.93	12671.66
678.07	12439.95
678.21	12180.15
678.34	12381.43
678.48	12210.57
678.62	12154.40
678.76	12208.23
678.90	12351.01
679.04	12379.09
679.18	12276.11
679.31	12051.42
679.45	12102.91
679.59	12233.98
679.73	12205.89
679.87	11892.26
680.00	11988.22
680.14	11667.57
680.28	11927.37
680.42	11637.14
680.56	11442.88
680.70	11475.65
680.83	11545.86
680.97	11456.92
681.11	11405.43
681.25	11618.42
681.39	11386.71
681.52	11606.72
681.66	11384.37
681.80	11269.68
681.94	11379.68
682.07	11492.03
682.21	11272.02
682.35	11208.83
682.49	11094.14
682.62	11267.34
682.76	11009.88
682.90	11002.86
683.04	10916.26
683.17	10942.00
683.31	10906.90
683.45	10590.92
683.59	10717.31
683.72	10588.58
683.86	10230.48
684.00	10352.19
684.13	10473.90
684.27	10246.87
684.41	10710.29
684.55	10534.75
684.68	10399.00
684.82	10490.28
684.96	10356.87
685.09	10111.11
685.23	10221.12
685.37	9987.07
685.50	9982.38
685.64	10071.33
685.78	9921.53
685.91	9790.46
686.05	9806.84
686.19	9544.70
686.32	9085.96
686.46	8215.28
686.60	6843.73
686.73	6527.75
686.87	6380.30
687.01	6090.07
687.14	6157.95
687.28	6527.75
687.42	6899.90
687.55	6932.67
687.69	7538.87
687.82	7721.43
687.96	8004.63
688.10	7903.99
688.23	8046.76
688.37	7721.43
688.50	7747.17
688.64	7550.57
688.78	7566.95
688.91	7440.56
689.05	7489.71
689.18	7229.91
689.32	7449.93
689.46	7473.33
689.59	7407.80
689.73	7672.28
689.86	7576.31
690.00	7644.19
690.13	7417.16
690.27	7662.91
690.41	7707.38
690.54	7564.61
690.68	7784.62
690.81	7688.66
690.95	7662.91
691.08	7754.19
691.22	7716.75
691.35	7700.36
691.49	7693.34
691.62	7485.03
691.76	7618.44
691.89	7616.10
692.03	7812.71
692.16	7529.50
692.30	7403.11
692.43	7478.01
692.57	7597.38
692.70	7234.60
692.84	7391.41
692.97	7133.95
693.11	7262.68
693.24	7272.04
693.38	7253.32
693.51	7164.38
693.65	6981.82
693.78	6782.87
693.92	6939.69
694.05	6867.13
694.19	6899.90
694.32	6892.88
694.45	6867.13
694.59	7033.31
694.72	7007.56
694.86	7054.37
694.99	6792.23
695.13	6874.15
695.26	6876.49
695.39	6792.23
695.53	6829.68
695.66	6530.09
695.80	6551.16
695.93	6736.06
696.07	6810.96
696.20	6808.62
696.33	6892.88
696.47	6890.54
696.60	6920.96
696.73	6796.92
696.87	6895.22
697.00	7066.08
697.14	6885.86
697.27	6679.89
697.40	6595.63
697.54	6441.15
697.67	6413.07
697.80	6457.54
697.94	6420.09
698.07	6270.30
698.21	6277.32
698.34	6331.15
698.47	6113.48
698.61	5991.77
698.74	6052.63
698.87	6146.25
699.01	5975.39
699.14	6094.76
699.27	5921.56
699.40	6057.31
699.54	6083.05
699.67	5996.45
699.80	5956.66
699.94	5832.62
700.07	5605.58
700.20	5572.82
700.34	5638.35
700.47	5673.46
700.60	5481.53
700.73	5476.85
700.87	5469.83
701.00	5619.63
701.13	5469.83
701.26	5425.36
701.40	5387.91
701.53	5296.63
701.66	5533.03
701.79	5481.53
701.93	5392.59
702.06	5345.78
702.19	5430.04
702.32	5490.90
702.46	5385.57
702.59	5179.61
702.72	5277.91
702.85	5252.16
702.99	5305.99
703.12	5296.63
703.25	5331.74
703.38	5284.93
703.51	5341.10
703.65	5172.58
703.78	5062.58
703.91	5081.30
704.04	4990.02
704.17	5062.58
704.31	4898.74
704.44	5172.58
704.57	5114.07
704.70	5174.92
704.83	5128.11
704.96	5055.56
705.10	4985.34
705.23	4826.18
>>>>>End Processed Spectral Data<<<<<
