SpectraSuite Data File
++++++++++++++++++++++++++++++++++++
Date: Mon Oct 07 14:54:58 GMT-05:00 2013
User: price-jones
Dark Spectrum Present: No
Reference Spectrum Present: No
Number of Sampled Component Spectra: 1
Spectrometers: USB2+H05261
Integration Time (usec): 10000 (USB2+H05261)
Spectra Averaged: 1 (USB2+H05261)
Boxcar Smoothing: 0 (USB2+H05261)
Correct for Electrical Dark: No (USB2+H05261)
Strobe/Lamp Enabled: No (USB2+H05261)
Correct for Detector Non-linearity: No (USB2+H05261)
Correct for Stray Light: No (USB2+H05261)
Number of Pixels in Processed Spectrum: 2048
>>>>>Begin Processed Spectral Data<<<<<
365.73	0.00
365.92	0.00
366.12	0.00
366.32	0.00
366.52	0.00
366.72	0.00
366.91	0.00
367.11	0.00
367.31	0.00
367.51	0.00
367.70	0.00
367.90	0.00
368.10	0.00
368.30	0.00
368.49	0.00
368.69	0.00
368.89	0.00
369.09	0.00
369.28	0.00
369.48	0.00
369.68	0.00
369.87	0.00
370.07	0.00
370.27	0.00
370.47	110.01
370.66	1533.05
370.86	1760.08
371.06	1809.23
371.25	1769.44
371.45	1638.38
371.65	1533.05
371.84	1416.02
372.04	1572.84
372.24	1837.32
372.44	1746.04
372.63	1788.17
372.83	1607.95
373.03	1397.30
373.22	1291.98
373.42	1409.00
373.62	1727.32
373.81	1750.72
374.01	1659.44
374.21	1446.45
374.40	1448.79
374.60	1488.58
374.79	1776.47
374.99	2085.42
375.19	2249.25
375.38	2136.91
375.58	1968.39
375.78	2003.50
375.97	2003.50
376.17	2026.90
376.37	2064.35
376.56	2256.28
376.76	2354.58
376.95	2567.57
377.15	2630.76
377.35	2869.50
377.54	2984.18
377.74	3063.76
377.93	3035.67
378.13	2764.17
378.33	2637.78
378.52	2342.88
378.72	2366.28
378.91	2370.96
379.11	2204.78
379.31	2195.42
379.50	2099.46
379.70	2466.92
379.89	2693.96
380.09	2799.28
380.28	2916.31
380.48	2944.39
380.68	2822.69
380.87	2752.47
381.07	2576.93
381.26	2373.30
381.46	2115.84
381.65	1975.41
381.85	1923.92
382.04	1816.26
382.24	1764.76
382.43	1647.74
382.63	1563.48
382.83	1741.36
383.02	1631.35
383.22	1638.38
383.41	1739.02
383.61	1827.96
383.80	2043.29
384.00	2546.50
384.19	2836.73
384.39	2911.63
384.58	2839.07
384.78	2801.62
384.97	2609.70
385.17	2729.06
385.36	2497.35
385.56	2420.11
385.75	2431.82
385.95	2663.53
386.14	2829.71
386.34	2881.20
386.53	2787.58
386.72	2775.88
386.92	2698.64
387.11	2836.73
387.31	2892.90
387.50	2787.58
387.70	2867.16
387.89	2726.72
388.09	2794.60
388.28	2785.24
388.48	2860.13
388.67	3068.44
388.86	3403.14
389.06	3557.61
389.25	3819.75
389.45	3812.73
389.64	3845.50
389.84	3885.29
390.03	3651.24
390.22	3714.43
390.42	3796.35
390.61	4196.58
390.81	4346.37
391.00	4542.98
391.19	4432.97
391.39	4124.02
391.58	3932.10
391.78	3499.10
391.97	3574.00
392.16	3325.90
392.36	2885.88
392.55	2289.04
392.75	1710.93
392.94	1547.09
393.13	1638.38
393.33	2026.90
393.52	2527.78
393.71	3115.25
393.91	3456.97
394.10	3815.07
394.29	4243.39
394.49	4512.55
394.68	4720.86
394.88	4767.67
395.07	4950.23
395.26	4737.24
395.46	4585.11
395.65	4088.92
395.84	3602.08
396.04	2984.18
396.23	2396.71
396.42	2036.27
396.62	2157.97
396.81	2764.17
397.00	3489.74
397.19	4322.97
397.39	4966.62
397.58	5448.77
397.77	5607.92
397.97	5942.62
398.16	5893.47
398.35	6263.27
398.55	6459.88
398.74	6612.01
398.93	6710.32
399.12	6586.27
399.32	6492.65
399.51	6560.52
399.70	6984.16
399.90	6651.80
400.09	6902.24
400.28	6883.52
400.47	7019.27
400.67	7229.91
400.86	7398.43
401.05	7461.63
401.24	7438.22
401.44	7520.14
401.63	7356.30
401.82	7482.69
402.01	7653.55
402.21	7548.23
402.40	7728.45
402.59	7421.84
402.78	7105.87
402.97	7080.12
403.17	7456.95
403.36	7611.42
403.55	7857.18
403.74	7852.50
403.93	7428.86
404.13	6993.52
404.32	7075.44
404.51	7318.86
404.70	7737.81
404.89	7777.60
405.09	7520.14
405.28	7522.48
405.47	7438.22
405.66	7365.67
405.85	7349.28
406.05	6904.58
406.24	7070.76
406.43	7482.69
406.62	7613.76
406.81	7719.09
407.00	7494.40
407.20	7382.05
407.39	7531.84
407.58	7990.59
407.77	8292.52
407.96	8184.85
408.15	8191.88
408.34	8500.83
408.54	8922.12
408.73	8875.31
408.92	8645.94
409.11	8248.05
409.30	7896.97
409.49	7389.07
409.68	6888.20
409.87	7023.95
410.07	7592.70
410.26	8063.15
410.45	8430.61
410.64	8753.60
410.83	8903.40
411.02	9235.75
411.21	9497.89
411.40	9254.48
411.59	9303.63
411.78	9540.02
411.98	9114.05
412.17	9439.38
412.36	9266.18
412.55	9151.49
412.74	8819.14
412.93	9006.38
413.12	9006.38
413.31	9600.88
413.50	9844.29
413.69	9626.62
413.88	9380.87
414.07	9280.22
414.26	9736.63
414.45	9699.18
414.64	9825.57
414.83	9776.42
415.02	9586.83
415.22	9839.61
415.41	10087.71
415.60	10050.26
415.79	10473.90
415.98	10768.80
416.17	10443.47
416.36	10544.11
416.55	10153.24
416.74	10040.90
416.93	9738.97
417.12	9834.93
417.31	9973.02
417.50	9916.85
417.69	10171.97
417.88	10413.04
418.07	10073.67
418.26	10129.84
418.45	10312.40
418.64	10581.56
418.83	10843.70
419.02	10768.80
419.21	10242.18
419.39	10033.88
419.58	9504.92
419.77	9963.66
419.96	10303.04
420.15	10827.32
420.34	11349.26
420.53	11524.80
420.72	11683.95
420.91	11470.97
421.10	11403.09
421.29	11199.46
421.48	10888.17
421.67	11445.22
421.86	10857.75
422.05	9853.66
422.24	9296.61
422.43	9589.17
422.61	10551.14
422.80	11098.82
422.99	10789.87
423.18	10279.63
423.37	10567.52
423.56	10874.13
423.75	10827.32
423.94	11037.97
424.13	10455.17
424.32	10237.50
424.50	10314.74
424.69	10338.15
424.88	10689.23
425.07	10284.31
425.26	10267.93
425.45	9832.59
425.64	10094.73
425.83	10532.41
426.01	10647.10
426.20	10780.51
426.39	10633.05
426.58	9750.67
426.77	9280.22
426.96	8868.29
427.15	9305.97
427.33	10022.17
427.52	10384.96
427.71	10352.19
427.90	10031.54
428.09	9865.36
428.28	9947.28
428.46	9633.64
428.65	9486.19
428.84	10019.83
429.03	9809.19
429.22	9156.18
429.40	8765.31
429.59	7763.56
429.78	7150.34
429.97	6972.46
430.16	7117.57
430.34	7066.08
430.53	7091.82
430.72	7602.06
430.91	8528.91
431.10	10169.63
431.28	11433.52
431.47	12311.22
431.66	12131.00
431.85	10944.34
432.03	9942.60
432.22	9926.21
432.41	10679.86
432.60	11325.85
432.79	11840.77
432.97	12074.82
433.16	11499.05
433.35	10583.90
433.54	9525.98
433.72	9359.80
433.91	9923.87
434.10	11002.86
434.28	11660.55
434.47	11885.24
434.66	11307.13
434.85	11548.20
435.03	11550.54
435.22	11742.47
435.41	12496.12
435.59	12306.54
435.78	12428.24
435.97	12627.19
436.16	12849.54
436.34	12449.31
436.53	12322.92
436.72	12421.22
436.90	11655.87
437.09	11550.54
437.28	11698.00
437.46	12177.81
437.65	11742.47
437.84	10874.13
438.02	10174.31
438.21	10810.93
438.40	11169.04
438.58	11595.01
438.77	11826.73
438.96	11946.09
439.14	12638.89
439.33	12746.56
439.52	12996.99
439.70	12709.11
439.89	12201.21
440.08	12100.57
440.26	12123.98
440.45	12662.30
440.63	13500.21
440.82	14080.66
441.01	13706.18
441.19	13839.59
441.38	14092.37
441.57	14326.42
441.75	14473.87
441.94	14640.05
442.12	14520.68
442.31	14979.43
442.50	14979.43
442.68	14588.56
442.87	14789.85
443.05	14279.61
443.24	14806.23
443.43	15047.30
443.61	14904.53
443.80	15447.54
443.98	14359.19
444.17	14803.89
444.35	15419.45
444.54	15784.57
444.73	15449.88
444.91	14497.28
445.10	13846.61
445.28	13535.32
445.47	13427.65
445.65	13329.35
445.84	14026.83
446.02	14340.46
446.21	14576.86
446.39	14478.55
446.58	14846.02
446.77	15215.82
446.95	15384.34
447.14	15646.48
447.32	15871.17
447.51	15201.78
447.69	14869.42
447.88	14637.71
448.06	14726.65
448.25	15108.16
448.43	15489.67
448.62	14628.35
448.80	14871.76
448.99	14824.95
449.17	15232.21
449.36	15124.54
449.54	15772.87
449.73	16098.20
449.91	16025.65
450.10	16805.05
450.28	16671.64
450.46	16348.64
450.65	15894.58
450.83	16315.87
451.02	15992.88
451.20	15882.88
451.39	15489.67
451.57	15424.13
451.76	15882.88
451.94	15515.41
452.13	15197.10
452.31	14478.55
452.49	14118.11
452.68	14272.59
452.86	14391.95
453.05	14628.35
453.23	15339.87
453.42	15559.88
453.60	15470.94
453.78	16046.71
453.97	15550.52
454.15	15475.62
454.34	15199.44
454.52	15243.91
454.70	14977.09
454.89	15063.69
455.07	15400.72
455.26	15386.68
455.44	15922.66
455.62	16159.06
455.81	16568.65
455.99	15784.57
456.17	15992.88
456.36	16273.74
456.54	16727.81
456.73	16720.79
456.91	16786.32
457.09	16744.19
457.28	17003.99
457.46	16091.18
457.64	16578.01
457.83	15618.39
458.01	15555.20
458.19	15784.57
458.38	15969.48
458.56	16418.86
458.74	16517.16
458.93	16240.98
459.11	15829.04
459.29	15681.59
459.48	16037.35
459.66	15815.00
459.84	15953.09
460.03	16484.39
460.21	16556.95
460.39	17001.65
460.57	16837.81
460.76	17001.65
460.94	16996.97
461.12	16945.48
461.31	17053.14
461.49	17160.81
461.67	16952.50
461.85	17406.56
462.04	17078.89
462.22	17305.92
462.40	17451.03
462.59	17062.51
462.77	16940.80
462.95	17092.93
463.13	17305.92
463.32	16882.28
463.50	16568.65
463.68	16601.42
463.86	17109.32
464.05	16493.76
464.23	15704.99
464.41	15747.12
464.59	15840.75
464.78	16573.33
464.96	16456.31
465.14	16360.34
465.32	17048.46
465.50	17165.49
465.69	17502.53
465.87	16587.38
466.05	16425.88
466.23	15602.01
466.41	15948.41
466.60	16257.36
466.78	15997.56
466.96	16030.33
467.14	16409.50
467.32	16688.02
467.51	16418.86
467.69	15800.96
467.87	16116.93
468.05	16580.36
468.23	16402.47
468.41	16690.36
468.60	16580.36
468.78	16542.91
468.96	16697.38
469.14	16915.05
469.32	16751.21
469.50	16304.17
469.69	16430.56
469.87	15693.29
470.05	15754.15
470.23	15875.85
470.41	16470.35
470.59	16257.36
470.77	16414.18
470.95	16594.40
471.14	16856.54
471.32	17106.98
471.50	18324.05
471.68	18560.45
471.86	18118.09
472.04	17998.72
472.22	17898.08
472.40	17280.18
472.58	17067.19
472.77	16526.52
472.95	17554.02
473.13	17415.93
473.31	17392.52
473.49	17418.27
473.67	17696.79
473.85	17542.32
474.03	17764.67
474.21	17816.16
474.39	18064.25
474.57	18221.07
474.75	18328.74
474.93	18714.92
475.12	17706.15
475.30	18153.20
475.48	17949.57
475.66	18274.90
475.84	18052.55
476.02	17958.93
476.20	17734.24
476.38	18059.57
476.56	18359.16
476.74	18766.42
476.92	19119.84
477.10	19396.02
477.28	19681.56
477.46	19882.85
477.64	19981.15
477.82	19644.12
478.00	20037.33
478.18	19639.44
478.36	19604.33
478.54	19482.62
478.72	20044.35
478.90	21146.74
479.08	20699.70
479.26	20833.11
479.44	20655.23
479.62	20697.36
479.80	20856.51
479.98	21067.16
480.16	21291.85
480.34	21160.78
480.52	20964.18
480.70	21151.42
480.88	21270.79
481.06	21994.01
481.24	21891.03
481.41	22506.59
481.59	23199.39
481.77	22263.18
481.95	21942.52
482.13	22724.26
482.31	21558.67
482.49	22534.68
482.67	21876.99
482.85	22045.51
483.03	22209.34
483.21	22696.17
483.39	22820.22
483.57	23030.87
483.74	22658.73
483.92	22759.37
484.10	23098.75
484.28	23281.31
484.46	23421.74
484.64	22810.86
484.82	23241.52
485.00	22829.59
485.18	22101.68
485.35	21202.91
485.53	18967.70
485.71	17783.39
485.89	18455.12
486.07	19129.20
486.25	21034.39
486.43	21972.95
486.61	21303.56
486.78	21862.94
486.96	22728.94
487.14	23728.35
487.32	23847.72
487.50	24556.90
487.68	23878.15
487.85	24844.79
488.03	24788.61
488.21	24290.08
488.39	23129.17
488.57	23681.54
488.75	23873.46
488.92	25240.34
489.10	27267.24
489.28	26787.43
489.46	27873.44
489.64	28416.44
489.81	28044.30
489.99	26883.39
490.17	27637.05
490.35	28123.88
490.53	26792.11
490.70	26820.20
490.88	27168.94
491.06	28142.60
491.24	28002.17
491.41	26485.50
491.59	25209.91
491.77	25242.68
491.95	26265.49
492.13	26745.30
492.30	27896.85
492.48	29287.12
492.66	29160.73
492.84	28215.16
493.01	28201.11
493.19	27466.19
493.37	26920.84
493.54	27206.39
493.72	28615.39
493.90	29212.23
494.08	30260.79
494.25	30637.61
494.43	31185.30
494.61	31407.65
494.79	31328.07
494.96	31051.89
495.14	29940.13
495.32	29085.84
495.49	28788.59
495.67	29855.87
495.85	31632.34
496.02	31667.45
496.20	31519.99
496.38	31248.49
496.55	31098.70
496.73	31447.44
496.91	31054.23
497.09	31503.61
497.26	31641.70
497.44	31985.76
497.62	31012.10
497.79	30279.51
497.97	28903.28
498.14	29046.05
498.32	30532.29
498.50	30902.09
498.67	31826.60
498.85	31318.71
499.03	30408.24
499.20	31552.76
499.38	31534.04
499.56	30771.02
499.73	30939.54
499.91	30408.24
500.08	29439.26
500.26	29308.19
500.44	30169.51
500.61	31152.53
500.79	29944.81
500.97	29111.58
501.14	29673.31
501.32	28872.85
501.49	29085.84
501.67	29436.92
501.84	30562.72
502.02	30515.90
502.20	30822.51
502.37	31606.59
502.55	32074.70
502.72	32025.55
502.90	32369.61
503.07	32116.83
503.25	31924.91
503.43	30445.69
503.60	29270.74
503.78	29502.45
503.95	30022.05
504.13	30885.71
504.30	32205.77
504.48	32905.59
504.65	32105.13
504.83	31882.78
505.01	32180.03
505.18	32521.74
505.36	33673.29
505.53	33120.92
505.71	33680.31
505.88	33450.94
506.06	33287.10
506.23	32786.22
506.41	32123.85
506.58	32465.57
506.76	32238.54
506.93	32388.33
507.11	31084.65
507.28	32299.39
507.46	31166.57
507.63	30616.55
507.81	30536.97
507.98	30958.27
508.16	31964.70
508.33	32910.27
508.50	32147.26
508.68	32854.10
508.85	33682.65
509.03	33085.81
509.20	32348.54
509.38	32184.71
509.55	31344.45
509.73	32322.80
509.90	33251.99
510.08	32020.87
510.25	31569.15
510.42	31754.05
510.60	31969.38
510.77	32861.12
510.95	33787.97
511.12	32774.52
511.30	33371.36
511.47	34153.10
511.64	33090.49
511.82	33631.16
511.99	32737.07
512.17	32053.64
512.34	32093.43
512.51	31456.80
512.69	31711.92
512.86	32224.50
513.04	33092.83
513.21	32683.24
513.38	32531.11
513.56	31463.82
513.73	30588.46
513.90	30213.98
514.08	30801.45
514.25	31641.70
514.43	32058.32
514.60	32545.15
514.77	32002.14
514.95	32622.39
515.12	32240.88
515.29	32737.07
515.47	32996.87
515.64	32072.36
515.81	32767.50
515.99	32065.34
516.16	29591.39
516.33	27847.69
516.51	26141.44
516.68	25387.79
516.85	24884.58
517.03	26206.98
517.20	28173.03
517.37	31110.40
517.54	31030.82
517.72	28964.13
517.89	27496.61
518.06	26602.53
518.24	27871.10
518.41	29317.55
518.58	30368.45
518.75	30735.92
518.93	30745.28
519.10	30326.32
519.27	31009.76
519.45	31723.62
519.62	32329.82
519.79	32800.27
519.96	32421.10
520.14	31557.44
520.31	30888.05
520.48	30754.64
520.65	30955.93
520.83	31990.44
521.00	31826.60
521.17	31534.04
521.34	30834.22
521.52	31033.16
521.69	32568.55
521.86	32453.87
522.03	31578.51
522.20	30504.20
522.38	29235.63
522.55	29851.19
522.72	30707.83
522.89	30167.16
523.07	30967.63
523.24	31842.99
523.41	32292.37
523.58	32107.47
523.75	32168.32
523.92	33322.21
524.10	32971.13
524.27	32748.78
524.44	32849.42
524.61	33254.33
524.78	33085.81
524.96	32645.79
525.13	32769.84
525.30	33184.12
525.47	33493.07
525.64	33408.81
525.81	31077.63
525.98	29270.74
526.16	27948.34
526.33	27927.27
526.50	28395.38
526.67	28311.12
526.84	28409.42
527.01	29242.65
527.18	30714.85
527.36	31281.26
527.53	32177.68
527.70	31775.11
527.87	30249.08
528.04	30338.02
528.21	31576.17
528.38	32299.39
528.55	33137.30
528.72	32662.18
528.89	33282.42
529.07	33029.64
529.24	31056.57
529.41	31630.00
529.58	31222.75
529.75	30822.51
529.92	31002.74
530.09	31784.48
530.26	31529.36
530.43	30752.30
530.60	32554.51
530.77	32774.52
530.94	33675.63
531.11	32435.14
531.28	31789.16
531.46	32011.51
531.63	32074.70
531.80	32744.09
531.97	31140.83
532.14	29865.24
532.31	28793.27
532.48	28268.99
532.65	28374.31
532.82	29619.48
532.99	30534.63
533.16	31880.44
533.33	33123.26
533.50	31854.69
533.67	30883.37
533.84	31098.70
534.01	30604.84
534.18	31168.91
534.35	30906.77
534.52	30920.82
534.69	31105.72
534.86	31112.74
535.03	32243.22
535.20	32205.77
535.37	32524.08
535.54	32320.46
535.71	31690.85
535.88	31243.81
536.05	30139.08
536.22	30239.72
536.38	29427.56
536.55	30387.18
536.72	30008.01
536.89	30347.39
537.06	30639.95
537.23	30850.60
537.40	31035.50
537.57	30876.35
537.74	30235.04
537.91	30335.68
538.08	31952.99
538.25	31658.09
538.42	30703.15
538.59	31124.44
538.75	30913.80
538.92	30677.40
539.09	30005.67
539.26	28676.24
539.43	28390.70
539.60	28624.75
539.77	28797.95
539.94	28554.54
540.11	27934.29
540.28	26803.82
540.44	27999.83
540.61	28205.80
540.78	28610.71
540.95	29916.73
541.12	28919.66
541.29	30295.89
541.46	29750.55
541.62	29951.84
541.79	29078.82
541.96	28587.30
542.13	29457.98
542.30	29979.92
542.47	29893.32
542.63	29151.37
542.80	28133.24
542.97	28837.74
543.14	28271.33
543.31	28409.42
543.48	29546.92
543.64	30134.40
543.81	30562.72
543.98	29968.22
544.15	29450.96
544.32	28704.33
544.48	29701.40
544.65	28751.14
544.82	29158.39
544.99	29069.45
545.16	29446.28
545.32	29905.02
545.49	30174.19
545.66	30155.46
545.83	29907.37
546.00	29565.65
546.16	29067.11
546.33	29514.16
546.50	29949.50
546.67	29357.34
546.83	28889.23
547.00	28723.05
547.17	28205.80
547.34	28402.40
547.50	28938.38
547.67	28854.12
547.84	28348.57
548.00	28917.32
548.17	28177.71
548.34	28332.18
548.51	28456.23
548.67	29804.38
548.84	29287.12
549.01	30015.03
549.18	29743.53
549.34	30031.41
549.51	29577.35
549.68	29219.25
549.84	28603.69
550.01	28699.65
550.18	28034.94
550.34	28339.21
550.51	28013.87
550.68	27620.66
550.84	26457.42
551.01	27356.18
551.18	26913.82
551.34	27012.12
551.51	28133.24
551.68	29193.50
551.84	28285.37
552.01	28547.51
552.18	27864.08
552.34	27606.62
552.51	27578.53
552.68	28311.12
552.84	27859.40
553.01	27482.57
553.18	29219.25
553.34	28863.49
553.51	28603.69
553.67	27922.59
553.84	28943.06
554.01	29425.22
554.17	27604.28
554.34	28861.15
554.51	29153.71
554.67	28631.77
554.84	27910.89
555.00	28074.73
555.17	27903.87
555.33	27721.30
555.50	28690.29
555.67	28489.00
555.83	28180.05
556.00	27971.74
556.16	27814.93
556.33	27442.78
556.50	27292.99
556.66	26504.23
556.83	25986.97
556.99	26394.22
557.16	26754.66
557.32	26883.39
557.49	27021.48
557.65	27129.15
557.82	25834.83
557.98	26604.87
558.15	26979.36
558.32	26015.05
558.48	25490.77
558.65	24812.02
558.81	25490.77
558.98	25680.36
559.14	26085.27
559.31	26588.49
559.47	25685.04
559.64	25170.12
559.80	26902.12
559.97	26075.91
560.13	26649.34
560.30	26574.44
560.46	26948.93
560.63	27110.43
560.79	27442.78
560.96	26419.97
561.12	25993.99
561.29	26122.72
561.45	25378.43
561.61	25558.65
561.78	25532.90
561.94	25958.88
562.11	25584.40
562.27	26064.21
562.44	26569.76
562.60	25891.01
562.77	26534.65
562.93	25947.18
563.10	25743.55
563.26	25823.13
563.42	25069.48
563.59	25025.01
563.75	26071.23
563.92	25453.33
564.08	25757.60
564.24	24905.64
564.41	24280.72
564.57	24814.36
564.74	24163.69
564.90	24318.17
565.07	24247.95
565.23	23573.88
565.39	23711.97
565.56	25062.46
565.72	24460.94
565.88	25167.78
566.05	24503.07
566.21	24561.58
566.38	23592.60
566.54	24336.89
566.70	23559.83
566.87	24528.81
567.03	25755.26
567.19	26525.29
567.36	24285.40
567.52	25198.21
567.68	24318.17
567.85	24341.57
568.01	24409.45
568.17	23484.94
568.34	22630.64
568.50	22745.33
568.66	23405.36
568.83	23358.55
568.99	23995.17
569.15	23718.99
569.32	24140.29
569.48	24334.55
569.64	23810.27
569.81	22593.19
569.97	23187.69
570.13	23435.78
570.30	23379.61
570.46	22787.46
570.62	21809.11
570.78	21277.81
570.95	21614.85
571.11	22293.60
571.27	22452.76
571.43	22665.75
571.60	23047.26
571.76	23168.96
571.92	23644.09
572.09	23882.83
572.25	23601.96
572.41	24079.43
572.57	23901.55
572.74	23264.92
572.90	23384.29
573.06	23199.39
573.22	22602.55
573.38	22581.49
573.55	22356.80
573.71	22827.24
573.87	23098.75
574.03	23040.23
574.20	22963.00
574.36	22874.06
574.52	22848.31
574.68	22455.10
574.84	22045.51
575.01	22497.23
575.17	22728.94
575.33	22431.69
575.49	21891.03
575.65	22352.12
575.82	21811.45
575.98	21874.65
576.14	22277.22
576.30	21998.70
576.46	21333.98
576.62	22141.47
576.79	21848.90
576.95	21231.00
577.11	21504.84
577.27	21074.18
577.43	21348.03
577.59	21443.99
577.75	21872.31
577.92	21256.75
578.08	20727.78
578.24	20973.54
578.40	21083.55
578.56	21296.53
578.72	21179.51
578.88	21998.70
579.04	21764.64
579.21	21422.92
579.37	21804.43
579.53	21029.71
579.69	21092.91
579.85	20627.14
580.01	20526.50
580.17	20903.32
580.33	21275.47
580.49	20910.35
580.65	21231.00
580.82	21451.01
580.98	21357.39
581.14	20734.81
581.30	22001.04
581.46	21266.11
581.62	21165.46
581.78	21687.40
581.94	21851.24
582.10	21610.17
582.26	21319.94
582.42	21460.37
582.58	22424.67
582.74	22104.02
582.90	21261.43
583.06	21951.88
583.22	21591.44
583.38	21654.64
583.54	21544.63
583.70	21495.48
583.86	21233.34
584.02	21727.19
584.18	21401.86
584.34	21465.05
584.50	22176.58
584.66	22178.92
584.82	21397.18
584.98	21074.18
585.14	20774.60
585.30	20058.39
585.46	19807.95
585.62	19777.53
585.78	20400.11
585.94	20320.53
586.10	20472.67
586.26	20776.94
586.42	20570.97
586.58	20566.29
586.74	19709.65
586.90	19906.26
587.06	20280.74
587.22	19559.86
587.38	20166.06
587.54	19765.82
587.70	19758.80
587.86	19627.73
588.02	19543.47
588.18	19489.64
588.34	18539.38
588.49	18300.65
588.65	17095.27
588.81	16968.88
588.97	17479.12
589.13	16893.99
589.29	16896.33
589.45	17472.10
589.61	18752.37
589.77	18712.58
589.93	18953.66
590.08	19314.10
590.24	19709.65
590.40	18792.16
590.56	18789.82
590.72	18321.71
590.88	18464.49
591.04	18614.28
591.20	18838.97
591.35	18677.48
591.51	19803.27
591.67	19222.82
591.83	19187.71
591.99	18473.85
592.15	18621.30
592.31	18436.40
592.46	18092.34
592.62	18106.38
592.78	18881.10
592.94	18314.69
593.10	18597.90
593.26	18696.20
593.41	18733.65
593.57	18717.26
593.73	18373.21
593.89	18267.88
594.05	17703.81
594.20	17111.66
594.36	17565.72
594.52	18235.11
594.68	18265.54
594.84	17664.02
594.99	17935.53
595.15	18113.41
595.31	18242.14
595.47	17694.45
595.62	18115.75
595.78	17895.74
595.94	17937.87
596.10	17944.89
596.25	17638.28
596.41	18319.37
596.57	18022.12
596.73	17891.06
596.88	17869.99
597.04	17390.18
597.20	17275.49
597.36	17039.10
597.51	17228.68
597.67	17312.94
597.83	17118.68
597.99	17181.87
598.14	16276.09
598.30	16142.67
598.46	16070.12
598.61	16901.01
598.77	17408.90
598.93	18024.47
599.09	18019.78
599.24	17387.84
599.40	17242.73
599.56	17635.94
599.71	17500.19
599.87	17322.30
600.03	17612.53
600.18	17860.63
600.34	18167.24
600.50	17221.66
600.65	18010.42
600.81	18108.72
600.97	17638.28
601.12	16582.70
601.28	16833.13
601.44	16659.93
601.59	16482.05
601.75	16833.13
601.91	17149.11
602.06	16659.93
602.22	16968.88
602.37	17172.51
602.53	16875.26
602.69	16603.76
602.84	16641.21
603.00	17200.60
603.16	17081.23
603.31	16807.39
603.47	16861.22
603.62	16395.45
603.78	17509.55
603.94	17224.00
604.09	17554.02
604.25	17448.69
604.40	17266.13
604.56	17106.98
604.71	17160.81
604.87	17256.77
605.03	17743.60
605.18	16973.56
605.34	16540.57
605.49	16877.60
605.65	17174.85
605.80	16631.85
605.96	16470.35
606.12	16130.97
606.27	16217.57
606.43	16439.92
606.58	16503.12
606.74	16107.57
606.89	16713.77
607.05	16320.56
607.20	16643.55
607.36	16643.55
607.51	16645.89
607.67	16615.46
607.82	16519.50
607.98	16358.00
608.13	16358.00
608.29	16196.51
608.44	16091.18
608.60	15751.81
608.75	16006.92
608.91	15822.02
609.06	15763.51
609.22	15676.91
609.37	15983.52
609.53	16180.12
609.68	15531.80
609.84	15363.28
609.99	15283.70
610.15	14633.03
610.30	15007.52
610.46	15014.54
610.61	15140.93
610.76	15782.23
610.92	16397.79
611.07	16910.37
611.23	16678.66
611.38	16130.97
611.54	15508.39
611.69	14677.50
611.84	14553.45
612.00	14717.29
612.15	14614.30
612.31	15492.01
612.46	15197.10
612.62	15075.39
612.77	15222.84
612.92	15321.15
613.08	14864.74
613.23	14586.22
613.39	14565.15
613.54	14403.66
613.69	14347.48
613.85	14375.57
614.00	14387.27
614.15	14178.97
614.31	14218.75
614.46	14527.71
614.62	14572.18
614.77	14548.77
614.92	14408.34
615.08	14757.08
615.23	14855.38
615.38	14579.20
615.54	14139.18
615.69	13661.71
615.84	13291.90
616.00	13769.37
616.15	13851.29
616.30	13642.98
616.46	13390.20
616.61	13790.44
616.76	13715.54
616.92	14162.58
617.07	14530.05
617.22	14499.62
617.37	14326.42
617.53	13937.89
617.68	14160.24
617.83	14169.60
617.99	14258.54
618.14	14148.54
618.29	13881.72
618.45	13647.66
618.60	12840.18
618.75	13238.07
618.90	13568.09
619.06	13652.34
619.21	13970.66
619.36	13830.23
619.51	14019.81
619.67	13841.93
619.82	13668.73
619.97	13987.04
620.12	13767.03
620.28	13813.84
620.43	13731.92
620.58	13760.01
620.73	13905.12
620.89	14120.45
621.04	14010.45
621.19	13427.65
621.34	13596.17
621.49	13209.98
621.65	13516.59
621.80	13055.51
621.95	13348.08
622.10	13603.19
622.25	12702.09
622.41	12875.29
622.56	12996.99
622.71	13055.51
622.86	13371.48
623.01	13465.10
623.16	13362.12
623.32	13179.56
623.47	12681.02
623.62	13209.98
623.77	12919.76
623.92	12929.12
624.07	12510.16
624.23	12737.20
624.38	12437.61
624.53	13144.45
624.68	12571.02
624.83	12166.10
624.98	11740.13
625.13	12360.37
625.29	12182.49
625.44	12470.37
625.59	12453.99
625.74	12924.44
625.89	12407.18
626.04	12219.94
626.19	12222.28
626.34	12102.91
626.49	11812.68
626.65	11950.78
626.80	12437.61
626.95	12210.57
627.10	11992.90
627.25	11791.62
627.40	11206.48
627.55	11248.61
627.70	11283.72
627.85	11183.08
628.00	11585.65
628.15	11728.42
628.30	11531.82
628.45	11234.57
628.60	11524.80
628.76	11627.78
628.91	11396.07
629.06	11665.23
629.21	11698.00
629.36	11372.66
629.51	11590.33
629.66	11564.59
629.81	11321.17
629.96	11098.82
630.11	11447.56
630.26	11066.05
630.41	11103.50
630.56	11066.05
630.71	11126.91
630.86	10766.46
631.01	11042.65
631.16	10853.06
631.31	10471.56
631.46	10628.37
631.61	10764.12
631.76	11255.64
631.91	11405.43
632.06	11475.65
632.21	11482.67
632.36	12100.57
632.51	11651.19
632.66	11845.45
632.81	11531.82
632.96	11391.39
633.10	11176.06
633.25	11190.10
633.40	11426.50
633.55	11049.67
633.70	10588.58
633.85	10883.49
634.00	10827.32
634.15	10382.62
634.30	10377.94
634.45	10567.52
634.60	11178.40
634.75	11028.60
634.90	11105.84
635.05	10963.07
635.19	11059.03
635.34	10911.58
635.49	11112.86
635.64	11002.86
635.79	10291.34
635.94	10045.58
636.09	10162.61
636.24	10375.59
636.39	10516.03
636.53	10750.08
636.68	11068.39
636.83	11019.24
636.98	10913.92
637.13	10487.94
637.28	10778.17
637.43	10689.23
637.57	10836.68
637.72	10668.16
637.87	10684.55
638.02	10249.21
638.17	10782.85
638.32	10874.13
638.46	10148.56
638.61	10033.88
638.76	10164.95
638.91	10272.61
639.06	10670.50
639.20	10675.18
639.35	10691.57
639.50	10345.17
639.65	10370.91
639.80	10331.12
639.94	10436.45
640.09	10036.22
640.24	10249.21
640.39	10019.83
640.54	10338.15
640.68	10253.89
640.83	10324.10
640.98	10434.11
641.13	10045.58
641.27	9633.64
641.42	9509.60
641.57	9472.15
641.72	9458.10
641.86	9942.60
642.01	9989.41
642.16	10246.87
642.31	9930.89
642.45	10267.93
642.60	10078.35
642.75	10106.43
642.90	9837.27
643.04	10289.00
643.19	10038.56
643.34	9994.09
643.48	9383.21
643.63	9172.56
643.78	9205.33
643.93	9572.79
644.07	9570.45
644.22	10073.67
644.37	9635.99
644.51	9624.28
644.66	9277.88
644.81	9015.74
644.95	9465.13
645.10	9533.00
645.25	9362.14
645.39	9509.60
645.54	9254.48
645.69	8936.17
645.83	8950.21
645.98	8879.99
646.13	9291.93
646.27	9537.68
646.42	9427.68
646.57	9355.12
646.71	9291.93
646.86	9177.24
647.00	9085.96
647.15	8835.52
647.30	9465.13
647.44	9425.34
647.59	9090.64
647.74	8786.37
647.88	8683.39
648.03	8594.45
648.17	8739.56
648.32	8966.59
648.47	8765.31
648.61	8521.89
648.76	8212.94
648.90	8072.51
649.05	7669.94
649.20	7716.75
649.34	7939.10
649.49	7992.93
649.63	8257.41
649.78	8313.58
649.92	8503.17
650.07	8887.01
650.21	8823.82
650.36	8564.02
650.51	8383.80
650.65	8802.75
650.80	8678.71
650.94	8344.01
651.09	8561.68
651.23	8477.42
651.38	8692.75
651.52	8891.70
651.67	8477.42
651.81	9018.08
651.96	8711.47
652.10	8571.04
652.25	8327.63
652.39	8454.02
652.54	8786.37
652.68	8545.30
652.83	8760.63
652.97	8662.32
653.12	8479.76
653.26	8500.83
653.41	8348.69
653.55	8329.97
653.70	8549.98
653.84	8674.03
653.99	8482.10
654.13	8741.90
654.27	8252.73
654.42	8086.55
654.56	7908.67
654.71	7971.86
654.85	7899.31
655.00	7988.25
655.14	7801.01
655.29	7702.70
655.43	7660.57
655.57	7227.57
655.72	6518.39
655.86	6202.42
656.01	6045.60
656.15	6382.64
656.30	6862.45
656.44	7030.97
656.58	7066.08
656.73	7489.71
656.87	7588.02
657.01	7365.67
657.16	7166.72
657.30	7501.42
657.45	7571.63
657.59	7901.65
657.73	8046.76
657.88	7852.50
658.02	7691.00
658.16	7513.12
658.31	8009.31
658.45	8203.58
658.60	7939.10
658.74	7901.65
658.88	7819.73
659.03	7946.12
659.17	7864.20
659.31	7826.75
659.46	7784.62
659.60	7873.56
659.74	7758.88
659.89	7864.20
660.03	7889.95
660.17	7964.84
660.32	7847.82
660.46	7801.01
660.60	7510.78
660.74	7286.09
660.89	7702.70
661.03	7667.60
661.17	7520.14
661.32	7536.52
661.46	7517.80
661.60	7744.83
661.74	8021.02
661.89	7796.32
662.03	7454.61
662.17	7719.09
662.31	7866.54
662.46	8063.15
662.60	7822.07
662.74	7159.70
662.88	7286.09
663.03	7372.69
663.17	7349.28
663.31	7255.66
663.45	7080.12
663.60	7103.53
663.74	7075.44
663.88	7026.29
664.02	6825.00
664.17	6761.81
664.31	6846.07
664.45	6949.05
664.59	7201.83
664.73	6995.86
664.88	7063.74
665.02	7068.42
665.16	6986.50
665.30	7007.56
665.44	7080.12
665.59	7166.72
665.73	7215.87
665.87	7164.38
666.01	7431.20
666.15	7229.91
666.29	6993.52
666.44	6909.26
666.58	6817.98
666.72	6949.05
666.86	6913.94
667.00	7045.01
667.14	6810.96
667.28	6764.15
667.43	6956.07
667.57	6633.08
667.71	6670.53
667.85	6911.60
667.99	6773.51
668.13	6981.82
668.27	6654.14
668.41	6534.78
668.56	6525.41
668.70	6857.77
668.84	6478.60
668.98	6368.60
669.12	6663.51
669.26	6609.67
669.40	6555.84
669.54	6387.32
669.68	6076.03
669.82	5921.56
669.96	6195.40
670.10	6169.65
670.25	6122.84
670.39	6286.68
670.53	6101.78
670.67	6230.51
670.81	6366.26
670.95	6635.42
671.09	6359.24
671.23	5849.00
671.37	5870.06
671.51	6122.84
671.65	6317.11
671.79	6202.42
671.93	6076.03
672.07	6073.69
672.21	6146.25
672.35	6029.22
672.49	6097.10
672.63	6136.88
672.77	6080.71
672.91	5921.56
673.05	6076.03
673.19	6150.93
673.33	5804.53
673.47	5846.66
673.61	5741.33
673.75	5790.49
673.89	5797.51
674.03	5731.97
674.17	5951.98
674.31	5809.21
674.45	5895.81
674.59	5825.59
674.73	5837.30
674.87	5762.40
675.01	5734.31
675.15	5923.90
675.29	5680.48
675.43	5427.70
675.56	5586.86
675.70	5582.18
675.84	5483.88
675.98	5390.25
676.12	5526.00
676.26	5518.98
676.40	5556.43
676.54	5650.05
676.68	5416.00
676.82	5116.41
676.96	5172.58
677.10	5439.40
677.23	5310.68
677.37	5488.56
677.51	5444.09
677.65	5591.54
677.79	5139.82
677.93	5369.19
678.07	5680.48
678.21	5411.32
678.34	5357.49
678.48	5137.48
678.62	5458.13
678.76	5486.22
678.90	5308.34
679.04	5245.14
679.18	5364.51
679.31	5156.20
679.45	5327.06
679.59	5001.72
679.73	4992.36
679.87	4830.87
680.00	4791.08
680.14	5006.41
680.28	4975.98
680.42	4751.29
680.56	4793.42
680.70	4791.08
680.83	4594.47
680.97	4720.86
681.11	4702.14
681.25	4676.39
681.39	4479.79
681.52	4512.55
681.66	4631.92
681.80	4564.04
681.94	4629.58
682.07	4655.33
682.21	4631.92
682.35	4917.47
682.49	4489.15
682.62	4606.17
682.76	4777.03
682.90	4627.24
683.04	4512.55
683.17	4334.67
683.31	4402.55
683.45	4332.33
683.59	4322.97
683.72	4552.34
683.86	4325.31
684.00	4299.56
684.13	4444.68
684.27	4266.80
684.41	4344.03
684.55	4372.12
684.68	4320.63
684.82	4133.39
684.96	4161.47
685.09	3967.21
685.23	3992.95
685.37	3899.33
685.50	4044.45
685.64	4163.81
685.78	4084.23
685.91	3786.99
686.05	3693.37
686.19	3637.19
686.32	3653.58
686.46	3248.66
686.60	2761.83
686.73	2553.52
686.87	2298.41
687.01	2354.58
687.14	2478.63
687.28	2616.72
687.42	2850.77
687.55	3173.77
687.69	3208.87
687.82	3164.40
687.96	3152.70
688.10	3143.34
688.23	3178.45
688.37	3119.93
688.50	3164.40
688.64	2967.80
688.78	2895.24
688.91	2867.16
689.05	2883.54
689.18	2993.55
689.32	3063.76
689.46	2995.89
689.59	2951.42
689.73	2789.92
689.86	2853.11
690.00	2963.12
690.13	2972.48
690.27	3138.66
690.41	2913.97
690.54	2958.44
690.68	3070.78
690.81	3012.27
690.95	3045.04
691.08	3068.44
691.22	3208.87
691.35	3246.32
691.49	3183.13
691.62	3255.69
691.76	3096.53
691.89	3042.70
692.03	3126.96
692.16	3009.93
692.30	3014.61
692.43	3084.83
692.57	2951.42
692.70	3014.61
692.84	2911.63
692.97	2738.43
693.11	2834.39
693.24	2897.58
693.38	2892.90
693.51	2818.00
693.65	2700.98
693.78	2649.49
693.92	2668.21
694.05	2750.13
694.19	2689.28
694.32	2717.36
694.45	2710.34
694.59	2600.34
694.72	2916.31
694.86	2977.16
694.99	2902.26
695.13	2818.00
695.26	2801.62
695.39	2759.49
695.53	2574.59
695.66	2651.83
695.80	2574.59
695.93	2597.99
696.07	2581.61
696.20	2651.83
696.33	2595.65
696.47	2736.09
696.60	2719.70
696.73	2829.71
696.87	2724.38
697.00	2633.10
697.14	2675.23
697.27	2558.21
697.40	2417.77
697.54	2469.27
697.67	2466.92
697.80	2464.58
697.94	2277.34
698.07	2445.86
698.21	2363.94
698.34	2387.35
698.47	2469.27
698.61	2246.91
698.74	2338.20
698.87	2394.37
699.01	2328.83
699.14	2368.62
699.27	2296.07
699.40	2258.62
699.54	2349.90
699.67	2246.91
699.80	2200.10
699.94	2326.49
700.07	2263.30
700.20	2127.55
700.34	2162.66
700.47	2172.02
700.60	2186.06
700.73	2228.19
700.87	2139.25
701.00	2113.50
701.13	2078.40
701.26	2001.16
701.40	1937.96
701.53	2104.14
701.66	1973.07
701.79	1973.07
701.93	1891.15
702.06	1959.03
702.19	1989.46
702.32	2085.42
702.46	1884.13
702.59	1870.09
702.72	2008.18
702.85	1980.09
702.99	1994.14
703.12	1916.90
703.25	1982.43
703.38	1867.75
703.51	1827.96
703.65	1858.39
703.78	1980.09
703.91	1916.90
704.04	1949.67
704.17	1949.67
704.31	1944.99
704.44	1884.13
704.57	1851.36
704.70	1816.26
704.83	1806.89
704.96	1741.36
705.10	1797.53
705.23	1856.04
>>>>>End Processed Spectral Data<<<<<
