SpectraSuite Data File
++++++++++++++++++++++++++++++++++++
Date: Mon Oct 07 14:53:39 GMT-05:00 2013
User: price-jones
Dark Spectrum Present: No
Reference Spectrum Present: No
Number of Sampled Component Spectra: 1
Spectrometers: USB2+H05261
Integration Time (usec): 100000 (USB2+H05261)
Spectra Averaged: 1 (USB2+H05261)
Boxcar Smoothing: 0 (USB2+H05261)
Correct for Electrical Dark: No (USB2+H05261)
Strobe/Lamp Enabled: No (USB2+H05261)
Correct for Detector Non-linearity: No (USB2+H05261)
Correct for Stray Light: No (USB2+H05261)
Number of Pixels in Processed Spectrum: 2048
>>>>>Begin Processed Spectral Data<<<<<
365.73	0.00
365.92	0.00
366.12	0.00
366.32	0.00
366.52	0.00
366.72	0.00
366.91	0.00
367.11	0.00
367.31	0.00
367.51	0.00
367.70	0.00
367.90	0.00
368.10	0.00
368.30	0.00
368.49	0.00
368.69	0.00
368.89	0.00
369.09	0.00
369.28	0.00
369.48	0.00
369.68	0.00
369.87	0.00
370.07	0.00
370.27	0.00
370.47	238.73
370.66	1907.54
370.86	2197.76
371.06	2469.27
371.25	2593.31
371.45	2289.04
371.65	2162.66
371.84	1839.66
372.04	2038.61
372.24	2298.41
372.44	2399.05
372.63	2256.28
372.83	2172.02
373.03	1809.23
373.22	1703.91
373.42	1834.98
373.62	2143.93
373.81	2363.94
374.01	2342.88
374.21	2090.10
374.40	1956.69
374.60	2101.80
374.79	2263.30
374.99	2670.55
375.19	2843.75
375.38	2932.69
375.58	2698.64
375.78	2628.42
375.97	2752.47
376.17	2867.16
376.37	2827.37
376.56	2881.20
376.76	3108.23
376.95	3379.73
377.15	3349.31
377.35	3679.32
377.54	3918.06
377.74	3878.27
377.93	3927.42
378.13	3646.55
378.33	3555.27
378.52	3328.24
378.72	3117.59
378.91	3021.63
379.11	3019.29
379.31	2916.31
379.50	2951.42
379.70	3133.98
379.89	3494.42
380.09	3749.54
380.28	3871.25
380.48	3908.69
380.68	3735.50
380.87	3714.43
381.07	3353.99
381.26	3208.87
381.46	2918.65
381.65	2871.84
381.85	2785.24
382.04	2431.82
382.24	2392.03
382.43	2305.43
382.63	2345.22
382.83	2387.35
383.02	2282.02
383.22	2293.72
383.41	2326.49
383.61	2527.78
383.80	2841.41
384.00	3246.32
384.19	3449.95
384.39	3744.86
384.58	3705.07
384.78	3707.41
384.97	3723.79
385.17	3482.72
385.36	3274.41
385.56	3070.78
385.75	3159.72
385.95	3478.04
386.14	3899.33
386.34	3978.91
386.53	3695.71
386.72	3508.46
386.92	3637.19
387.11	3702.73
387.31	3962.53
387.50	3784.65
387.70	3695.71
387.89	3700.39
388.09	3709.75
388.28	3772.94
388.48	3719.11
388.67	4053.81
388.86	4643.62
389.06	4795.76
389.25	4987.68
389.45	5111.73
389.64	5100.03
389.84	5071.94
390.03	4938.53
390.22	4887.04
390.42	5128.11
390.61	5509.62
390.81	5870.06
391.00	5980.07
391.19	5951.98
391.39	5734.31
391.58	5322.38
391.78	4870.65
391.97	4905.76
392.16	4685.75
392.36	4102.96
392.55	3379.73
392.75	2647.15
392.94	2087.76
393.13	2099.46
393.33	2459.90
393.52	3206.53
393.71	3941.46
393.91	4440.00
394.10	4744.27
394.29	5521.32
394.49	5760.06
394.68	6242.21
394.88	6502.01
395.07	6497.33
395.26	6324.13
395.46	6218.80
395.65	5998.79
395.84	5195.99
396.04	4334.67
396.23	3562.30
396.42	2995.89
396.62	2715.02
396.81	3267.39
397.00	4126.36
397.19	5221.74
397.39	6293.70
397.58	7098.84
397.77	7681.64
397.97	7765.90
398.16	8102.93
398.35	8088.89
398.55	8414.23
398.74	8678.71
398.93	8915.10
399.12	8835.52
399.32	8531.25
399.51	8664.66
399.70	9254.48
399.90	9139.79
400.09	9324.69
400.28	9135.11
400.47	9095.32
400.67	9483.85
400.86	9652.37
401.05	10085.37
401.24	9771.74
401.44	10120.48
401.63	9877.06
401.82	10312.40
402.01	10181.33
402.21	10345.17
402.40	10293.68
402.59	9928.55
402.78	9659.39
402.97	9434.70
403.17	9720.24
403.36	10059.62
403.55	10534.75
403.74	10787.53
403.93	10338.15
404.13	9458.10
404.32	9245.12
404.51	9699.18
404.70	10424.75
404.89	10548.79
405.09	10267.93
405.28	9989.41
405.47	9818.55
405.66	10085.37
405.85	9689.82
406.05	9715.56
406.24	9549.39
406.43	10174.31
406.62	10377.94
406.81	10541.77
407.00	10202.40
407.20	9886.42
407.39	10080.69
407.58	10382.62
407.77	10703.27
407.96	11145.63
408.15	11262.66
408.34	11562.25
408.54	11936.73
408.73	11943.75
408.92	11611.40
409.11	11468.62
409.30	10965.41
409.49	10169.63
409.68	9689.82
409.87	9217.03
410.07	10047.92
410.26	10691.57
410.45	11424.15
410.64	11604.38
410.83	11707.36
411.02	12161.42
411.21	12720.81
411.40	12650.60
411.59	12519.53
411.78	12477.40
411.98	12421.22
412.17	12594.42
412.36	12519.53
412.55	12423.56
412.74	12116.95
412.93	11798.64
413.12	12046.74
413.31	13179.56
413.50	13069.55
413.69	13851.29
413.88	13027.42
414.07	12439.95
414.26	12879.97
414.45	13095.30
414.64	13097.64
414.83	13296.58
415.02	12727.83
415.22	13071.89
415.41	13453.40
415.60	13504.89
415.79	14380.25
415.98	14618.99
416.17	14523.02
416.36	14054.92
416.55	13837.25
416.74	13504.89
416.93	13261.48
417.12	13013.38
417.31	13345.73
417.50	13748.31
417.69	14045.55
417.88	13783.41
418.07	13673.41
418.26	13792.78
418.45	13675.75
418.64	14232.80
418.83	14600.26
419.02	14614.30
419.21	14520.68
419.39	14003.43
419.58	13001.68
419.77	13308.29
419.96	13823.20
420.15	14368.55
420.34	14902.19
420.53	15377.32
420.72	15906.28
420.91	15623.08
421.10	15609.03
421.29	15161.99
421.48	14815.59
421.67	15393.70
421.86	14927.94
422.05	13912.14
422.24	12582.72
422.43	12318.24
422.61	13795.12
422.80	15225.18
422.99	15059.01
423.18	14696.22
423.37	14291.31
423.56	14136.84
423.75	14448.13
423.94	14956.02
424.13	13914.48
424.32	13975.34
424.50	14204.71
424.69	14008.11
424.88	14057.26
425.07	14019.81
425.26	14073.64
425.45	13912.14
425.64	13413.61
425.83	13427.65
426.01	14253.86
426.20	14738.35
426.39	14806.23
426.58	13586.81
426.77	12437.61
426.96	12095.89
427.15	12681.02
427.33	13453.40
427.52	14061.94
427.71	14209.39
427.90	14015.13
428.09	13944.91
428.28	13886.40
428.46	13088.28
428.65	13090.62
428.84	13146.79
429.03	13645.32
429.22	12664.64
429.40	12226.96
429.59	11103.50
429.78	9523.64
429.97	9834.93
430.16	9783.44
430.34	9994.09
430.53	9804.50
430.72	10031.54
430.91	11276.70
431.10	12791.03
431.28	15562.22
431.47	16741.85
431.66	17057.82
431.85	15417.11
432.03	14324.08
432.22	13701.50
432.41	14253.86
432.60	15583.29
432.79	16369.71
432.97	16774.62
433.16	16421.20
433.35	15047.30
433.54	13305.95
433.72	12582.72
433.91	12957.21
434.10	14387.27
434.28	15393.70
434.47	16149.70
434.66	16072.46
434.85	15644.14
435.03	15784.57
435.22	16278.43
435.41	16877.60
435.59	17198.26
435.78	17022.72
435.97	17516.57
436.16	17783.39
436.34	17734.24
436.53	17076.55
436.72	16952.50
436.90	16411.84
437.09	16180.12
437.28	15826.70
437.46	16379.07
437.65	16362.69
437.84	15606.69
438.02	13954.27
438.21	13975.34
438.40	14607.28
438.58	16102.89
438.77	16203.53
438.96	16666.95
439.14	17069.53
439.33	17612.53
439.52	18169.58
439.70	17661.68
439.89	17334.01
440.08	16788.66
440.26	16683.34
440.45	17455.72
440.63	18405.97
440.82	19681.56
441.01	19222.82
441.19	19316.44
441.38	19094.09
441.57	20011.58
441.75	20348.62
441.94	20463.30
442.12	20023.28
442.31	20545.22
442.50	20386.07
442.68	20133.29
442.87	20409.47
443.05	19803.27
443.24	20156.69
443.43	20638.84
443.61	20910.35
443.80	21364.41
443.98	20240.95
444.17	20053.71
444.35	21139.72
444.54	21163.12
444.73	21364.41
444.91	20407.13
445.10	19754.12
445.28	18792.16
445.47	18717.26
445.65	18497.25
445.84	19236.86
446.02	19674.54
446.21	20308.83
446.39	20027.96
446.58	20397.77
446.77	20739.49
446.95	20809.70
447.14	21495.48
447.32	21851.24
447.51	21266.11
447.69	20875.24
447.88	20215.21
448.06	20320.53
448.25	21174.83
448.43	21158.44
448.62	20374.36
448.80	20528.84
448.99	20889.28
449.17	20954.82
449.36	20865.88
449.54	21647.61
449.73	22094.66
449.91	22354.46
450.10	22951.29
450.28	22937.25
450.46	23103.43
450.65	23424.08
450.83	23201.73
451.02	22487.87
451.20	22640.00
451.39	22499.57
451.57	22195.30
451.76	22059.55
451.94	22230.41
452.13	21565.70
452.31	20856.51
452.49	19733.06
452.68	20027.96
452.86	19948.39
453.05	20386.07
453.23	21041.42
453.42	21226.32
453.60	22008.06
453.78	22370.84
453.97	22169.55
454.15	21542.29
454.34	21497.82
454.52	21942.52
454.70	21418.24
454.89	21277.81
455.07	21460.37
455.26	21797.41
455.44	22682.13
455.62	23199.39
455.81	23019.17
455.99	22785.12
456.17	23222.80
456.36	22885.76
456.54	23344.50
456.73	23328.12
456.91	23697.92
457.09	24156.67
457.28	24517.11
457.46	23597.28
457.64	23147.90
457.83	22478.50
458.01	22277.22
458.19	22492.55
458.38	22693.83
458.56	23337.48
458.74	23370.25
458.93	23161.94
459.11	22712.56
459.29	22632.98
459.48	22841.29
459.66	22490.21
459.84	23234.50
460.03	23405.36
460.21	23475.57
460.39	23899.21
460.57	23857.08
460.76	24121.56
460.94	24304.12
461.12	23836.02
461.31	24308.80
461.49	23955.38
461.67	24095.82
461.85	24828.40
462.04	24430.51
462.22	25214.59
462.40	24952.45
462.59	24741.80
462.77	24671.59
462.95	24680.95
463.13	24184.76
463.32	24046.66
463.50	24147.31
463.68	24011.56
463.86	23939.00
464.05	23915.59
464.23	22941.93
464.41	23288.33
464.59	22604.89
464.78	23812.61
464.96	23463.87
465.14	23459.19
465.32	23859.42
465.50	24723.08
465.69	25462.69
465.87	24290.08
466.05	24023.26
466.23	22810.86
466.41	21998.70
466.60	22864.69
466.78	22841.29
466.96	23138.54
467.14	23421.74
467.32	24128.58
467.51	24182.42
467.69	23197.05
467.87	23293.01
468.05	23845.38
468.23	23936.66
468.41	23826.65
468.60	23960.06
468.78	24081.77
468.96	23864.10
469.14	24402.43
469.32	24479.66
469.50	23424.08
469.69	23386.63
469.87	23030.87
470.05	23396.00
470.23	22923.21
470.41	23623.03
470.59	23583.24
470.77	23545.79
470.95	23885.17
471.14	24482.00
471.32	24573.28
471.50	25776.32
471.68	25834.83
471.86	25970.58
472.04	25972.92
472.22	26515.93
472.40	25029.69
472.58	24865.85
472.77	24411.79
472.95	25142.03
473.13	25797.38
473.31	25472.05
473.49	25057.78
473.67	25802.07
473.85	26033.78
474.03	26277.19
474.21	26363.79
474.39	26897.44
474.57	27295.33
474.75	27000.42
474.93	26419.97
475.12	26096.97
475.30	26342.73
475.48	26382.52
475.66	26747.64
475.84	26567.42
476.02	25996.33
476.20	25809.09
476.38	26094.63
476.56	27194.68
476.74	27681.52
476.92	27639.39
477.10	28004.51
477.28	28837.74
477.46	28664.54
477.64	29139.67
477.82	29591.39
478.00	29294.14
478.18	28821.36
478.36	28360.27
478.54	28713.69
478.72	28861.15
478.90	29668.63
479.08	30356.75
479.26	31122.10
479.44	30845.92
479.62	30871.67
479.80	30607.19
479.98	31072.95
480.16	31070.61
480.34	30448.03
480.52	31360.84
480.70	31653.40
480.88	31264.88
481.06	31859.37
481.24	32123.85
481.41	32542.81
481.59	33198.16
481.77	32631.75
481.95	32580.26
482.13	31805.54
482.31	32573.24
482.49	32926.66
482.67	32996.87
482.85	33141.99
483.03	33574.98
483.21	33766.91
483.39	33584.35
483.57	33488.38
483.74	33242.63
483.92	33060.07
484.10	33469.66
484.28	34604.82
484.46	34918.45
484.64	34890.37
484.82	33993.94
485.00	33525.83
485.18	33516.47
485.35	32156.62
485.53	29745.87
485.71	27080.00
485.89	26487.84
486.07	27852.38
486.25	30862.30
486.43	32561.53
486.61	32833.04
486.78	32683.24
486.96	33141.99
487.14	34099.26
487.32	35674.45
487.50	36591.94
487.68	37188.77
487.85	37659.22
488.03	37813.70
488.21	37263.67
488.39	36271.28
488.57	35814.88
488.75	35529.33
488.92	36687.90
489.10	38965.24
489.28	40367.22
489.46	41207.47
489.64	40999.16
489.81	41146.62
489.99	40718.30
490.17	40620.00
490.35	41570.25
490.53	40727.66
490.70	40474.88
490.88	40025.50
491.06	41429.82
491.24	41317.48
491.41	39924.86
491.59	38562.67
491.77	37340.91
491.95	38349.68
492.13	39679.10
492.30	41291.73
492.48	43028.41
492.66	43056.50
492.84	43154.80
493.01	42747.54
493.19	41834.74
493.37	41677.92
493.54	41511.74
493.72	42045.38
493.90	43395.87
494.08	44697.21
494.25	45141.91
494.43	45378.31
494.61	45806.62
494.79	46099.19
494.96	45757.47
495.14	44884.45
495.32	43997.39
495.49	42483.06
495.67	43920.15
495.85	45986.85
496.02	46815.40
496.20	46401.12
496.38	46012.59
496.55	45368.94
496.73	46511.13
496.91	46366.01
497.09	47255.42
497.26	47445.00
497.44	47079.88
497.62	46213.88
497.79	45067.02
497.97	43550.35
498.14	43391.19
498.32	45038.93
498.50	46206.86
498.67	46843.48
498.85	46925.40
499.03	47110.30
499.20	47585.43
499.38	47683.73
499.56	47136.05
499.73	46611.77
499.91	45986.85
500.08	45397.03
500.26	44467.84
500.44	44800.19
500.61	45851.09
500.79	45832.37
500.97	45347.88
501.14	45212.13
501.32	44772.11
501.49	44982.76
501.67	44863.39
501.84	45914.29
502.02	46223.24
502.20	46822.42
502.37	47147.75
502.55	46930.08
502.72	47709.48
502.90	48617.61
503.07	47730.54
503.25	47400.53
503.43	46153.02
503.60	45483.63
503.78	44360.17
503.95	45188.72
504.13	47047.11
504.30	48449.09
504.48	48252.48
504.65	47416.91
504.83	47494.15
505.01	48247.80
505.18	48891.45
505.36	49741.06
505.53	49834.69
505.71	49940.01
505.88	49972.78
506.06	49137.21
506.23	48854.00
506.41	48224.40
506.58	48327.38
506.76	48535.69
506.93	48603.56
507.11	48418.66
507.28	48079.28
507.46	47559.69
507.63	47173.50
507.81	46822.42
507.98	47288.18
508.16	47980.98
508.33	48956.99
508.50	49127.84
508.68	49361.90
508.85	50330.88
509.03	50227.90
509.20	49991.50
509.38	48966.35
509.55	47929.49
509.73	47945.87
509.90	48765.06
510.08	49155.93
510.25	49195.72
510.42	48907.83
510.60	48516.96
510.77	49188.70
510.95	49848.73
511.12	50220.87
511.30	50398.76
511.47	50939.42
511.64	50923.04
511.82	50143.64
511.99	48877.41
512.17	48863.36
512.34	48144.82
512.51	48502.92
512.69	48772.08
512.86	48776.76
513.04	49565.52
513.21	49392.33
513.38	48774.42
513.56	48212.70
513.73	47070.51
513.90	47433.30
514.08	47854.59
514.25	48198.65
514.43	48224.40
514.60	48755.70
514.77	48772.08
514.95	49221.47
515.12	48830.60
515.29	49104.44
515.47	49785.54
515.64	50115.55
515.81	49382.96
515.99	48755.70
516.16	47042.43
516.33	43477.79
516.51	41294.07
516.68	40397.65
516.85	40217.43
517.03	40697.24
517.20	43981.01
517.37	47580.75
517.54	48861.02
517.72	48175.25
517.89	45036.59
518.06	41584.30
518.24	41879.21
518.41	44842.32
518.58	47016.68
518.75	47409.89
518.93	47262.44
519.10	47334.99
519.27	47950.56
519.45	48435.05
519.62	49074.01
519.79	49822.98
519.96	49450.84
520.14	48964.01
520.31	47721.18
520.48	47828.85
520.65	48154.18
520.83	49514.03
521.00	50061.72
521.17	49705.96
521.34	49081.03
521.52	49256.57
521.69	50127.25
521.86	51009.64
522.03	50356.63
522.20	48949.96
522.38	47157.11
522.55	47246.05
522.72	48072.26
522.89	48355.47
523.07	48781.45
523.24	49394.67
523.41	50468.97
523.58	50506.42
523.75	51255.39
523.92	50869.20
524.10	50796.65
524.27	50827.07
524.44	50679.62
524.61	50351.94
524.78	50225.56
524.96	49982.14
525.13	50255.98
525.30	50604.72
525.47	51222.62
525.64	51042.40
525.81	50094.49
525.98	47648.63
526.16	46335.59
526.33	44767.43
526.50	44683.17
526.67	44182.29
526.84	44917.22
527.01	46288.77
527.18	47512.88
527.36	48374.19
527.53	49771.49
527.70	50227.90
527.87	49434.45
528.04	48704.21
528.21	49914.26
528.38	50637.49
528.55	51381.78
528.72	51852.23
528.89	51725.84
529.07	51349.01
529.24	50717.07
529.41	49680.21
529.58	49078.69
529.75	48746.34
529.92	49984.48
530.09	50218.53
530.26	50794.31
530.43	51311.56
530.60	51391.14
530.77	51653.28
530.94	51906.06
531.11	51054.11
531.28	50403.44
531.46	50251.30
531.63	50464.29
531.80	50534.51
531.97	49982.14
532.14	49291.68
532.31	47555.00
532.48	46906.68
532.65	46550.91
532.82	47978.64
532.99	49130.19
533.16	49741.06
533.33	50405.78
533.50	50408.12
533.67	49127.84
533.84	49125.50
534.01	49153.59
534.18	49530.42
534.35	49736.38
534.52	49640.42
534.69	49961.08
534.86	50642.17
535.03	50892.61
535.20	51124.32
535.37	51648.60
535.54	51529.23
535.71	51253.05
535.88	50686.64
536.05	49874.48
536.22	49705.96
536.38	49059.97
536.55	48334.40
536.72	47487.13
536.89	47512.88
537.06	48978.05
537.23	49993.84
537.40	50122.57
537.57	50351.94
537.74	49778.51
537.91	50089.80
538.08	49804.26
538.25	49897.88
538.42	50305.13
538.59	49799.58
538.75	48947.62
538.92	48596.54
539.09	48793.15
539.26	48208.01
539.43	48114.39
539.60	47744.59
539.77	48713.57
539.94	48631.65
540.11	47449.68
540.28	46424.53
540.44	46735.82
540.61	46871.57
540.78	47208.61
540.95	48154.18
541.12	48367.17
541.29	48811.87
541.46	49287.00
541.62	49382.96
541.79	49155.93
541.96	48362.49
542.13	48311.00
542.30	48369.51
542.47	48870.39
542.63	48425.68
542.80	48409.30
542.97	48538.03
543.14	48360.15
543.31	48161.20
543.48	49085.72
543.64	50101.51
543.81	50356.63
543.98	50541.53
544.15	49542.12
544.32	48491.22
544.48	48531.01
544.65	48966.35
544.82	49677.87
544.99	49179.34
545.16	49036.56
545.32	48603.56
545.49	49921.29
545.66	50157.68
545.83	49593.61
546.00	49242.53
546.16	48870.39
546.33	48685.48
546.50	48704.21
546.67	49305.73
546.83	48835.28
547.00	48626.97
547.17	47679.05
547.34	46988.60
547.50	46721.77
547.67	47580.75
547.84	47753.95
548.00	48002.05
548.17	48596.54
548.34	48790.81
548.51	48825.92
548.67	48893.79
548.84	48858.68
549.01	48786.13
549.18	48645.69
549.34	48912.52
549.51	48673.78
549.68	48161.20
549.84	47819.49
550.01	47775.02
550.18	47817.14
550.34	47569.05
550.51	47922.47
550.68	47969.28
550.84	47578.41
551.01	47569.05
551.18	47648.63
551.34	47845.23
551.51	48161.20
551.68	48779.10
551.84	48889.11
552.01	48423.34
552.18	48442.07
552.34	47297.55
552.51	46607.09
552.68	46412.82
552.84	47760.97
553.01	47480.11
553.18	47585.43
553.34	47496.49
553.51	47910.77
553.67	48467.81
553.84	48313.34
554.01	48320.36
554.17	47732.89
554.34	47903.74
554.51	47934.17
554.67	48839.96
554.84	48671.44
555.00	48137.80
555.17	47648.63
555.33	47393.51
555.50	47405.21
555.67	47686.07
555.83	47435.64
556.00	46927.74
556.16	46522.83
556.33	46162.39
556.50	46052.38
556.66	46197.49
556.83	45743.43
556.99	46204.52
557.16	45923.65
557.32	46403.46
557.49	46878.59
557.65	46394.10
557.82	46649.22
557.98	46555.60
558.15	46096.85
558.32	44825.94
558.48	43913.13
558.65	43866.32
558.81	44210.38
558.98	44905.52
559.14	44926.58
559.31	45336.18
559.47	45289.37
559.64	44769.77
559.80	44439.75
559.97	44165.91
560.13	45111.49
560.30	46251.33
560.46	46721.77
560.63	47194.56
560.79	47437.98
560.96	46639.86
561.12	45422.78
561.29	44442.09
561.45	44149.53
561.61	45226.17
561.78	44957.01
561.94	45394.69
562.11	45127.87
562.27	44954.67
562.44	45228.51
562.60	45904.93
562.77	45867.48
562.93	45668.53
563.10	45603.00
563.26	44626.99
563.42	44952.33
563.59	44832.96
563.75	45123.19
563.92	44411.67
564.08	44828.28
564.24	45378.31
564.41	45310.43
564.57	44652.74
564.74	45240.21
564.90	45282.34
565.07	44619.97
565.23	44170.59
565.39	43274.16
565.56	43143.09
565.72	42628.18
565.88	43618.22
566.05	43185.22
566.21	43391.19
566.38	44130.80
566.54	43999.73
566.70	44559.12
566.87	44776.79
567.03	44933.60
567.19	44968.71
567.36	44664.44
567.52	44676.15
567.68	44481.88
567.85	42939.47
568.01	42799.04
568.17	42438.59
568.34	42155.39
568.50	42298.16
568.66	42225.60
568.83	43119.69
568.99	43232.04
569.15	43185.22
569.32	43592.48
569.48	43178.20
569.64	42581.37
569.81	42494.77
569.97	42101.56
570.13	42227.95
570.30	41235.56
570.46	41062.36
570.62	40076.99
570.78	40264.24
570.95	40517.01
571.11	41361.95
571.27	41759.84
571.43	41909.63
571.60	42050.06
571.76	42567.32
571.92	42923.08
572.09	43103.31
572.25	43126.71
572.41	43119.69
572.57	42539.24
572.74	42806.06
572.90	42440.93
573.06	42354.33
573.22	42120.28
573.38	42241.99
573.55	42373.06
573.71	42679.67
573.87	42333.27
574.03	42202.20
574.20	42117.94
574.36	41588.98
574.52	41862.82
574.68	41401.74
574.84	40818.94
575.01	40615.32
575.17	40149.55
575.33	40451.48
575.49	41034.27
575.65	40732.34
575.82	40821.28
575.98	40357.86
576.14	41008.53
576.30	41083.42
576.46	41287.05
576.62	41497.70
576.79	41350.24
576.95	40699.58
577.11	40870.43
577.27	40842.35
577.43	40999.16
577.59	40304.02
577.75	40250.19
577.92	39199.29
578.08	38752.25
578.24	38841.19
578.40	39807.83
578.56	39920.18
578.72	39627.61
578.88	39601.86
579.04	40514.67
579.21	40271.26
579.37	40404.67
579.53	40477.22
579.69	40346.15
579.85	40739.36
580.01	40636.38
580.17	40027.84
580.33	39608.89
580.49	39845.28
580.65	40259.55
580.82	40098.06
580.98	40378.92
581.14	40322.75
581.30	40617.66
581.46	39943.58
581.62	40751.07
581.78	40788.52
581.94	40112.10
582.10	40343.81
582.26	40847.03
582.42	40889.16
582.58	40772.13
582.74	40596.59
582.90	41127.89
583.06	40336.79
583.22	40472.54
583.38	40011.46
583.54	40191.68
583.70	40046.57
583.86	40226.79
584.02	39723.57
584.18	40018.48
584.34	39910.82
584.50	39648.68
584.66	39419.30
584.82	38923.11
584.98	38824.81
585.14	38576.71
585.30	38026.68
585.46	37642.84
585.62	37801.99
585.78	38003.28
585.94	37895.61
586.10	38543.94
586.26	38429.26
586.42	38965.24
586.58	39510.58
586.74	38766.29
586.90	39281.21
587.06	38670.33
587.22	38852.89
587.38	38565.01
587.54	38632.88
587.70	38293.50
587.86	37319.84
588.02	37235.58
588.18	37361.97
588.34	36119.15
588.49	33993.94
588.65	32470.25
588.81	32210.45
588.97	32339.18
589.13	32219.81
589.29	32158.96
589.45	33165.39
589.61	33727.12
589.77	35412.31
589.93	35887.43
590.08	36774.50
590.24	36879.82
590.40	36884.50
590.56	37160.69
590.72	36671.51
590.88	36521.72
591.04	36065.31
591.20	36348.52
591.35	36327.45
591.51	36137.87
591.67	35852.33
591.83	36041.91
591.99	35571.46
592.15	36088.72
592.31	36659.81
592.46	36601.30
592.62	35896.80
592.78	35789.13
592.94	35761.05
593.10	35782.11
593.26	36222.13
593.41	36605.98
593.57	36334.48
593.73	35747.00
593.89	35952.97
594.05	35524.65
594.20	35306.98
594.36	34909.09
594.52	34480.77
594.68	34829.51
594.84	35206.34
594.99	34902.07
595.15	34969.94
595.31	35302.30
595.47	34792.06
595.62	35526.99
595.78	36081.70
595.94	36067.66
596.10	36039.57
596.25	35599.55
596.41	35321.02
596.57	34881.00
596.73	35669.76
596.88	35817.22
597.04	35278.89
597.20	35189.95
597.36	34644.61
597.51	34607.16
597.67	35082.29
597.83	35103.35
597.99	34815.47
598.14	34572.05
598.30	34352.04
598.46	34396.51
598.61	34644.61
598.77	34644.61
598.93	34763.98
599.09	34684.40
599.24	35402.94
599.40	34869.30
599.56	34717.17
599.71	34632.91
599.87	34792.06
600.03	34761.64
600.18	33876.91
600.34	34251.40
600.50	33366.68
600.65	33729.46
600.81	34469.07
600.97	34293.53
601.12	33947.13
601.28	34033.73
601.44	34197.57
601.59	33830.10
601.75	33436.89
601.91	33034.32
602.06	33006.23
602.22	33525.83
602.37	33429.87
602.53	33851.17
602.69	33656.90
602.84	34328.64
603.00	34646.95
603.16	34686.74
603.31	34424.60
603.47	34543.97
603.62	34199.91
603.78	33958.83
603.94	33848.83
604.09	33544.56
604.25	33603.07
604.40	33942.45
604.56	33865.21
604.71	34043.09
604.87	33916.70
605.03	33092.83
605.18	33600.73
605.34	33743.50
605.49	33390.08
605.65	33750.52
605.80	33425.19
605.96	33233.27
606.12	32889.21
606.27	33359.66
606.43	33041.34
606.58	33031.98
606.74	33149.01
606.89	33324.55
607.05	33497.75
607.20	33078.79
607.36	32753.46
607.51	32629.41
607.67	32369.61
607.82	32313.44
607.98	32664.52
608.13	32086.40
608.29	32198.75
608.44	32266.63
608.60	32013.85
608.75	32573.24
608.91	32355.57
609.06	32428.12
609.22	32329.82
609.37	31969.38
609.53	32259.60
609.68	31498.93
609.84	30984.01
609.99	31009.76
610.15	31119.76
610.30	31587.87
610.46	31578.51
610.61	31995.12
610.76	32446.85
610.92	32395.35
611.07	33027.30
611.23	32430.46
611.38	32491.32
611.54	32554.51
611.69	31307.01
611.84	30878.69
612.00	30668.04
612.15	31070.61
612.31	30820.17
612.46	30731.23
612.62	31072.95
612.77	31152.53
612.92	31468.50
613.08	30326.32
613.23	30146.10
613.39	29729.48
613.54	29638.20
613.69	29638.20
613.85	29785.66
614.00	29909.71
614.15	30352.07
614.31	30335.68
614.46	30139.08
614.62	29993.97
614.77	30300.58
614.92	30333.34
615.08	29893.32
615.23	30291.21
615.38	29944.81
615.54	29172.44
615.69	28910.30
615.84	27983.44
616.00	27550.45
616.15	28203.46
616.30	28325.16
616.46	28517.09
616.61	28329.84
616.76	28603.69
616.92	28929.02
617.07	28793.27
617.22	28996.90
617.37	29193.50
617.53	29010.94
617.68	29525.86
617.83	29188.82
617.99	29310.53
618.14	29689.70
618.29	29483.73
618.45	28786.25
618.60	28484.32
618.75	28252.61
618.90	28292.40
619.06	28701.99
619.21	29020.30
619.36	29273.08
619.51	28912.64
619.67	28147.28
619.82	28512.41
619.97	29455.64
620.12	28879.87
620.28	28781.57
620.43	28814.34
620.58	29233.29
620.73	29195.84
620.89	28666.88
621.04	28521.77
621.19	28180.05
621.34	28140.26
621.49	27988.13
621.65	27283.62
621.80	27534.06
621.95	27669.81
622.10	28166.01
622.25	28086.43
622.41	27484.91
622.56	27445.12
622.71	27187.66
622.86	27140.85
623.01	27470.87
623.16	27339.80
623.32	27454.48
623.47	27365.54
623.62	27037.87
623.77	26927.86
623.92	26913.82
624.07	26452.73
624.23	26274.85
624.38	26122.72
624.53	26541.68
624.68	26260.81
624.83	26127.40
624.98	26101.65
625.13	25439.28
625.29	25895.69
625.44	26286.56
625.59	25710.78
625.74	25696.74
625.89	25902.71
626.04	26232.72
626.19	26120.38
626.34	26176.55
626.49	26101.65
626.65	26141.44
626.80	25797.38
626.95	25766.96
627.10	25926.11
627.25	25369.07
627.40	24821.38
627.55	24276.04
627.70	24147.31
627.85	23899.21
628.00	24400.08
628.15	25020.33
628.30	24851.81
628.45	25338.64
628.60	24802.66
628.76	25226.29
628.91	25034.37
629.06	24959.47
629.21	24835.42
629.36	24821.38
629.51	24552.22
629.66	24156.67
629.81	23770.48
629.96	23971.77
630.11	24280.72
630.26	24610.73
630.41	24638.82
630.56	24636.48
630.71	24636.48
630.86	24685.63
631.01	24191.78
631.16	24173.05
631.31	23559.83
631.46	23365.57
631.61	23864.10
631.76	23817.29
631.91	24049.00
632.06	24107.52
632.21	24482.00
632.36	24439.87
632.51	24360.30
632.66	24252.63
632.81	24091.13
632.96	24187.10
633.10	24144.97
633.25	23761.12
633.40	24044.32
633.55	23578.56
633.70	23611.32
633.85	24004.53
634.00	23950.70
634.15	23824.31
634.30	23723.67
634.45	23960.06
634.60	23920.28
634.75	23510.68
634.90	24004.53
635.05	23309.40
635.19	23412.38
635.34	23686.22
635.49	23260.24
635.64	23000.44
635.79	23192.37
635.94	22913.84
636.09	23246.20
636.24	23248.54
636.39	23194.71
636.53	23367.91
636.68	23049.60
636.83	23367.91
636.98	23466.21
637.13	23365.57
637.28	23498.98
637.43	23316.42
637.57	22995.76
637.72	23346.84
637.87	23115.13
638.02	23293.01
638.17	23211.09
638.32	23264.92
638.46	23110.45
638.61	23119.81
638.76	22806.18
638.91	22649.36
639.06	22995.76
639.20	22427.01
639.35	22478.50
639.50	22057.21
639.65	22412.97
639.80	22085.30
639.94	22319.35
640.09	22345.09
640.24	22441.06
640.39	22162.53
640.54	22153.17
640.68	22068.91
640.83	21795.07
640.98	21530.59
641.13	21722.51
641.27	22235.09
641.42	22010.40
641.57	21893.37
641.72	21968.27
641.86	21509.52
642.01	21954.22
642.16	22082.95
642.31	22078.27
642.45	22218.71
642.60	21687.40
642.75	21671.02
642.90	21806.77
643.04	21479.10
643.19	21509.52
643.34	21586.76
643.48	21387.82
643.63	21160.78
643.78	21392.50
643.93	21769.32
644.07	21956.57
644.22	21949.54
644.37	21497.82
644.51	21329.30
644.66	21523.57
644.81	21144.40
644.95	21443.99
645.10	21113.97
645.25	20779.28
645.39	20648.21
645.54	20783.96
645.69	20460.96
645.83	20215.21
645.98	20329.89
646.13	20278.40
646.27	20493.73
646.42	20350.96
646.57	20201.16
646.71	20250.32
646.86	20334.57
647.00	20301.81
647.15	20044.35
647.30	19957.75
647.44	19765.82
647.59	20060.73
647.74	19592.62
647.88	19784.55
648.03	19810.29
648.17	19831.36
648.32	20121.59
648.47	20243.29
648.61	19943.70
648.76	19665.18
648.90	19227.50
649.05	18764.07
649.20	18429.38
649.34	18445.76
649.49	18511.30
649.63	18331.08
649.78	19330.48
649.92	19606.67
650.07	19660.50
650.21	19824.34
650.36	20016.26
650.51	19793.91
650.65	20222.23
650.80	19824.34
650.94	19644.12
651.09	19379.64
651.23	19021.53
651.38	18789.82
651.52	18677.48
651.67	18871.74
651.81	19506.02
651.96	19094.09
652.10	19332.82
652.25	19267.29
652.39	19491.98
652.54	19239.20
652.68	19412.40
652.83	19122.18
652.97	19234.52
653.12	19166.65
653.26	19346.87
653.41	19075.37
653.55	19325.80
653.70	18902.17
653.84	19168.99
653.99	18899.83
654.13	18801.52
654.27	18295.97
654.42	18078.30
654.56	18178.94
654.71	18235.11
654.85	18104.04
655.00	18148.51
655.14	17724.88
655.29	17528.27
655.43	17460.40
655.57	16475.03
655.72	15749.46
655.86	14143.86
656.01	13696.82
656.15	13724.90
656.30	14602.60
656.44	15110.50
656.58	15669.89
656.73	16465.67
656.87	16903.35
657.01	16917.39
657.16	17153.79
657.30	17631.26
657.45	17790.41
657.59	18101.70
657.73	17694.45
657.88	17926.16
658.02	18209.37
658.16	18106.38
658.31	17729.56
658.45	18015.10
658.60	17752.96
658.74	17795.09
658.88	17441.67
659.03	17575.08
659.17	17408.90
659.31	17429.97
659.46	17254.43
659.60	17439.33
659.74	17954.25
659.89	17460.40
660.03	17556.36
660.17	17860.63
660.32	17645.30
660.46	17724.88
660.60	17631.26
660.74	17378.48
660.89	17408.90
661.03	17399.54
661.17	17284.86
661.32	17376.14
661.46	17397.20
661.60	17502.53
661.74	17685.09
661.89	17692.11
662.03	17668.70
662.17	17406.56
662.31	17558.70
662.46	17413.59
662.60	17418.27
662.74	17020.38
662.88	17118.68
663.03	16617.80
663.17	16580.36
663.31	16587.38
663.45	16849.52
663.60	16631.85
663.74	16463.33
663.88	16758.24
664.02	16500.78
664.17	16681.00
664.31	16404.81
664.45	16828.45
664.59	16741.85
664.73	16659.93
664.88	16767.60
665.02	16662.27
665.16	16683.34
665.30	16589.72
665.44	16631.85
665.59	16224.59
665.73	16006.92
665.87	15861.81
666.01	15592.65
666.15	15955.43
666.29	15721.38
666.44	15695.63
666.58	16182.46
666.72	16156.72
666.86	16079.48
667.00	16105.23
667.14	15964.79
667.28	16018.63
667.43	15594.99
667.57	15887.56
667.71	15484.98
667.85	15681.59
667.99	15424.13
668.13	15800.96
668.27	15604.35
668.41	15641.80
668.56	15405.41
668.70	15733.08
668.84	15456.90
668.98	15571.58
669.12	15346.89
669.26	15529.45
669.40	15311.78
669.54	14909.21
669.68	15080.07
669.82	15159.65
669.96	15150.29
670.10	15124.54
670.25	15002.83
670.39	14988.79
670.53	14705.59
670.67	14920.92
670.81	14743.03
670.95	14616.65
671.09	14611.96
671.23	14387.27
671.37	14518.34
671.51	14305.35
671.65	14614.30
671.79	14504.30
671.93	14480.89
672.07	14801.55
672.21	14413.02
672.35	14448.13
672.49	14717.29
672.63	14490.26
672.77	14394.29
672.91	14349.82
673.05	14146.20
673.19	14190.67
673.33	14122.79
673.47	14033.85
673.61	14181.31
673.75	14008.11
673.89	14218.75
674.03	13870.01
674.17	14090.02
674.31	14047.90
674.45	14047.90
674.59	13825.54
674.73	13694.47
674.87	13603.19
675.01	13455.74
675.15	13542.34
675.29	13432.33
675.43	13495.53
675.56	13481.49
675.70	13598.51
675.84	13764.69
675.98	13530.64
676.12	13610.22
676.26	13685.11
676.40	13083.59
676.54	13465.10
676.68	13228.71
676.82	13137.43
676.96	12964.23
677.10	13158.49
677.23	13273.18
677.37	13095.30
677.51	12795.71
677.65	13022.74
677.79	12800.39
677.93	12659.96
678.07	12688.04
678.21	12446.97
678.34	12369.73
678.48	12535.91
678.62	12453.99
678.76	12493.78
678.90	12365.05
679.04	12224.62
679.18	12353.35
679.31	12241.00
679.45	12173.13
679.59	12351.01
679.73	12418.88
679.87	12112.27
680.00	12044.40
680.14	11899.28
680.28	11714.38
680.42	11796.30
680.56	11683.95
680.70	11749.49
680.83	11702.68
680.97	11613.74
681.11	11597.35
681.25	11639.48
681.39	11595.01
681.52	11716.72
681.66	11506.07
681.80	11510.75
681.94	11658.21
682.07	11487.35
682.21	11456.92
682.35	11293.08
682.49	11166.70
682.62	11056.69
682.76	11019.24
682.90	11044.99
683.04	11302.45
683.17	11140.95
683.31	10799.23
683.45	11009.88
683.59	10672.84
683.72	10581.56
683.86	10415.38
684.00	10162.61
684.13	10359.21
684.27	10583.90
684.41	10450.49
684.55	10537.09
684.68	10523.05
684.82	10417.72
684.96	10349.85
685.09	10120.48
685.23	10214.10
685.37	10026.86
685.50	10157.92
685.64	9923.87
685.78	10038.56
685.91	9825.57
686.05	9900.47
686.19	9813.87
686.32	9104.68
686.46	8306.56
686.60	7302.47
686.73	6609.67
686.87	6328.81
687.01	6181.35
687.14	6335.83
687.28	6499.67
687.42	6883.52
687.55	7183.10
687.69	7573.97
687.82	7929.74
687.96	8226.98
688.10	8154.43
688.23	8077.19
688.37	8102.93
688.50	7873.56
688.64	7695.68
688.78	7536.52
688.91	7676.96
689.05	7548.23
689.18	7351.62
689.32	7414.82
689.46	7321.20
689.59	7454.61
689.73	7651.21
689.86	7581.00
690.00	7726.11
690.13	7648.87
690.27	7562.27
690.41	7845.48
690.54	7726.11
690.68	7763.56
690.81	7747.17
690.95	7882.92
691.08	7789.30
691.22	7695.68
691.35	7871.22
691.49	7915.69
691.62	7826.75
691.76	7824.41
691.89	7866.54
692.03	7793.98
692.16	7602.06
692.30	7513.12
692.43	7515.46
692.57	7492.05
692.70	7398.43
692.84	7442.90
692.97	7349.28
693.11	7335.24
693.24	7311.83
693.38	7248.64
693.51	7176.08
693.65	7049.69
693.78	7045.01
693.92	7140.97
694.05	7021.61
694.19	7098.84
694.32	7007.56
694.45	7016.93
694.59	7016.93
694.72	7042.67
694.86	6965.43
694.99	7096.50
695.13	6860.11
695.26	6960.75
695.39	6616.69
695.53	6789.89
695.66	6626.06
695.80	6794.58
695.93	6850.75
696.07	6825.00
696.20	6745.42
696.33	7075.44
696.47	7133.95
696.60	7169.06
696.73	7145.66
696.87	7063.74
697.00	7042.67
697.14	6942.03
697.27	6848.41
697.40	6792.23
697.54	6537.12
697.67	6424.77
697.80	6335.83
697.94	6218.80
698.07	6370.94
698.21	6349.87
698.34	6310.08
698.47	6272.64
698.61	5923.90
698.74	6232.85
698.87	6113.48
699.01	6073.69
699.14	6057.31
699.27	6204.76
699.40	6333.49
699.54	6017.52
699.67	6059.65
699.80	5867.72
699.94	5715.59
700.07	5818.57
700.20	5806.87
700.34	5568.13
700.47	5631.33
700.60	5640.69
700.73	5844.32
700.87	5628.99
701.00	5628.99
701.13	5600.90
701.26	5526.00
701.40	5528.35
701.53	5430.04
701.66	5495.58
701.79	5523.66
701.93	5411.32
702.06	5556.43
702.19	5268.55
702.32	5418.34
702.46	5317.70
702.59	5212.37
702.72	5242.80
702.85	5259.18
702.99	5308.34
703.12	5334.08
703.25	5261.52
703.38	5224.08
703.51	5212.37
703.65	5090.67
703.78	4968.96
703.91	5233.44
704.04	5226.42
704.17	5020.45
704.31	5116.41
704.44	5170.24
704.57	5296.63
704.70	5013.43
704.83	4936.19
704.96	5018.11
705.10	4854.27
705.23	5004.07
>>>>>End Processed Spectral Data<<<<<
