SpectraSuite Data File
++++++++++++++++++++++++++++++++++++
Date: Mon Oct 07 14:54:54 GMT-05:00 2013
User: price-jones
Dark Spectrum Present: No
Reference Spectrum Present: No
Number of Sampled Component Spectra: 1
Spectrometers: USB2+H05261
Integration Time (usec): 10000 (USB2+H05261)
Spectra Averaged: 1 (USB2+H05261)
Boxcar Smoothing: 0 (USB2+H05261)
Correct for Electrical Dark: No (USB2+H05261)
Strobe/Lamp Enabled: No (USB2+H05261)
Correct for Detector Non-linearity: No (USB2+H05261)
Correct for Stray Light: No (USB2+H05261)
Number of Pixels in Processed Spectrum: 2048
>>>>>Begin Processed Spectral Data<<<<<
365.73	0.00
365.92	0.00
366.12	0.00
366.32	0.00
366.52	0.00
366.72	0.00
366.91	0.00
367.11	0.00
367.31	0.00
367.51	0.00
367.70	0.00
367.90	0.00
368.10	0.00
368.30	0.00
368.49	0.00
368.69	0.00
368.89	0.00
369.09	0.00
369.28	0.00
369.48	0.00
369.68	0.00
369.87	0.00
370.07	0.00
370.27	0.00
370.47	0.00
370.66	0.00
370.86	0.00
371.06	0.00
371.25	0.00
371.45	0.00
371.65	0.00
371.84	0.00
372.04	0.00
372.24	0.00
372.44	16.38
372.63	0.00
372.83	14.04
373.03	0.00
373.22	0.00
373.42	0.00
373.62	0.00
373.81	0.00
374.01	18.72
374.21	4.68
374.40	0.00
374.60	11.70
374.79	18.72
374.99	72.56
375.19	46.81
375.38	98.30
375.58	107.66
375.78	46.81
375.97	102.98
376.17	91.28
376.37	84.26
376.56	39.79
376.76	133.41
376.95	187.24
377.15	131.07
377.35	128.73
377.54	135.75
377.74	154.48
377.93	168.52
378.13	238.73
378.33	201.29
378.52	196.60
378.72	138.09
378.91	117.03
379.11	77.24
379.31	93.62
379.50	159.16
379.70	163.84
379.89	117.03
380.09	114.69
380.28	168.52
380.48	222.35
380.68	194.26
380.87	203.63
381.07	105.32
381.26	95.96
381.46	74.90
381.65	77.24
381.85	51.49
382.04	30.43
382.24	0.00
382.43	0.00
382.63	0.00
382.83	74.90
383.02	37.45
383.22	32.77
383.41	0.00
383.61	16.38
383.80	23.41
384.00	182.56
384.19	161.50
384.39	131.07
384.58	210.65
384.78	196.60
384.97	201.29
385.17	110.01
385.36	65.54
385.56	145.11
385.75	58.51
385.95	138.09
386.14	177.88
386.34	173.20
386.53	205.97
386.72	168.52
386.92	147.45
387.11	170.86
387.31	191.92
387.50	180.22
387.70	159.16
387.89	220.01
388.09	217.67
388.28	154.48
388.48	145.11
388.67	205.97
388.86	203.63
389.06	344.06
389.25	341.72
389.45	276.18
389.64	276.18
389.84	376.83
390.03	243.42
390.22	238.73
390.42	423.64
390.61	421.30
390.81	416.62
391.00	400.23
391.19	348.74
391.39	390.87
391.58	379.17
391.78	372.15
391.97	234.05
392.16	276.18
392.36	198.95
392.55	147.45
392.75	65.54
392.94	0.00
393.13	0.00
393.33	56.17
393.52	117.03
393.71	259.80
393.91	280.86
394.10	301.93
394.29	355.76
394.49	400.23
394.68	451.72
394.88	456.40
395.07	430.66
395.26	390.87
395.46	411.93
395.65	348.74
395.84	297.25
396.04	283.20
396.23	126.39
396.42	44.47
396.62	81.92
396.81	184.90
397.00	248.10
397.19	351.08
397.39	433.00
397.58	454.06
397.77	486.83
397.97	641.31
398.16	578.11
398.35	667.05
398.55	622.58
398.74	657.69
398.93	718.54
399.12	734.93
399.32	664.71
399.51	667.05
399.70	667.05
399.90	713.86
400.09	697.48
400.28	777.06
400.47	767.70
400.67	805.14
400.86	732.59
401.05	807.48
401.24	823.87
401.44	819.19
401.63	851.96
401.82	809.83
402.01	767.70
402.21	884.72
402.40	861.32
402.59	884.72
402.78	812.17
402.97	741.95
403.17	788.76
403.36	992.39
403.55	835.57
403.74	908.13
403.93	763.01
404.13	711.52
404.32	699.82
404.51	842.59
404.70	894.08
404.89	880.04
405.09	844.93
405.28	763.01
405.47	842.59
405.66	863.66
405.85	765.36
406.05	720.88
406.24	739.61
406.43	807.48
406.62	847.27
406.81	880.04
407.00	763.01
407.20	755.99
407.39	795.78
407.58	781.74
407.77	774.72
407.96	924.51
408.15	976.00
408.34	980.68
408.54	1043.88
408.73	891.74
408.92	896.43
409.11	903.45
409.30	877.70
409.49	851.96
409.68	727.91
409.87	744.29
410.07	720.88
410.26	821.53
410.45	983.02
410.64	908.13
410.83	1015.79
411.02	973.66
411.21	1027.50
411.40	1025.15
411.59	1100.05
411.78	1062.60
411.98	1046.22
412.17	1029.84
412.36	973.66
412.55	1064.94
412.74	1022.81
412.93	882.38
413.12	1013.45
413.31	1057.92
413.50	1123.46
413.69	1074.31
413.88	1165.59
414.07	1057.92
414.26	1060.26
414.45	1071.97
414.64	1167.93
414.83	1074.31
415.02	999.41
415.22	999.41
415.41	1074.31
415.60	1095.37
415.79	1294.32
415.98	1261.55
416.17	1219.42
416.36	1186.65
416.55	1240.48
416.74	1074.31
416.93	1036.86
417.12	1139.84
417.31	1067.28
417.50	1151.54
417.69	1210.06
417.88	1188.99
418.07	1172.61
418.26	1081.33
418.45	1224.10
418.64	1128.14
418.83	1219.42
419.02	1268.57
419.21	1151.54
419.39	1090.69
419.58	1001.75
419.77	1149.20
419.96	1078.99
420.15	1203.04
420.34	1254.53
420.53	1270.91
420.72	1299.00
420.91	1291.98
421.10	1291.98
421.29	1299.00
421.48	1210.06
421.67	1280.27
421.86	1210.06
422.05	1116.44
422.24	987.71
422.43	1029.84
422.61	1086.01
422.80	1184.31
422.99	1238.14
423.18	1235.80
423.37	1135.16
423.56	1219.42
423.75	1228.78
423.94	1188.99
424.13	1139.84
424.32	1163.25
424.50	1153.88
424.69	1158.57
424.88	1125.80
425.07	1076.65
425.26	1170.27
425.45	1046.22
425.64	1067.28
425.83	1097.71
426.01	1196.01
426.20	1228.78
426.39	1200.69
426.58	1053.24
426.77	884.72
426.96	880.04
427.15	917.49
427.33	1046.22
427.52	1167.93
427.71	1167.93
427.90	1181.97
428.09	1104.73
428.28	987.71
428.46	1064.94
428.65	947.92
428.84	1062.60
429.03	1055.58
429.22	973.66
429.40	1020.47
429.59	821.53
429.78	706.84
429.97	678.76
430.16	674.07
430.34	645.99
430.53	737.27
430.72	727.91
430.91	877.70
431.10	1090.69
431.28	1231.12
431.47	1423.05
431.66	1364.53
431.85	1263.89
432.03	1081.33
432.22	1095.37
432.41	1177.29
432.60	1313.04
432.79	1284.95
432.97	1373.89
433.16	1291.98
433.35	1125.80
433.54	990.05
433.72	912.81
433.91	1057.92
434.10	1036.86
434.28	1240.48
434.47	1277.93
434.66	1287.29
434.85	1233.46
435.03	1219.42
435.22	1277.93
435.41	1359.85
435.59	1437.09
435.78	1348.15
435.97	1458.15
436.16	1399.64
436.34	1465.18
436.53	1331.76
436.72	1441.77
436.90	1320.06
437.09	1240.48
437.28	1315.38
437.46	1383.26
437.65	1336.45
437.84	1200.69
438.02	1097.71
438.21	1123.46
438.40	1174.95
438.58	1221.76
438.77	1256.87
438.96	1430.07
439.14	1327.08
439.33	1458.15
439.52	1514.33
439.70	1423.05
439.89	1362.19
440.08	1357.51
440.26	1329.42
440.45	1352.83
440.63	1495.60
440.82	1568.16
441.01	1561.14
441.19	1619.65
441.38	1540.07
441.57	1610.29
441.75	1654.76
441.94	1526.03
442.12	1629.01
442.31	1708.59
442.50	1643.06
442.68	1650.08
442.87	1586.88
443.05	1645.40
443.24	1570.50
443.43	1729.66
443.61	1687.53
443.80	1664.12
443.98	1493.26
444.17	1612.63
444.35	1664.12
444.54	1825.62
444.73	1720.29
444.91	1732.00
445.10	1626.67
445.28	1448.79
445.47	1460.49
445.65	1350.49
445.84	1614.97
446.02	1514.33
446.21	1558.80
446.39	1596.25
446.58	1650.08
446.77	1668.80
446.95	1682.85
447.14	1675.82
447.32	1830.30
447.51	1750.72
447.69	1631.35
447.88	1465.18
448.06	1572.84
448.25	1579.86
448.43	1696.89
448.62	1715.61
448.80	1596.25
448.99	1750.72
449.17	1584.54
449.36	1678.16
449.54	1621.99
449.73	1668.80
449.91	1783.49
450.10	1837.32
450.28	1928.60
450.46	2015.20
450.65	1858.39
450.83	1837.32
451.02	1717.95
451.20	1720.29
451.39	1776.47
451.57	1830.30
451.76	1842.00
451.94	1790.51
452.13	1746.04
452.31	1598.59
452.49	1586.88
452.68	1490.92
452.86	1586.88
453.05	1603.27
453.23	1600.93
453.42	1713.27
453.60	1900.52
453.78	1785.83
453.97	1760.08
454.15	1680.50
454.34	1607.95
454.52	1741.36
454.70	1647.74
454.89	1739.02
455.07	1666.46
455.26	1699.23
455.44	1797.53
455.62	1886.47
455.81	1816.26
455.99	1783.49
456.17	1746.04
456.36	1781.15
456.54	1717.95
456.73	1860.73
456.91	1935.62
457.09	1893.49
457.28	1905.20
457.46	1839.66
457.64	1750.72
457.83	1661.78
458.01	1652.42
458.19	1668.80
458.38	1785.83
458.56	1781.15
458.74	1839.66
458.93	1750.72
459.11	1914.56
459.29	1706.25
459.48	1818.60
459.66	1860.73
459.84	1818.60
460.03	1748.38
460.21	1797.53
460.39	1788.17
460.57	1785.83
460.76	1860.73
460.94	1952.01
461.12	1811.57
461.31	1858.39
461.49	1823.28
461.67	1809.23
461.85	1893.49
462.04	1956.69
462.22	2054.99
462.40	1916.90
462.59	1867.75
462.77	1952.01
462.95	1935.62
463.13	1902.86
463.32	1839.66
463.50	1872.43
463.68	1851.36
463.86	1795.19
464.05	1799.87
464.23	1717.95
464.41	1792.85
464.59	1727.32
464.78	1792.85
464.96	1874.77
465.14	1739.02
465.32	1870.09
465.50	1940.30
465.69	1970.73
465.87	1977.75
466.05	1846.68
466.23	1806.89
466.41	1701.57
466.60	1764.76
466.78	1680.50
466.96	1797.53
467.14	1764.76
467.32	1919.24
467.51	1790.51
467.69	1825.62
467.87	1844.34
468.05	1874.77
468.23	1790.51
468.41	1778.81
468.60	1870.09
468.78	1912.22
468.96	1867.75
469.14	1940.30
469.32	1863.07
469.50	1820.94
469.69	1846.68
469.87	1753.06
470.05	1783.49
470.23	1743.70
470.41	1811.57
470.59	1778.81
470.77	1797.53
470.95	1710.93
471.14	1940.30
471.32	1842.00
471.50	2038.61
471.68	2057.33
471.86	2073.71
472.04	2017.54
472.22	1916.90
472.40	1926.26
472.58	1846.68
472.77	1888.81
472.95	1956.69
473.13	1949.67
473.31	1912.22
473.49	1898.17
473.67	2050.31
473.85	1902.86
474.03	2085.42
474.21	1937.96
474.39	2031.58
474.57	1991.80
474.75	2059.67
474.93	2083.08
475.12	1886.47
475.30	1926.26
475.48	2143.93
475.66	2017.54
475.84	2033.93
476.02	1907.54
476.20	1935.62
476.38	1989.46
476.56	2108.82
476.74	2022.22
476.92	2165.00
477.10	2169.68
477.28	2097.12
477.46	2136.91
477.64	2186.06
477.82	2097.12
478.00	2298.41
478.18	2143.93
478.36	2242.23
478.54	2160.31
478.72	2113.50
478.90	2267.98
479.08	2256.28
479.26	2413.09
479.44	2356.92
479.62	2403.73
479.80	2354.58
479.98	2417.77
480.16	2263.30
480.34	2392.03
480.52	2298.41
480.70	2359.26
480.88	2427.14
481.06	2389.69
481.24	2466.92
481.41	2574.59
481.59	2576.93
481.77	2565.23
481.95	2640.12
482.13	2495.01
482.31	2450.54
482.49	2588.63
482.67	2485.65
482.85	2534.80
483.03	2530.12
483.21	2597.99
483.39	2693.96
483.57	2476.29
483.74	2553.52
483.92	2502.03
484.10	2539.48
484.28	2623.74
484.46	2583.95
484.64	2691.62
484.82	2684.59
485.00	2523.10
485.18	2436.50
485.35	2389.69
485.53	2239.89
485.71	2064.35
485.89	1909.88
486.07	2069.03
486.25	2267.98
486.43	2422.45
486.61	2476.29
486.78	2612.04
486.96	2530.12
487.14	2644.81
487.32	2640.12
487.50	2708.00
487.68	2867.16
487.85	2808.64
488.03	2778.22
488.21	2860.13
488.39	2731.41
488.57	2703.32
488.75	2750.13
488.92	2890.56
489.10	2995.89
489.28	3033.33
489.46	3138.66
489.64	3229.94
489.81	3272.07
489.99	3045.04
490.17	3157.38
490.35	3220.58
490.53	3187.81
490.70	3218.24
490.88	2984.18
491.06	3019.29
491.24	3033.33
491.41	2981.84
491.59	2860.13
491.77	2775.88
491.95	2892.90
492.13	3068.44
492.30	3192.49
492.48	3236.96
492.66	3335.26
492.84	3169.09
493.01	3304.84
493.19	3260.37
493.37	3258.03
493.54	3274.41
493.72	3103.55
493.90	3353.99
494.08	3473.36
494.25	3506.12
494.43	3459.31
494.61	3398.46
494.79	3510.80
494.96	3557.61
495.14	3478.04
495.32	3356.33
495.49	3176.11
495.67	3332.92
495.85	3632.51
496.02	3595.06
496.20	3499.10
496.38	3482.72
496.55	3461.65
496.73	3588.04
496.91	3637.19
497.09	3634.85
497.26	3714.43
497.44	3616.13
497.62	3466.33
497.79	3482.72
497.97	3164.40
498.14	3332.92
498.32	3136.32
498.50	3510.80
498.67	3672.30
498.85	3637.19
499.03	3550.59
499.20	3595.06
499.38	3716.77
499.56	3581.02
499.73	3463.99
499.91	3543.57
500.08	3508.46
500.26	3379.73
500.44	3330.58
500.61	3468.67
500.79	3421.86
500.97	3466.33
501.14	3328.24
501.32	3332.92
501.49	3391.44
501.67	3487.40
501.84	3267.39
502.02	3463.99
502.20	3473.36
502.37	3459.31
502.55	3478.04
502.72	3627.83
502.90	3779.97
503.07	3665.28
503.25	3691.02
503.43	3508.46
503.60	3419.52
503.78	3339.94
503.95	3304.84
504.13	3583.36
504.30	3822.09
504.48	3698.05
504.65	3651.24
504.83	3758.90
505.01	3693.37
505.18	3801.03
505.36	3894.65
505.53	3878.27
505.71	3812.73
505.88	3873.59
506.06	3911.04
506.23	3707.41
506.41	3693.37
506.58	3676.98
506.76	3571.66
506.93	3564.64
507.11	3716.77
507.28	3838.48
507.46	3595.06
507.63	3515.48
507.81	3529.53
507.98	3524.85
508.16	3552.93
508.33	3770.60
508.50	3831.46
508.68	3861.88
508.85	3850.18
509.03	3875.93
509.20	3904.01
509.38	3782.31
509.55	3466.33
509.73	3538.89
509.90	3595.06
510.08	3775.28
510.25	3684.00
510.42	3756.56
510.60	3735.50
510.77	3618.47
510.95	3808.05
511.12	3871.25
511.30	3934.44
511.47	4011.68
511.64	3955.51
511.82	3756.56
511.99	3714.43
512.17	3630.17
512.34	3609.11
512.51	3599.74
512.69	3651.24
512.86	3688.68
513.04	3508.46
513.21	3648.90
513.38	3672.30
513.56	3592.72
513.73	3480.38
513.90	3646.55
514.08	3564.64
514.25	3555.27
514.43	3634.85
514.60	3758.90
514.77	3667.62
514.95	3702.73
515.12	3585.70
515.29	3698.05
515.47	3646.55
515.64	3712.09
515.81	3826.78
515.99	3726.13
516.16	3428.88
516.33	3117.59
516.51	2946.73
516.68	3007.59
516.85	2686.94
517.03	2913.97
517.20	3288.45
517.37	3482.72
517.54	3730.81
517.72	3646.55
517.89	3323.56
518.06	3047.38
518.24	3000.57
518.41	3253.34
518.58	3389.10
518.75	3452.29
518.93	3548.25
519.10	3403.14
519.27	3611.45
519.45	3705.07
519.62	3644.21
519.79	3648.90
519.96	3620.81
520.14	3679.32
520.31	3447.61
520.48	3506.12
520.65	3452.29
520.83	3669.96
521.00	3829.12
521.17	3875.93
521.34	3653.58
521.52	3674.64
521.69	3754.22
521.86	3700.39
522.03	3754.22
522.20	3681.66
522.38	3445.27
522.55	3363.35
522.72	3630.17
522.89	3660.60
523.07	3541.23
523.24	3524.85
523.41	3705.07
523.58	3770.60
523.75	3794.01
523.92	3751.88
524.10	3875.93
524.27	3936.78
524.44	3878.27
524.61	3878.27
524.78	3756.56
524.96	3726.13
525.13	3707.41
525.30	3613.79
525.47	3889.97
525.64	3854.86
525.81	3667.62
525.98	3452.29
526.16	3365.69
526.33	3274.41
526.50	3112.91
526.67	3183.13
526.84	3251.00
527.01	3316.54
527.18	3389.10
527.36	3590.38
527.53	3667.62
527.70	3653.58
527.87	3676.98
528.04	3501.44
528.21	3618.47
528.38	3698.05
528.55	3801.03
528.72	3784.65
528.89	3899.33
529.07	3772.94
529.24	3702.73
529.41	3875.93
529.58	3679.32
529.75	3564.64
529.92	3688.68
530.09	3726.13
530.26	3843.16
530.43	3784.65
530.60	3885.29
530.77	3918.06
530.94	3847.84
531.11	3761.24
531.28	3960.19
531.46	3672.30
531.63	3723.79
531.80	3716.77
531.97	3712.09
532.14	3571.66
532.31	3487.40
532.48	3255.69
532.65	3276.75
532.82	3527.19
532.99	3639.53
533.16	3698.05
533.33	3871.25
533.50	3684.00
533.67	3592.72
533.84	3449.95
534.01	3557.61
534.18	3679.32
534.35	3747.20
534.52	3501.44
534.69	3588.04
534.86	3641.87
535.03	3660.60
535.20	3864.22
535.37	3782.31
535.54	3854.86
535.71	3822.09
535.88	3786.99
536.05	3627.83
536.22	3405.48
536.38	3492.08
536.55	3517.83
536.72	3328.24
536.89	3463.99
537.06	3478.04
537.23	3543.57
537.40	3672.30
537.57	3730.81
537.74	3742.52
537.91	3606.77
538.08	3545.91
538.25	3515.48
538.42	3796.35
538.59	3693.37
538.75	3515.48
538.92	3574.00
539.09	3564.64
539.26	3433.57
539.43	3503.78
539.60	3440.59
539.77	3342.28
539.94	3501.44
540.11	3489.74
540.28	3295.47
540.44	3386.76
540.61	3342.28
540.78	3236.96
540.95	3410.16
541.12	3318.88
541.29	3613.79
541.46	3510.80
541.62	3583.36
541.79	3524.85
541.96	3510.80
542.13	3555.27
542.30	3473.36
542.47	3471.01
542.63	3522.51
542.80	3520.17
542.97	3468.67
543.14	3389.10
543.31	3229.94
543.48	3529.53
543.64	3646.55
543.81	3716.77
543.98	3688.68
544.15	3590.38
544.32	3314.20
544.48	3330.58
544.65	3524.85
544.82	3545.91
544.99	3431.23
545.16	3421.86
545.32	3522.51
545.49	3618.47
545.66	3541.23
545.83	3674.64
546.00	3595.06
546.16	3468.67
546.33	3520.17
546.50	3337.60
546.67	3604.42
546.83	3480.38
547.00	3613.79
547.17	3349.31
547.34	3370.37
547.50	3274.41
547.67	3328.24
547.84	3316.54
548.00	3520.17
548.17	3529.53
548.34	3405.48
548.51	3365.69
548.67	3410.16
548.84	3499.10
549.01	3501.44
549.18	3405.48
549.34	3473.36
549.51	3482.72
549.68	3384.41
549.84	3410.16
550.01	3449.95
550.18	3368.03
550.34	3290.79
550.51	3337.60
550.68	3400.80
550.84	3222.92
551.01	3349.31
551.18	3384.41
551.34	3281.43
551.51	3405.48
551.68	3232.28
551.84	3529.53
552.01	3431.23
552.18	3227.60
552.34	3251.00
552.51	3229.94
552.68	3169.09
552.84	3300.16
553.01	3358.67
553.18	3368.03
553.34	3220.58
553.51	3311.86
553.67	3337.60
553.84	3452.29
554.01	3368.03
554.17	3379.73
554.34	3304.84
554.51	3300.16
554.67	3344.63
554.84	3407.82
555.00	3365.69
555.17	3255.69
555.33	3187.81
555.50	3396.12
555.67	3241.64
555.83	3204.19
556.00	3173.77
556.16	3211.22
556.33	3201.85
556.50	3176.11
556.66	3194.83
556.83	3124.62
556.99	3384.41
557.16	3169.09
557.32	3208.87
557.49	3241.64
557.65	3288.45
557.82	3253.34
557.98	3094.19
558.15	3070.78
558.32	2937.37
558.48	2923.33
558.65	2913.97
558.81	3110.57
558.98	2925.67
559.14	3094.19
559.31	3108.23
559.47	3194.83
559.64	2958.44
559.80	2995.89
559.97	3112.91
560.13	2984.18
560.30	2951.42
560.46	3255.69
560.63	3260.37
560.79	3136.32
560.96	3047.38
561.12	3073.12
561.29	2892.90
561.45	3012.27
561.61	2902.26
561.78	3068.44
561.94	3021.63
562.11	2902.26
562.27	2967.80
562.44	3145.68
562.60	3063.76
562.77	3110.57
562.93	3129.30
563.10	3155.04
563.26	3141.00
563.42	2918.65
563.59	3077.80
563.75	3073.12
563.92	2904.60
564.08	2958.44
564.24	2988.86
564.41	3166.74
564.57	2953.76
564.74	3028.65
564.90	2949.08
565.07	2993.55
565.23	2928.01
565.39	2782.90
565.56	2796.94
565.72	2799.28
565.88	2785.24
566.05	2897.58
566.21	2841.41
566.38	2909.29
566.54	2871.84
566.70	3019.29
566.87	2979.50
567.03	3169.09
567.19	3108.23
567.36	3009.93
567.52	2998.23
567.68	2888.22
567.85	2810.98
568.01	2953.76
568.17	2775.88
568.34	2829.71
568.50	2834.39
568.66	2871.84
568.83	2813.32
568.99	2815.66
569.15	2857.79
569.32	2942.05
569.48	2871.84
569.64	2881.20
569.81	2787.58
569.97	2810.98
570.13	2733.75
570.30	2822.69
570.46	2881.20
570.62	2654.17
570.78	2567.57
570.95	2693.96
571.11	2642.46
571.27	2698.64
571.43	2787.58
571.60	2794.60
571.76	2750.13
571.92	3012.27
572.09	2757.15
572.25	2771.19
572.41	2796.94
572.57	2913.97
572.74	2850.77
572.90	2733.75
573.06	2710.34
573.22	2808.64
573.38	2918.65
573.55	2832.05
573.71	2878.86
573.87	2820.35
574.03	2738.43
574.20	2827.37
574.36	2754.81
574.52	2700.98
574.68	2750.13
574.84	2764.17
575.01	2705.66
575.17	2686.94
575.33	2579.27
575.49	2710.34
575.65	2668.21
575.82	2665.87
575.98	2752.47
576.14	2696.30
576.30	2647.15
576.46	2726.72
576.62	2693.96
576.79	2684.59
576.95	2656.51
577.11	2722.04
577.27	2656.51
577.43	2586.29
577.59	2729.06
577.75	2597.99
577.92	2518.42
578.08	2492.67
578.24	2485.65
578.40	2579.27
578.56	2642.46
578.72	2597.99
578.88	2511.39
579.04	2539.48
579.21	2499.69
579.37	2668.21
579.53	2670.55
579.69	2626.08
579.85	2719.70
580.01	2593.31
580.17	2509.05
580.33	2602.68
580.49	2511.39
580.65	2511.39
580.82	2637.78
580.98	2567.57
581.14	2583.95
581.30	2532.46
581.46	2429.48
581.62	2675.23
581.78	2544.16
581.94	2499.69
582.10	2745.45
582.26	2684.59
582.42	2602.68
582.58	2569.91
582.74	2616.72
582.90	2668.21
583.06	2579.27
583.22	2527.78
583.38	2616.72
583.54	2513.74
583.70	2576.93
583.86	2602.68
584.02	2537.14
584.18	2490.33
584.34	2562.89
584.50	2588.63
584.66	2640.12
584.82	2436.50
584.98	2478.63
585.14	2485.65
585.30	2436.50
585.46	2385.01
585.62	2349.90
585.78	2345.22
585.94	2349.90
586.10	2464.58
586.26	2459.90
586.42	2389.69
586.58	2483.31
586.74	2513.74
586.90	2534.80
587.06	2452.88
587.22	2443.52
587.38	2457.56
587.54	2417.77
587.70	2406.07
587.86	2487.99
588.02	2445.86
588.18	2502.03
588.34	2202.44
588.49	2078.40
588.65	2080.74
588.81	2029.24
588.97	2050.31
589.13	2012.86
589.29	1877.11
589.45	2015.20
589.61	2148.61
589.77	2186.06
589.93	2256.28
590.08	2181.38
590.24	2342.88
590.40	2385.01
590.56	2153.29
590.72	2342.88
590.88	2321.81
591.04	2150.95
591.20	2204.78
591.35	2265.64
591.51	2181.38
591.67	2204.78
591.83	2317.13
591.99	2253.94
592.15	2307.77
592.31	2289.04
592.46	2190.74
592.62	2235.21
592.78	2289.04
592.94	2211.81
593.10	2328.83
593.26	2289.04
593.41	2242.23
593.57	2380.32
593.73	2242.23
593.89	2394.37
594.05	2204.78
594.20	2197.76
594.36	2125.21
594.52	2169.68
594.68	2148.61
594.84	2214.15
594.99	2204.78
595.15	2237.55
595.31	2242.23
595.47	2181.38
595.62	2122.87
595.78	2256.28
595.94	2225.85
596.10	2275.00
596.25	2225.85
596.41	2188.40
596.57	2242.23
596.73	2200.10
596.88	2174.36
597.04	2204.78
597.20	2092.44
597.36	2047.97
597.51	2314.79
597.67	2188.40
597.83	2193.08
597.99	2317.13
598.14	2136.91
598.30	2087.76
598.46	2242.23
598.61	2125.21
598.77	2230.53
598.93	2146.27
599.09	2108.82
599.24	2076.06
599.40	2204.78
599.56	2113.50
599.71	2157.97
599.87	2179.04
600.03	2087.76
600.18	2197.76
600.34	2078.40
600.50	2026.90
600.65	2104.14
600.81	2141.59
600.97	2029.24
601.12	2066.69
601.28	2038.61
601.44	2139.25
601.59	2115.84
601.75	2087.76
601.91	2176.70
602.06	1881.79
602.22	2092.44
602.37	1996.48
602.53	2153.29
602.69	2101.80
602.84	2024.56
603.00	2043.29
603.16	2223.51
603.31	2136.91
603.47	2139.25
603.62	2085.42
603.78	2090.10
603.94	2017.54
604.09	2038.61
604.25	2040.95
604.40	2108.82
604.56	2022.22
604.71	2148.61
604.87	2150.95
605.03	2062.01
605.18	1984.77
605.34	2062.01
605.49	2003.50
605.65	2024.56
605.80	2033.93
605.96	1963.71
606.12	2005.84
606.27	2001.16
606.43	1952.01
606.58	2092.44
606.74	1980.09
606.89	1923.92
607.05	1998.82
607.20	1886.47
607.36	2059.67
607.51	2031.58
607.67	1902.86
607.82	1998.82
607.98	1940.30
608.13	1944.99
608.29	2040.95
608.44	1905.20
608.60	1968.39
608.75	1933.28
608.91	1952.01
609.06	2029.24
609.22	1944.99
609.37	1902.86
609.53	1891.15
609.68	2001.16
609.84	1839.66
609.99	1930.94
610.15	1921.58
610.30	1905.20
610.46	1942.64
610.61	1888.81
610.76	1977.75
610.92	2012.86
611.07	1980.09
611.23	2036.27
611.38	1984.77
611.54	1893.49
611.69	1804.55
611.84	1842.00
612.00	1860.73
612.15	1830.30
612.31	1907.54
612.46	1888.81
612.62	1909.88
612.77	1909.88
612.92	1867.75
613.08	1860.73
613.23	1802.21
613.39	1739.02
613.54	1680.50
613.69	1736.68
613.85	1809.23
614.00	1804.55
614.15	1839.66
614.31	1818.60
614.46	1806.89
614.62	1813.92
614.77	1849.02
614.92	1846.68
615.08	1858.39
615.23	1774.13
615.38	1769.44
615.54	1799.87
615.69	1746.04
615.84	1633.69
616.00	1678.16
616.15	1701.57
616.30	1631.35
616.46	1624.33
616.61	1776.47
616.76	1699.23
616.92	1710.93
617.07	1708.59
617.22	1727.32
617.37	1767.10
617.53	1781.15
617.68	1720.29
617.83	1778.81
617.99	1614.97
618.14	1764.76
618.29	1790.51
618.45	1767.10
618.60	1633.69
618.75	1727.32
618.90	1614.97
619.06	1703.91
619.21	1785.83
619.36	1764.76
619.51	1717.95
619.67	1813.92
619.82	1682.85
619.97	1638.38
620.12	1671.14
620.28	1724.97
620.43	1720.29
620.58	1760.08
620.73	1717.95
620.89	1666.46
621.04	1554.12
621.19	1696.89
621.34	1547.09
621.49	1540.07
621.65	1586.88
621.80	1647.74
621.95	1652.42
622.10	1617.31
622.25	1701.57
622.41	1694.55
622.56	1600.93
622.71	1504.96
622.86	1563.48
623.01	1528.37
623.16	1554.12
623.32	1486.24
623.47	1617.31
623.62	1497.94
623.77	1554.12
623.92	1535.39
624.07	1591.56
624.23	1526.03
624.38	1528.37
624.53	1521.35
624.68	1561.14
624.83	1519.01
624.98	1624.33
625.13	1591.56
625.29	1523.69
625.44	1462.83
625.59	1427.73
625.74	1511.99
625.89	1474.54
626.04	1549.43
626.19	1561.14
626.34	1526.03
626.49	1486.24
626.65	1575.18
626.80	1345.81
626.95	1467.52
627.10	1483.90
627.25	1516.67
627.40	1479.22
627.55	1259.21
627.70	1380.92
627.85	1455.81
628.00	1401.98
628.15	1315.38
628.30	1511.99
628.45	1479.22
628.60	1500.28
628.76	1423.05
628.91	1357.51
629.06	1357.51
629.21	1490.92
629.36	1455.81
629.51	1301.34
629.66	1399.64
629.81	1376.24
629.96	1214.74
630.11	1352.83
630.26	1462.83
630.41	1308.36
630.56	1423.05
630.71	1488.58
630.86	1425.39
631.01	1409.00
631.16	1364.53
631.31	1345.81
631.46	1373.89
631.61	1376.24
631.76	1299.00
631.91	1329.42
632.06	1409.00
632.21	1341.13
632.36	1453.47
632.51	1387.94
632.66	1441.77
632.81	1420.71
632.96	1378.58
633.10	1387.94
633.25	1387.94
633.40	1310.70
633.55	1355.17
633.70	1348.15
633.85	1341.13
634.00	1343.47
634.15	1270.91
634.30	1469.86
634.45	1313.04
634.60	1284.95
634.75	1324.74
634.90	1327.08
635.05	1322.40
635.19	1404.32
635.34	1291.98
635.49	1280.27
635.64	1254.53
635.79	1273.25
635.94	1348.15
636.09	1352.83
636.24	1299.00
636.39	1284.95
636.53	1327.08
636.68	1439.43
636.83	1270.91
636.98	1373.89
637.13	1247.51
637.28	1366.87
637.43	1380.92
637.57	1322.40
637.72	1390.28
637.87	1231.12
638.02	1289.64
638.17	1306.02
638.32	1287.29
638.46	1277.93
638.61	1334.11
638.76	1233.46
638.91	1221.76
639.06	1287.29
639.20	1226.44
639.35	1249.85
639.50	1233.46
639.65	1310.70
639.80	1273.25
639.94	1268.57
640.09	1301.34
640.24	1270.91
640.39	1282.61
640.54	1188.99
640.68	1167.93
640.83	1203.04
640.98	1144.52
641.13	1203.04
641.27	1291.98
641.42	1196.01
641.57	1254.53
641.72	1184.31
641.86	1242.82
642.01	1343.47
642.16	1294.32
642.31	1221.76
642.45	1308.36
642.60	1235.80
642.75	1128.14
642.90	1034.52
643.04	1203.04
643.19	1179.63
643.34	1163.25
643.48	1123.46
643.63	1160.91
643.78	1165.59
643.93	1156.22
644.07	1123.46
644.22	1196.01
644.37	1181.97
644.51	1221.76
644.66	1160.91
644.81	1153.88
644.95	1146.86
645.10	1067.28
645.25	1142.18
645.39	1179.63
645.54	1238.14
645.69	1174.95
645.83	1011.11
645.98	1130.48
646.13	1074.31
646.27	1100.05
646.42	1139.84
646.57	1226.44
646.71	1121.12
646.86	1081.33
647.00	1125.80
647.15	1060.26
647.30	1055.58
647.44	1116.44
647.59	1008.77
647.74	1109.41
647.88	1041.54
648.03	1015.79
648.17	973.66
648.32	1055.58
648.47	1107.07
648.61	1088.35
648.76	1053.24
648.90	1041.54
649.05	894.08
649.20	926.85
649.34	978.34
649.49	1032.18
649.63	1027.50
649.78	1015.79
649.92	1029.84
650.07	1095.37
650.21	1011.11
650.36	964.30
650.51	1013.45
650.65	1074.31
650.80	1067.28
650.94	1060.26
651.09	1043.88
651.23	950.26
651.38	978.34
651.52	1001.75
651.67	1032.18
651.81	1060.26
651.96	1020.47
652.10	1025.15
652.25	1039.20
652.39	1029.84
652.54	1032.18
652.68	1046.22
652.83	997.07
652.97	943.24
653.12	987.71
653.26	971.32
653.41	1015.79
653.55	903.45
653.70	1001.75
653.84	971.32
653.99	980.68
654.13	1069.62
654.27	952.60
654.42	912.81
654.56	994.73
654.71	987.71
654.85	889.40
655.00	973.66
655.14	959.62
655.29	802.80
655.43	809.83
655.57	828.55
655.72	723.23
655.86	669.39
656.01	685.78
656.15	657.69
656.30	716.20
656.44	739.61
656.58	866.00
656.73	793.44
656.87	844.93
657.01	938.55
657.16	966.64
657.30	896.43
657.45	968.98
657.59	990.05
657.73	933.87
657.88	922.17
658.02	894.08
658.16	901.11
658.31	912.81
658.45	964.30
658.60	912.81
658.74	936.21
658.88	891.74
659.03	847.27
659.17	919.83
659.31	840.25
659.46	992.39
659.60	901.11
659.74	968.98
659.89	891.74
660.03	940.90
660.17	919.83
660.32	1011.11
660.46	926.85
660.60	901.11
660.74	940.90
660.89	924.51
661.03	849.61
661.17	844.93
661.32	915.15
661.46	917.49
661.60	816.85
661.74	933.87
661.89	877.70
662.03	950.26
662.17	905.79
662.31	866.00
662.46	833.23
662.60	858.98
662.74	950.26
662.88	938.55
663.03	777.06
663.17	875.36
663.31	821.53
663.45	887.06
663.60	793.44
663.74	835.57
663.88	887.06
664.02	835.57
664.17	793.44
664.31	849.61
664.45	713.86
664.59	830.89
664.73	877.70
664.88	898.77
665.02	833.23
665.16	896.43
665.30	777.06
665.44	835.57
665.59	866.00
665.73	926.85
665.87	788.76
666.01	814.51
666.15	805.14
666.29	763.01
666.44	830.89
666.58	847.27
666.72	821.53
666.86	821.53
667.00	863.66
667.14	812.17
667.28	772.38
667.43	854.30
667.57	746.63
667.71	748.97
667.85	821.53
667.99	802.80
668.13	741.95
668.27	844.93
668.41	809.83
668.56	779.40
668.70	676.41
668.84	807.48
668.98	795.78
669.12	814.51
669.26	774.72
669.40	819.19
669.54	748.97
669.68	809.83
669.82	763.01
669.96	753.65
670.10	711.52
670.25	805.14
670.39	732.59
670.53	809.83
670.67	833.23
670.81	683.44
670.95	737.27
671.09	727.91
671.23	702.16
671.37	634.29
671.51	741.95
671.65	702.16
671.79	620.24
671.93	706.84
672.07	744.29
672.21	718.54
672.35	798.12
672.49	697.48
672.63	692.80
672.77	765.36
672.91	655.35
673.05	676.41
673.19	676.41
673.33	746.63
673.47	641.31
673.61	620.24
673.75	667.05
673.89	664.71
674.03	697.48
674.17	662.37
674.31	580.45
674.45	681.10
674.59	699.82
674.73	627.26
674.87	674.07
675.01	608.54
675.15	608.54
675.29	671.73
675.43	683.44
675.56	601.52
675.70	631.94
675.84	606.20
675.98	610.88
676.12	479.81
676.26	533.64
676.40	610.88
676.54	599.18
676.68	650.67
676.82	678.76
676.96	594.50
677.10	601.52
677.23	505.56
677.37	627.26
677.51	550.03
677.65	564.07
677.79	599.18
677.93	610.88
678.07	503.22
678.21	601.52
678.34	587.47
678.48	500.87
678.62	564.07
678.76	573.43
678.90	615.56
679.04	575.77
679.18	468.11
679.31	514.92
679.45	554.71
679.59	538.32
679.73	547.69
679.87	561.73
680.00	524.28
680.14	578.11
680.28	559.39
680.42	512.58
680.56	531.30
680.70	489.17
680.83	533.64
680.97	512.58
681.11	664.71
681.25	503.22
681.39	550.03
681.52	531.30
681.66	531.30
681.80	404.91
681.94	477.47
682.07	407.25
682.21	491.51
682.35	428.32
682.49	498.53
682.62	477.47
682.76	449.38
682.90	498.53
683.04	458.74
683.17	566.41
683.31	456.40
683.45	512.58
683.59	550.03
683.72	383.85
683.86	472.79
684.00	423.64
684.13	442.36
684.27	477.47
684.41	435.34
684.55	418.96
684.68	479.81
684.82	374.49
684.96	397.89
685.09	486.83
685.23	521.94
685.37	437.68
685.50	433.00
685.64	395.55
685.78	454.06
685.91	367.46
686.05	411.93
686.19	402.57
686.32	402.57
686.46	332.36
686.60	271.50
686.73	154.48
686.87	243.42
687.01	189.58
687.14	112.35
687.28	198.95
687.42	182.56
687.55	217.67
687.69	341.72
687.82	362.78
687.96	299.59
688.10	311.29
688.23	327.68
688.37	344.06
688.50	243.42
688.64	210.65
688.78	262.14
688.91	257.46
689.05	255.12
689.18	255.12
689.32	229.37
689.46	191.92
689.59	250.44
689.73	259.80
689.86	231.71
690.00	203.63
690.13	243.42
690.27	208.31
690.41	287.89
690.54	273.84
690.68	255.12
690.81	194.26
690.95	280.86
691.08	191.92
691.22	229.37
691.35	259.80
691.49	234.05
691.62	278.52
691.76	304.27
691.89	163.84
692.03	152.13
692.16	280.86
692.30	238.73
692.43	259.80
692.57	285.55
692.70	290.23
692.84	220.01
692.97	285.55
693.11	243.42
693.24	280.86
693.38	224.69
693.51	245.76
693.65	229.37
693.78	159.16
693.92	257.46
694.05	234.05
694.19	203.63
694.32	189.58
694.45	208.31
694.59	191.92
694.72	121.71
694.86	170.86
694.99	234.05
695.13	220.01
695.26	215.33
695.39	173.20
695.53	222.35
695.66	229.37
695.80	168.52
695.93	191.92
696.07	175.54
696.20	212.99
696.33	128.73
696.47	182.56
696.60	180.22
696.73	205.97
696.87	182.56
697.00	252.78
697.14	210.65
697.27	243.42
697.40	168.52
697.54	163.84
697.67	163.84
697.80	201.29
697.94	163.84
698.07	184.90
698.21	187.24
698.34	98.30
698.47	191.92
698.61	126.39
698.74	168.52
698.87	173.20
699.01	152.13
699.14	91.28
699.27	128.73
699.40	145.11
699.54	180.22
699.67	100.64
699.80	126.39
699.94	205.97
700.07	161.50
700.20	95.96
700.34	124.05
700.47	168.52
700.60	119.37
700.73	100.64
700.87	149.79
701.00	110.01
701.13	102.98
701.26	126.39
701.40	173.20
701.53	182.56
701.66	126.39
701.79	147.45
701.93	102.98
702.06	201.29
702.19	112.35
702.32	88.94
702.46	133.41
702.59	102.98
702.72	21.06
702.85	2.34
702.99	138.09
703.12	175.54
703.25	131.07
703.38	110.01
703.51	142.77
703.65	102.98
703.78	98.30
703.91	100.64
704.04	117.03
704.17	65.54
704.31	140.43
704.44	135.75
704.57	110.01
704.70	77.24
704.83	98.30
704.96	81.92
705.10	84.26
705.23	102.98
>>>>>End Processed Spectral Data<<<<<
