SpectraSuite Data File
++++++++++++++++++++++++++++++++++++
Date: Mon Oct 07 14:54:57 GMT-05:00 2013
User: price-jones
Dark Spectrum Present: No
Reference Spectrum Present: No
Number of Sampled Component Spectra: 1
Spectrometers: USB2+H05261
Integration Time (usec): 10000 (USB2+H05261)
Spectra Averaged: 1 (USB2+H05261)
Boxcar Smoothing: 0 (USB2+H05261)
Correct for Electrical Dark: No (USB2+H05261)
Strobe/Lamp Enabled: No (USB2+H05261)
Correct for Detector Non-linearity: No (USB2+H05261)
Correct for Stray Light: No (USB2+H05261)
Number of Pixels in Processed Spectrum: 2048
>>>>>Begin Processed Spectral Data<<<<<
365.73	0.00
365.92	0.00
366.12	0.00
366.32	0.00
366.52	0.00
366.72	0.00
366.91	0.00
367.11	0.00
367.31	0.00
367.51	0.00
367.70	0.00
367.90	0.00
368.10	0.00
368.30	0.00
368.49	0.00
368.69	0.00
368.89	0.00
369.09	0.00
369.28	0.00
369.48	0.00
369.68	0.00
369.87	0.00
370.07	0.00
370.27	0.00
370.47	191.92
370.66	1554.12
370.86	1621.99
371.06	1799.87
371.25	1795.19
371.45	1617.31
371.65	1451.13
371.84	1392.62
372.04	1554.12
372.24	1762.42
372.44	1713.27
372.63	1582.20
372.83	1509.65
373.03	1418.36
373.22	1247.51
373.42	1383.26
373.62	1547.09
373.81	1699.23
374.01	1675.82
374.21	1444.11
374.40	1437.09
374.60	1507.30
374.79	1816.26
374.99	2031.58
375.19	2012.86
375.38	2272.66
375.58	1937.96
375.78	2045.63
375.97	1921.58
376.17	2066.69
376.37	2228.19
376.56	2282.02
376.76	2305.43
376.95	2504.37
377.15	2616.72
377.35	2801.62
377.54	2820.35
377.74	2864.82
377.93	2883.54
378.13	2757.15
378.33	2588.63
378.52	2450.54
378.72	2244.57
378.91	2263.30
379.11	2209.47
379.31	2108.82
379.50	2129.89
379.70	2410.75
379.89	2586.29
380.09	2649.49
380.28	2832.05
380.48	2913.97
380.68	2722.04
380.87	2654.17
381.07	2417.77
381.26	2157.97
381.46	2069.03
381.65	1954.35
381.85	1949.67
382.04	1778.81
382.24	1631.35
382.43	1647.74
382.63	1750.72
382.83	1647.74
383.02	1586.88
383.22	1528.37
383.41	1769.44
383.61	1820.94
383.80	2097.12
384.00	2340.54
384.19	2647.15
384.39	2813.32
384.58	2766.51
384.78	2590.97
384.97	2588.63
385.17	2417.77
385.36	2174.36
385.56	2387.35
385.75	2511.39
385.95	2640.12
386.14	2958.44
386.34	2834.39
386.53	2640.12
386.72	2586.29
386.92	2628.42
387.11	2691.62
387.31	2848.43
387.50	2764.17
387.70	2609.70
387.89	2656.51
388.09	2726.72
388.28	2684.59
388.48	2757.15
388.67	3014.61
388.86	3396.12
389.06	3510.80
389.25	3676.98
389.45	3740.18
389.64	3765.92
389.84	3786.99
390.03	3651.24
390.22	3630.17
390.42	3810.39
390.61	4196.58
390.81	4191.90
391.00	4337.01
391.19	4273.82
391.39	4084.23
391.58	3831.46
391.78	3456.97
391.97	3480.38
392.16	3316.54
392.36	2787.58
392.55	2104.14
392.75	1694.55
392.94	1448.79
393.13	1605.61
393.33	1935.62
393.52	2499.69
393.71	3075.46
393.91	3342.28
394.10	3705.07
394.29	3969.55
394.49	4156.79
394.68	4566.39
394.88	4461.06
395.07	4652.98
395.26	4624.90
395.46	4510.21
395.65	4107.64
395.84	3459.31
396.04	2897.58
396.23	2403.73
396.42	2024.56
396.62	2113.50
396.81	2532.46
397.00	3337.60
397.19	4004.66
397.39	4720.86
397.58	5090.67
397.77	5469.83
397.97	5640.69
398.16	5776.44
398.35	5884.11
398.55	6153.27
398.74	6214.12
398.93	6417.75
399.12	6218.80
399.32	6274.98
399.51	6406.05
399.70	6764.15
399.90	6551.16
400.09	6679.89
400.28	6630.74
400.47	6822.66
400.67	7054.37
400.86	7253.32
401.05	7187.79
401.24	7192.47
401.44	7218.21
401.63	7290.77
401.82	7157.36
402.01	7328.22
402.21	7510.78
402.40	7372.69
402.59	7073.10
402.78	6829.68
402.97	6736.06
403.17	7005.22
403.36	7489.71
403.55	7606.74
403.74	7581.00
403.93	7138.63
404.13	6796.92
404.32	6771.17
404.51	7211.19
404.70	7583.34
404.89	7709.72
405.09	7337.58
405.28	7183.10
405.47	7300.13
405.66	7169.06
405.85	7096.50
406.05	6841.39
406.24	7136.29
406.43	7225.23
406.62	7602.06
406.81	7449.93
407.00	7335.24
407.20	7005.22
407.39	7103.53
407.58	7606.74
407.77	7812.71
407.96	7793.98
408.15	8248.05
408.34	8400.18
408.54	8528.91
408.73	8627.21
408.92	8435.29
409.11	7971.86
409.30	7747.17
409.49	7236.94
409.68	6876.49
409.87	6942.03
410.07	7342.26
410.26	7494.40
410.45	8140.38
410.64	8259.75
410.83	8674.03
411.02	9029.79
411.21	9214.69
411.40	9181.92
411.59	9195.96
411.78	8905.74
411.98	8863.61
412.17	8847.22
412.36	8734.88
412.55	8823.82
412.74	8526.57
412.93	8566.36
413.12	8812.12
413.31	9263.84
413.50	9514.28
413.69	9430.02
413.88	9020.42
414.07	8786.37
414.26	9193.62
414.45	9423.00
414.64	9540.02
414.83	9448.74
415.02	9238.09
415.22	9287.25
415.41	9411.29
415.60	9600.88
415.79	10054.94
415.98	10359.21
416.17	10097.07
416.36	10012.81
416.55	9912.17
416.74	9521.30
416.93	9118.73
417.12	9252.14
417.31	9483.85
417.50	9540.02
417.69	9715.56
417.88	9640.67
418.07	9523.64
418.26	9727.27
418.45	9846.63
418.64	10448.15
418.83	10640.08
419.02	10246.87
419.21	10148.56
419.39	9540.02
419.58	9132.77
419.77	9479.17
419.96	9799.82
420.15	10583.90
420.34	10752.42
420.53	10799.23
420.72	11176.06
420.91	10754.76
421.10	10810.93
421.29	10787.53
421.48	10354.53
421.67	10867.11
421.86	10469.22
422.05	9577.47
422.24	8896.38
422.43	8950.21
422.61	9870.04
422.80	10607.31
422.99	10211.76
423.18	9961.32
423.37	10120.48
423.56	10469.22
423.75	10221.12
423.94	10525.39
424.13	9724.93
424.32	9692.16
424.50	9584.49
424.69	9666.41
424.88	9989.41
425.07	9853.66
425.26	9851.31
425.45	9540.02
425.64	9748.33
425.83	10059.62
426.01	10317.08
426.20	10277.29
426.39	9973.02
426.58	9312.99
426.77	8751.26
426.96	8622.53
427.15	9130.43
427.33	9980.04
427.52	9741.31
427.71	10001.11
427.90	9481.51
428.09	9558.75
428.28	9540.02
428.46	9198.31
428.65	9062.55
428.84	9540.02
429.03	9392.57
429.22	8777.01
429.40	8243.37
429.59	7386.73
429.78	6691.59
429.97	6864.79
430.16	6682.23
430.34	6609.67
430.53	6885.86
430.72	7227.57
430.91	8231.66
431.10	9694.50
431.28	10785.19
431.47	11496.71
431.66	11728.42
431.85	10303.04
432.03	9523.64
432.22	9696.84
432.41	10188.35
432.60	10778.17
432.79	11442.88
432.97	11506.07
433.16	11131.59
433.35	10108.77
433.54	8851.91
433.72	9092.98
433.91	9259.16
434.10	10286.65
434.28	11075.42
434.47	11250.96
434.66	10839.02
434.85	10939.66
435.03	11180.74
435.22	11405.43
435.41	11501.39
435.59	11796.30
435.78	11906.31
435.97	12102.91
436.16	12159.08
436.34	12086.53
436.53	12042.06
436.72	11957.80
436.90	11000.52
437.09	11213.51
437.28	11044.99
437.46	11463.94
437.65	11080.10
437.84	10115.80
438.02	9783.44
438.21	10061.96
438.40	10710.29
438.58	10953.71
438.77	11131.59
438.96	11644.17
439.14	12196.53
439.33	12063.12
439.52	12439.95
439.70	12114.61
439.89	11688.64
440.08	11548.20
440.26	11580.97
440.45	12114.61
440.63	12760.60
440.82	13289.56
441.01	13104.66
441.19	13275.52
441.38	13642.98
441.57	13429.99
441.75	13848.95
441.94	13921.51
442.12	13591.49
442.31	14221.10
442.50	14394.29
442.68	14080.66
442.87	13675.75
443.05	13832.57
443.24	14413.02
443.43	13996.40
443.61	14251.52
443.80	14520.68
443.98	13994.06
444.17	14083.00
444.35	14628.35
444.54	15143.27
444.73	14572.18
444.91	13872.36
445.10	13188.92
445.28	12915.08
445.47	12886.99
445.65	12585.06
445.84	13280.20
446.02	13483.83
446.21	13638.30
446.39	13954.27
446.58	14150.88
446.77	14682.18
446.95	14679.84
447.14	14707.93
447.32	14820.27
447.51	14401.32
447.69	13682.77
447.88	13764.69
448.06	13895.76
448.25	14305.35
448.43	14462.17
448.62	13973.00
448.80	13963.64
448.99	14022.15
449.17	14464.51
449.36	14303.01
449.54	14691.54
449.73	14871.76
449.91	14892.83
450.10	15733.08
450.28	15817.34
450.46	15426.47
450.65	15197.10
450.83	15522.43
451.02	15353.91
451.20	15063.69
451.39	14874.10
451.57	14892.83
451.76	15019.22
451.94	14890.49
452.13	14736.01
452.31	13909.80
452.49	13270.84
452.68	13577.45
452.86	13710.86
453.05	13757.67
453.23	14473.87
453.42	14724.31
453.60	14640.05
453.78	14637.71
453.97	14726.65
454.15	14597.92
454.34	14370.89
454.52	14736.01
454.70	14508.98
454.89	14305.35
455.07	14415.36
455.26	14934.96
455.44	14937.30
455.62	15234.55
455.81	15859.47
455.99	14981.77
456.17	14995.81
456.36	15555.20
456.54	15707.34
456.73	15634.78
456.91	16135.65
457.09	15981.18
457.28	16306.51
457.46	15648.82
457.64	15658.18
457.83	14743.03
458.01	14586.22
458.19	15257.95
458.38	15363.28
458.56	15571.58
458.74	15503.71
458.93	15304.76
459.11	14939.64
459.29	14937.30
459.48	15339.87
459.66	15094.11
459.84	15276.68
460.03	15777.55
460.21	15492.01
460.39	16046.71
460.57	15826.70
460.76	15997.56
460.94	16065.44
461.12	15735.42
461.31	15910.96
461.49	15985.86
461.67	16070.12
461.85	16376.73
462.04	16166.08
462.22	16355.66
462.40	16191.83
462.59	15756.49
462.77	16088.84
462.95	16245.66
463.13	16210.55
463.32	15910.96
463.50	15744.78
463.68	15592.65
463.86	16009.26
464.05	15800.96
464.23	14967.73
464.41	14991.13
464.59	15133.90
464.78	15463.92
464.96	15461.58
465.14	15349.23
465.32	15948.41
465.50	16437.58
465.69	16126.29
465.87	15637.12
466.05	15459.24
466.23	14932.62
466.41	15110.50
466.60	15576.27
466.78	15433.49
466.96	15082.41
467.14	15346.89
467.32	15484.98
467.51	15510.73
467.69	15009.86
467.87	15059.01
468.05	15335.19
468.23	15545.84
468.41	15466.26
468.60	15772.87
468.78	15466.26
468.96	15777.55
469.14	16116.93
469.32	16276.09
469.50	15293.06
469.69	15080.07
469.87	14595.58
470.05	14974.75
470.23	15103.48
470.41	15428.81
470.59	15499.03
470.77	15456.90
470.95	15693.29
471.14	15878.19
471.32	16109.91
471.50	17142.08
471.68	17064.85
471.86	17057.82
472.04	16980.59
472.22	16772.28
472.40	16107.57
472.58	16250.34
472.77	15829.04
472.95	16390.77
473.13	16676.32
473.31	16088.84
473.49	16063.10
473.67	16695.04
473.85	16477.37
474.03	16793.34
474.21	16919.73
474.39	17029.74
474.57	17039.10
474.75	17008.67
474.93	17186.55
475.12	16816.75
475.30	17081.23
475.48	16968.88
475.66	17137.40
475.84	16795.68
476.02	16992.29
476.20	16510.14
476.38	16933.78
476.56	17256.77
476.74	17455.72
476.92	17879.35
477.10	17547.00
477.28	18335.76
477.46	18534.70
477.64	18401.29
477.82	18328.74
478.00	18312.35
478.18	18277.24
478.36	18045.53
478.54	17989.36
478.72	18883.44
478.90	19379.64
479.08	19403.04
479.26	19491.98
479.44	18923.23
479.62	19606.67
479.80	19527.09
479.98	19730.72
480.16	19964.77
480.34	20002.22
480.52	19623.05
480.70	19520.07
480.88	19899.23
481.06	19997.54
481.24	20641.18
481.41	20999.29
481.59	21467.39
481.77	20830.77
481.95	20589.69
482.13	21130.36
482.31	20540.54
482.49	21333.98
482.67	20702.04
482.85	20821.41
483.03	20828.43
483.21	21184.19
483.39	21575.06
483.57	21125.68
483.74	20798.00
483.92	20615.44
484.10	21469.73
484.28	21916.78
484.46	21504.84
484.64	21312.92
484.82	21788.05
485.00	21123.33
485.18	20636.50
485.35	19585.60
485.53	17476.78
485.71	16365.03
485.89	16683.34
486.07	17933.18
486.25	19524.75
486.43	20423.51
486.61	19562.20
486.78	19875.83
486.96	20730.12
487.14	21607.83
487.32	22293.60
487.50	22611.92
487.68	21996.35
487.85	23138.54
488.03	23140.88
488.21	22504.25
488.39	21839.54
488.57	21876.99
488.75	21977.63
488.92	23201.73
489.10	24938.41
489.28	25340.98
489.46	26029.10
489.64	26359.11
489.81	25919.09
489.99	25280.13
490.17	25802.07
490.35	26167.19
490.53	25029.69
490.70	24765.21
490.88	25156.08
491.06	25799.73
491.24	25661.63
491.41	24470.30
491.59	23676.86
491.77	23119.81
491.95	24205.82
492.13	24603.71
492.30	25380.77
492.48	26499.55
492.66	27080.00
492.84	26635.30
493.01	26441.03
493.19	25312.89
493.37	24711.38
493.54	25099.90
493.72	26012.71
493.90	27047.23
494.08	27447.46
494.25	28142.60
494.43	28584.96
494.61	28947.75
494.79	28903.28
494.96	28416.44
495.14	27199.37
495.32	26888.07
495.49	26581.46
495.67	27381.93
495.85	28807.31
496.02	28790.93
496.20	29062.43
496.38	28694.97
496.55	28177.71
496.73	28676.24
496.91	28334.53
497.09	28751.14
497.26	28966.47
497.44	29670.97
497.62	28826.04
497.79	27894.50
497.97	26981.70
498.14	27009.78
498.32	28006.85
498.50	28158.99
498.67	29345.64
498.85	28762.84
499.03	28102.81
499.20	29067.11
499.38	28758.16
499.56	27730.67
499.73	27800.88
499.91	27709.60
500.08	27087.02
500.26	26766.37
500.44	27667.47
500.61	28236.22
500.79	27358.52
500.97	27445.12
501.14	27225.11
501.32	26647.00
501.49	26073.57
501.67	27269.58
501.84	28339.21
502.02	28259.63
502.20	28245.58
502.37	28716.03
502.55	29287.12
502.72	29694.38
502.90	29961.20
503.07	28992.22
503.25	29472.03
503.43	28198.77
503.60	27337.46
503.78	26906.80
503.95	27356.18
504.13	28489.00
504.30	29729.48
504.48	29523.52
504.65	29024.98
504.83	29429.90
505.01	29209.89
505.18	29495.43
505.36	30548.67
505.53	30244.40
505.71	31044.87
505.88	30668.04
506.06	30733.57
506.23	29626.50
506.41	29195.84
506.58	29869.92
506.76	28943.06
506.93	29696.72
507.11	27789.18
507.28	29060.09
507.46	28704.33
507.63	28287.71
507.81	27686.20
507.98	28390.70
508.16	28929.02
508.33	29446.28
508.50	29095.20
508.68	30340.36
508.85	30558.03
509.03	30202.27
509.20	29226.27
509.38	29111.58
509.55	28931.36
509.73	29677.99
509.90	30125.04
510.08	28893.91
510.25	29200.52
510.42	29230.95
510.60	29017.96
510.77	29837.15
510.95	30785.07
511.12	29717.78
511.30	30567.40
511.47	31049.55
511.64	29837.15
511.82	30464.41
511.99	29439.26
512.17	29605.44
512.34	28914.98
512.51	28774.55
512.69	28580.28
512.86	29303.51
513.04	29993.97
513.21	29521.18
513.38	29216.91
513.56	28795.61
513.73	27620.66
513.90	27653.43
514.08	28247.93
514.25	28615.39
514.43	29003.92
514.60	29523.52
514.77	29420.53
514.95	29102.22
515.12	28709.01
515.29	29427.56
515.47	29921.41
515.64	29699.06
515.81	29975.24
515.99	29043.71
516.16	26785.09
516.33	24617.75
516.51	24032.62
516.68	22705.54
516.85	22349.78
517.03	23428.76
517.20	25839.51
517.37	27747.05
517.54	27889.82
517.72	27117.45
517.89	25214.59
518.06	23999.85
518.24	25050.75
518.41	26377.84
518.58	27627.68
518.75	27250.86
518.93	27807.90
519.10	27513.00
519.27	27906.21
519.45	28575.60
519.62	28797.95
519.79	29514.16
519.96	29085.84
520.14	27864.08
520.31	27630.02
520.48	27995.15
520.65	28362.61
520.83	28940.72
521.00	28779.23
521.17	28460.91
521.34	28002.17
521.52	27859.40
521.69	29223.93
521.86	29631.18
522.03	28601.35
522.20	28156.64
522.38	26733.60
522.55	26892.76
522.72	27854.72
522.89	27363.20
523.07	27922.59
523.24	28357.93
523.41	28744.12
523.58	28910.30
523.75	28627.09
523.92	29640.54
524.10	29200.52
524.27	29659.27
524.44	29268.40
524.61	30171.85
524.78	29521.18
524.96	28966.47
525.13	29247.33
525.30	30237.38
525.47	30349.73
525.64	29790.34
525.81	28350.91
525.98	26742.96
526.16	24982.88
526.33	24870.53
526.50	25160.76
526.67	25174.80
526.84	25446.30
527.01	26867.01
527.18	27674.49
527.36	27835.99
527.53	29593.73
527.70	28690.29
527.87	27248.52
528.04	27391.29
528.21	28507.72
528.38	28503.04
528.55	29848.85
528.72	29806.72
528.89	29472.03
529.07	29708.42
529.24	28259.63
529.41	28720.71
529.58	27360.86
529.75	27847.69
529.92	28023.23
530.09	28044.30
530.26	28882.21
530.43	27517.68
530.60	28657.52
530.77	29460.32
530.94	29968.22
531.11	28877.53
531.28	29062.43
531.46	28460.91
531.63	29677.99
531.80	29528.20
531.97	27805.56
532.14	26567.42
532.31	25675.68
532.48	25174.80
532.65	25130.33
532.82	26057.18
532.99	27218.09
533.16	28268.99
533.33	29146.69
533.50	28343.89
533.67	27889.82
533.84	27756.41
534.01	27978.76
534.18	27929.61
534.35	27487.25
534.52	27697.90
534.69	27943.66
534.86	28107.49
535.03	28416.44
535.20	28980.51
535.37	28940.72
535.54	29207.55
535.71	28599.01
535.88	28219.84
536.05	27122.13
536.22	27356.18
536.38	26625.93
536.55	26677.43
536.72	26511.25
536.89	26628.27
537.06	27686.20
537.23	27784.50
537.40	28018.55
537.57	27634.71
537.74	26899.78
537.91	26941.91
538.08	28350.91
538.25	28163.67
538.42	27559.81
538.59	27805.56
538.75	27843.01
538.92	27517.68
539.09	26670.40
539.26	26096.97
539.43	25422.90
539.60	25766.96
539.77	26101.65
539.94	25135.01
540.11	25041.39
540.28	24191.78
540.44	24875.21
540.61	24987.56
540.78	25610.14
540.95	26824.88
541.12	25926.11
541.29	27213.41
541.46	26450.39
541.62	26415.29
541.79	25757.60
541.96	25731.85
542.13	26712.53
542.30	26244.43
542.47	26635.30
542.63	26139.10
542.80	25481.41
542.97	25570.35
543.14	25359.70
543.31	25439.28
543.48	26850.63
543.64	26955.95
543.81	27559.81
543.98	26541.68
544.15	26457.42
544.32	25649.93
544.48	26473.80
544.65	25326.94
544.82	25891.01
544.99	26314.64
545.16	26277.19
545.32	26431.67
545.49	26871.69
545.66	26548.70
545.83	26373.16
546.00	26171.87
546.16	26134.42
546.33	25895.69
546.50	26637.64
546.67	25977.61
546.83	25855.90
547.00	25689.72
547.17	25535.24
547.34	25422.90
547.50	25017.99
547.67	25153.74
547.84	24957.13
548.00	25359.70
548.17	25160.76
548.34	24727.76
548.51	25184.16
548.67	26148.46
548.84	25982.29
549.01	26178.89
549.18	26143.78
549.34	26462.10
549.51	26349.75
549.68	25893.35
549.84	25099.90
550.01	25343.32
550.18	24884.58
550.34	24734.78
550.51	24847.13
550.68	24423.49
550.84	23637.07
551.01	24091.13
551.18	23599.62
551.34	23396.00
551.51	24748.82
551.68	25862.92
551.84	24690.31
552.01	25273.10
552.18	24680.95
552.34	24554.56
552.51	24360.30
552.68	24924.36
552.84	24563.92
553.01	24786.27
553.18	25184.16
553.34	25193.53
553.51	24870.53
553.67	24573.28
553.84	25390.13
554.01	25743.55
554.17	24372.00
554.34	24549.88
554.51	25338.64
554.67	24924.36
554.84	24636.48
555.00	24425.83
555.17	24489.03
555.33	24369.66
555.50	25139.69
555.67	24985.22
555.83	24861.17
556.00	24676.27
556.16	24484.34
556.33	24121.56
556.50	23988.15
556.66	23019.17
556.83	22991.08
556.99	23412.38
557.16	23920.28
557.32	24095.82
557.49	24135.60
557.65	24100.50
557.82	23028.53
557.98	23098.75
558.15	23597.28
558.32	22796.82
558.48	22207.00
558.65	21914.44
558.81	22284.24
558.98	22710.22
559.14	23143.22
559.31	23236.84
559.47	22824.90
559.64	22295.94
559.80	23061.30
559.97	22750.01
560.13	23592.60
560.30	23475.57
560.46	23494.30
560.63	23723.67
560.79	24215.18
560.96	23374.93
561.12	22885.76
561.29	22267.86
561.45	22113.38
561.61	22515.95
561.78	22368.50
561.94	22513.61
562.11	22483.19
562.27	22567.45
562.44	23105.77
562.60	23065.98
562.77	23566.85
562.93	22698.52
563.10	22733.62
563.26	22544.04
563.42	21916.78
563.59	21865.28
563.75	22948.95
563.92	22256.15
564.08	22221.05
564.24	22319.35
564.41	21659.32
564.57	22008.06
564.74	21518.89
564.90	21406.54
565.07	21317.60
565.23	20908.01
565.39	20779.28
565.56	21935.50
565.72	21912.10
565.88	22441.06
566.05	21422.92
566.21	21781.03
566.38	21209.93
566.54	21027.37
566.70	21125.68
566.87	21664.00
567.03	22403.61
567.19	23019.17
567.36	21481.44
567.52	22155.51
567.68	21579.74
567.85	21579.74
568.01	21935.50
568.17	20718.42
568.34	20217.55
568.50	19941.36
568.66	20760.55
568.83	20959.50
568.99	21149.08
569.15	21053.12
569.32	21603.14
569.48	21317.60
569.64	20847.15
569.81	20107.54
569.97	20379.04
570.13	20233.93
570.30	19988.18
570.46	19536.45
570.62	19089.41
570.78	18263.20
570.95	18977.06
571.11	19775.19
571.27	19367.93
571.43	19719.01
571.60	20388.41
571.76	20861.19
571.92	20788.64
572.09	20847.15
572.25	20360.32
572.41	21106.95
572.57	20992.26
572.74	20311.17
572.90	20470.33
573.06	20142.65
573.22	20100.52
573.38	19756.46
573.55	19468.58
573.71	19831.36
573.87	20191.80
574.03	20259.68
574.20	20250.32
574.36	20170.74
574.52	19777.53
574.68	19515.39
574.84	19431.13
575.01	19681.56
575.17	19964.77
575.33	19573.90
575.49	19321.12
575.65	19723.69
575.82	19440.49
575.98	19136.22
576.14	19220.48
576.30	19033.24
576.46	18761.73
576.62	19248.57
576.79	19070.68
576.95	18689.18
577.11	18705.56
577.27	18677.48
577.43	18649.39
577.59	18658.75
577.75	19042.60
577.92	18511.30
578.08	18216.39
578.24	17982.34
578.40	18672.79
578.56	18658.75
578.72	18560.45
578.88	18874.08
579.04	18581.51
579.21	18373.21
579.37	19070.68
579.53	18537.04
579.69	18115.75
579.85	18291.29
580.01	18148.51
580.17	18637.69
580.33	18443.42
580.49	18214.05
580.65	18312.35
580.82	18649.39
580.98	18647.05
581.14	18792.16
581.30	18925.57
581.46	18628.32
581.62	18473.85
581.78	18588.53
581.94	19115.16
582.10	18757.05
582.26	18459.81
582.42	18597.90
582.58	19468.58
582.74	18930.25
582.90	18661.09
583.06	18937.27
583.22	18684.50
583.38	18782.80
583.54	18958.34
583.70	18768.76
583.86	18693.86
584.02	18775.78
584.18	18780.46
584.34	18693.86
584.50	19269.63
584.66	19028.56
584.82	18427.04
584.98	18324.05
585.14	17755.30
585.30	17465.08
585.46	17378.48
585.62	16910.37
585.78	17476.78
585.94	17603.17
586.10	17961.27
586.26	17832.54
586.42	17788.07
586.58	18139.15
586.74	17287.20
586.90	17624.23
587.06	17680.41
587.22	17099.95
587.38	17476.78
587.54	17341.03
587.70	17247.41
587.86	16648.23
588.02	17362.09
588.18	16730.15
588.34	16182.46
588.49	15971.82
588.65	14984.11
588.81	14745.38
588.97	14752.40
589.13	14450.47
589.29	14307.69
589.45	15222.84
589.61	16046.71
589.77	16159.06
589.93	16400.13
590.08	16542.91
590.24	16734.83
590.40	16620.14
590.56	16561.63
590.72	15971.82
590.88	15728.40
591.04	16173.10
591.20	15775.21
591.35	16582.70
591.51	16702.06
591.67	16938.46
591.83	16390.77
591.99	16250.34
592.15	16229.27
592.31	15997.56
592.46	15854.79
592.62	16042.03
592.78	16285.45
592.94	15953.09
593.10	15971.82
593.26	15999.90
593.41	16695.04
593.57	16170.76
593.73	15889.90
593.89	15798.62
594.05	15431.15
594.20	15349.23
594.36	14857.72
594.52	15559.88
594.68	15496.69
594.84	15232.21
594.99	15669.89
595.15	15709.68
595.31	15730.74
595.47	15122.20
595.62	15323.49
595.78	15288.38
595.94	15779.89
596.10	15784.57
596.25	15550.52
596.41	15899.26
596.57	15716.70
596.73	15178.37
596.88	15314.13
597.04	15211.14
597.20	14918.57
597.36	14569.83
597.51	14878.79
597.67	15276.68
597.83	14977.09
597.99	15091.77
598.14	14745.38
598.30	13895.76
598.46	13987.04
598.61	14640.05
598.77	14726.65
598.93	15389.02
599.09	15417.11
599.24	15161.99
599.40	15159.65
599.56	15094.11
599.71	15000.49
599.87	14757.08
600.03	14714.95
600.18	15159.65
600.34	15496.69
600.50	15133.90
600.65	15452.22
600.81	15693.29
600.97	14930.28
601.12	14752.40
601.28	14422.38
601.44	14307.69
601.59	14211.73
601.75	14471.53
601.91	14803.89
602.06	14251.52
602.22	14609.62
602.37	14686.86
602.53	14513.66
602.69	14200.03
602.84	14232.80
603.00	14757.08
603.16	15066.03
603.31	14820.27
603.47	14413.02
603.62	14211.73
603.78	14848.36
603.94	14541.75
604.09	14960.70
604.25	15005.17
604.40	15033.26
604.56	15077.73
604.71	14867.08
604.87	15154.97
605.03	15346.89
605.18	14710.27
605.34	14462.17
605.49	13944.91
605.65	14291.31
605.80	14134.50
605.96	14153.22
606.12	14045.55
606.27	14047.90
606.43	14216.41
606.58	14066.62
606.74	14071.30
606.89	14347.48
607.05	14003.43
607.20	13912.14
607.36	14118.11
607.51	14143.86
607.67	13937.89
607.82	13877.04
607.98	14029.17
608.13	14127.47
608.29	14019.81
608.44	13891.08
608.60	13376.16
608.75	13743.63
608.91	13991.72
609.06	13521.27
609.22	13640.64
609.37	14026.83
609.53	14015.13
609.68	13242.75
609.84	13334.03
609.99	13181.90
610.15	12704.43
610.30	12744.22
610.46	13186.58
610.61	13376.16
610.76	13909.80
610.92	13760.01
611.07	14394.29
611.23	14277.27
611.38	13654.69
611.54	13266.16
611.69	12758.26
611.84	12540.59
612.00	12723.15
612.15	12840.18
612.31	13022.74
612.46	13334.03
612.62	13118.70
612.77	12898.69
612.92	13053.17
613.08	13097.64
613.23	12250.36
613.39	12210.57
613.54	12372.07
613.69	12278.45
613.85	12245.68
614.00	12233.98
614.15	12102.91
614.31	12526.55
614.46	12568.68
614.62	12723.15
614.77	12669.32
614.92	12301.86
615.08	12980.61
615.23	12533.57
615.38	12449.31
615.54	12114.61
615.69	11672.25
615.84	11318.83
616.00	11363.30
616.15	12013.97
616.30	11772.89
616.46	11400.75
616.61	11873.54
616.76	11669.91
616.92	12039.72
617.07	12556.97
617.22	12430.59
617.37	12224.62
617.53	12231.64
617.68	12203.55
617.83	12252.70
617.99	12116.95
618.14	12226.96
618.29	12072.48
618.45	11854.81
618.60	11138.61
618.75	11346.92
618.90	11386.71
619.06	11705.02
619.21	12025.67
619.36	11831.41
619.51	11974.18
619.67	11983.54
619.82	11730.76
619.97	11852.47
620.12	11768.21
620.28	11733.11
620.43	11910.99
620.58	11815.02
620.73	11915.67
620.89	12081.85
621.04	12189.51
621.19	11531.82
621.34	11534.16
621.49	11318.83
621.65	11538.84
621.80	11178.40
621.95	11419.47
622.10	11674.59
622.25	10920.94
622.41	10986.47
622.56	11358.62
622.71	11094.14
622.86	11307.13
623.01	11768.21
623.16	11555.22
623.32	11250.96
623.47	11044.99
623.62	11218.19
623.77	11068.39
623.92	11293.08
624.07	10892.85
624.23	10881.15
624.38	10799.23
624.53	11070.73
624.68	10672.84
624.83	10473.90
624.98	10176.65
625.13	10696.25
625.29	10492.62
625.44	10363.89
625.59	10630.71
625.74	10897.53
625.89	10773.49
626.04	10509.01
626.19	10209.42
626.34	10272.61
626.49	10441.13
626.65	10340.49
626.80	10363.89
626.95	10555.82
627.10	10452.83
627.25	10146.22
627.40	9558.75
627.55	9600.88
627.70	9650.03
627.85	9479.17
628.00	9977.70
628.15	10281.97
628.30	9951.96
628.45	9975.36
628.60	9788.12
628.76	10104.09
628.91	9893.44
629.06	10015.15
629.21	9734.29
629.36	9748.33
629.51	9755.35
629.66	9858.34
629.81	9940.26
629.96	9984.73
630.11	10008.13
630.26	9706.20
630.41	9776.42
630.56	9495.55
630.71	9589.17
630.86	9371.50
631.01	9359.80
631.16	9184.26
631.31	8957.23
631.46	9298.95
631.61	9518.96
631.76	9818.55
631.91	9853.66
632.06	9533.00
632.21	9902.81
632.36	10347.51
632.51	10045.58
632.66	10399.00
632.81	9685.14
632.96	9582.15
633.10	9455.76
633.25	9518.96
633.40	9851.31
633.55	9418.32
633.70	9277.88
633.85	9263.84
634.00	9303.63
634.15	8762.97
634.30	8987.66
634.45	8910.42
634.60	9352.78
634.75	9633.64
634.90	9511.94
635.05	9385.55
635.19	9303.63
635.34	9341.08
635.49	9418.32
635.64	9418.32
635.79	9226.39
635.94	8968.93
636.09	8999.36
636.24	8950.21
636.39	9170.22
636.53	9078.94
636.68	9533.00
636.83	9523.64
636.98	9287.25
637.13	9437.04
637.28	9280.22
637.43	9399.59
637.57	9385.55
637.72	9219.37
637.87	9032.13
638.02	8891.70
638.17	9172.56
638.32	9399.59
638.46	8643.60
638.61	8594.45
638.76	8755.94
638.91	8692.75
639.06	9025.11
639.20	9043.83
639.35	9064.89
639.50	8713.81
639.65	8627.21
639.80	8968.93
639.94	8627.21
640.09	8669.34
640.24	8521.89
640.39	8786.37
640.54	8755.94
640.68	8578.06
640.83	8823.82
640.98	8650.62
641.13	8325.29
641.27	8423.59
641.42	8051.44
641.57	8109.96
641.72	8016.33
641.86	8439.97
642.01	8596.79
642.16	8912.76
642.31	8526.57
642.45	8760.63
642.60	8762.97
642.75	8512.53
642.90	8709.13
643.04	8816.80
643.19	8828.50
643.34	8554.66
643.48	8238.69
643.63	7999.95
643.78	7854.84
643.93	8191.88
644.07	8140.38
644.22	8425.93
644.37	8451.67
644.51	8327.63
644.66	8154.43
644.81	7852.50
644.95	8194.22
645.10	8175.49
645.25	8133.36
645.39	8114.64
645.54	7953.14
645.69	7936.76
645.83	7786.96
645.98	7674.62
646.13	7801.01
646.27	8053.78
646.42	8028.04
646.57	7999.95
646.71	7892.29
646.86	7852.50
647.00	7667.60
647.15	7410.14
647.30	7723.77
647.44	7903.99
647.59	7669.94
647.74	7445.24
647.88	7368.01
648.03	7344.60
648.17	7353.96
648.32	7693.34
648.47	7480.35
648.61	7124.59
648.76	6988.84
648.90	6895.22
649.05	6705.63
649.20	6602.65
649.34	6939.69
649.49	6883.52
649.63	7157.36
649.78	7091.82
649.92	7318.86
650.07	7470.99
650.21	7550.57
650.36	7531.84
650.51	7260.34
650.65	7398.43
650.80	7473.33
650.94	7265.02
651.09	7108.21
651.23	7309.49
651.38	7569.29
651.52	7442.90
651.67	7286.09
651.81	7517.80
651.96	7267.36
652.10	7309.49
652.25	7155.02
652.39	7234.60
652.54	7499.08
652.68	7152.68
652.83	7492.05
652.97	7482.69
653.12	7309.49
653.26	7375.03
653.41	7197.15
653.55	7253.32
653.70	7407.80
653.84	7258.00
653.99	7276.73
654.13	7363.33
654.27	7122.25
654.42	6843.73
654.56	6722.02
654.71	6604.99
654.85	6995.86
655.00	6937.35
655.14	6874.15
655.29	6630.74
655.43	6537.12
655.57	6345.19
655.72	5591.54
655.86	5146.84
656.01	5135.14
656.15	5130.45
656.30	5921.56
656.44	6197.74
656.58	6256.25
656.73	6340.51
656.87	6560.52
657.01	6293.70
657.16	6394.34
657.30	6370.94
657.45	6532.44
657.59	6738.40
657.73	6832.02
657.88	6733.72
658.02	6857.77
658.16	6686.91
658.31	6794.58
658.45	6803.94
658.60	7047.35
658.74	6860.11
658.88	6724.36
659.03	7019.27
659.17	6621.38
659.31	6785.21
659.46	6754.79
659.60	6707.98
659.74	6832.02
659.89	6593.29
660.03	6668.19
660.17	6736.06
660.32	6516.05
660.46	6590.95
660.60	6361.58
660.74	6396.68
660.89	6509.03
661.03	6424.77
661.17	6485.62
661.32	6389.66
661.46	6497.33
661.60	6693.93
661.74	6864.79
661.89	6588.61
662.03	6354.55
662.17	6431.79
662.31	6778.19
662.46	6780.53
662.60	6518.39
662.74	6298.38
662.88	6345.19
663.03	6345.19
663.17	6225.82
663.31	6258.59
663.45	6188.38
663.60	6125.18
663.74	6171.99
663.88	6003.47
664.02	6033.90
664.17	6218.80
664.31	5956.66
664.45	6012.84
664.59	6277.32
664.73	6008.16
664.88	5909.85
665.02	6022.20
665.16	5916.87
665.30	5973.05
665.44	6120.50
665.59	6223.48
665.73	6249.23
665.87	6169.65
666.01	6141.57
666.15	6150.93
666.29	5940.28
666.44	5870.06
666.58	5914.53
666.72	5982.41
666.86	6094.76
667.00	6031.56
667.14	5928.58
667.28	5837.30
667.43	5694.52
667.57	5860.70
667.71	5628.99
667.85	5753.04
667.99	5895.81
668.13	6005.81
668.27	5696.86
668.41	5596.22
668.56	5605.58
668.70	5741.33
668.84	5502.60
668.98	5495.58
669.12	5430.04
669.26	5774.10
669.40	5399.62
669.54	5305.99
669.68	5219.39
669.82	5160.88
669.96	5184.29
670.10	5102.37
670.25	5210.03
670.39	5343.44
670.53	5245.14
670.67	5390.25
670.81	5467.49
670.95	5647.71
671.09	5544.73
671.23	5107.05
671.37	5132.79
671.51	5207.69
671.65	5245.14
671.79	5317.70
671.93	5254.50
672.07	5228.76
672.21	5167.90
672.35	5102.37
672.49	5256.84
672.63	5345.78
672.77	5301.31
672.91	5212.37
673.05	5163.22
673.19	5060.24
673.33	4936.19
673.47	4931.51
673.61	5041.51
673.75	4901.08
673.89	4784.06
674.03	4821.50
674.17	5191.31
674.31	5247.48
674.45	5067.26
674.59	5195.99
674.73	5039.17
674.87	5163.22
675.01	4868.31
675.15	5078.96
675.29	4830.87
675.43	4767.67
675.56	4753.63
675.70	4912.78
675.84	4676.39
675.98	4683.41
676.12	4685.75
676.26	4800.44
676.40	4762.99
676.54	4739.58
676.68	4692.77
676.82	4407.23
676.96	4208.28
677.10	4533.62
677.23	4507.87
677.37	4723.20
677.51	4676.39
677.65	4791.08
677.79	4571.07
677.93	4545.32
678.07	4933.85
678.21	4472.76
678.34	4496.17
678.48	4610.86
678.62	4542.98
678.76	4596.81
678.90	4404.89
679.04	4472.76
679.18	4482.13
679.31	4542.98
679.45	4437.66
679.59	4432.97
679.73	4341.69
679.87	4163.81
680.00	4095.94
680.14	4161.47
680.28	4219.99
680.42	4072.53
680.56	3974.23
680.70	3892.31
680.83	4004.66
680.97	4042.11
681.11	3962.53
681.25	4042.11
681.39	3866.56
681.52	3840.82
681.66	3927.42
681.80	3918.06
681.94	3911.04
682.07	4009.34
682.21	4152.11
682.35	4119.34
682.49	3957.85
682.62	4004.66
682.76	3967.21
682.90	4140.41
683.04	3742.52
683.17	3918.06
683.31	3618.47
683.45	3667.62
683.59	3817.41
683.72	3801.03
683.86	3588.04
684.00	3728.47
684.13	3747.20
684.27	3665.28
684.41	3583.36
684.55	3463.99
684.68	3761.24
684.82	3644.21
684.96	3506.12
685.09	3419.52
685.23	3407.82
685.37	3307.18
685.50	3426.54
685.64	3520.17
685.78	3552.93
685.91	3356.33
686.05	3351.65
686.19	3239.30
686.32	3059.08
686.46	2768.85
686.60	2235.21
686.73	2193.08
686.87	2069.03
687.01	2008.18
687.14	2139.25
687.28	2148.61
687.42	2356.92
687.55	2483.31
687.69	2586.29
687.82	2764.17
687.96	2764.17
688.10	2663.53
688.23	2705.66
688.37	2736.09
688.50	2548.84
688.64	2541.82
688.78	2480.97
688.91	2487.99
689.05	2431.82
689.18	2457.56
689.32	2530.12
689.46	2373.30
689.59	2363.94
689.73	2445.86
689.86	2438.84
690.00	2504.37
690.13	2516.08
690.27	2651.83
690.41	2392.03
690.54	2473.95
690.68	2562.89
690.81	2583.95
690.95	2523.10
691.08	2504.37
691.22	2689.28
691.35	2705.66
691.49	2738.43
691.62	2740.77
691.76	2548.84
691.89	2642.46
692.03	2567.57
692.16	2595.65
692.30	2703.32
692.43	2635.44
692.57	2478.63
692.70	2436.50
692.84	2422.45
692.97	2263.30
693.11	2499.69
693.24	2354.58
693.38	2389.69
693.51	2354.58
693.65	2352.24
693.78	2193.08
693.92	2223.51
694.05	2396.71
694.19	2335.85
694.32	2352.24
694.45	2401.39
694.59	2310.11
694.72	2403.73
694.86	2286.70
694.99	2480.97
695.13	2321.81
695.26	2436.50
695.39	2401.39
695.53	2239.89
695.66	2157.97
695.80	2204.78
695.93	2176.70
696.07	2150.95
696.20	2256.28
696.33	2183.72
696.47	2272.66
696.60	2258.62
696.73	2338.20
696.87	2237.55
697.00	2286.70
697.14	2195.42
697.27	2136.91
697.40	2085.42
697.54	2125.21
697.67	2010.52
697.80	1984.77
697.94	2047.97
698.07	1968.39
698.21	2062.01
698.34	1947.33
698.47	1956.69
698.61	1865.41
698.74	1898.17
698.87	2101.80
699.01	2024.56
699.14	1930.94
699.27	1926.26
699.40	1959.03
699.54	1902.86
699.67	1921.58
699.80	1886.47
699.94	2001.16
700.07	1853.70
700.20	1891.15
700.34	1795.19
700.47	1806.89
700.60	1818.60
700.73	1785.83
700.87	1912.22
701.00	1863.07
701.13	1671.14
701.26	1645.40
701.40	1657.10
701.53	1722.63
701.66	1633.69
701.79	1664.12
701.93	1661.78
702.06	1610.29
702.19	1561.14
702.32	1645.40
702.46	1614.97
702.59	1556.46
702.72	1572.84
702.85	1530.71
702.99	1556.46
703.12	1645.40
703.25	1713.27
703.38	1570.50
703.51	1575.18
703.65	1535.39
703.78	1582.20
703.91	1661.78
704.04	1664.12
704.17	1696.89
704.31	1636.03
704.44	1600.93
704.57	1507.30
704.70	1558.80
704.83	1519.01
704.96	1591.56
705.10	1551.78
705.23	1507.30
>>>>>End Processed Spectral Data<<<<<
