SpectraSuite Data File
++++++++++++++++++++++++++++++++++++
Date: Mon Oct 07 14:54:59 GMT-05:00 2013
User: price-jones
Dark Spectrum Present: No
Reference Spectrum Present: No
Number of Sampled Component Spectra: 1
Spectrometers: USB2+H05261
Integration Time (usec): 10000 (USB2+H05261)
Spectra Averaged: 1 (USB2+H05261)
Boxcar Smoothing: 0 (USB2+H05261)
Correct for Electrical Dark: No (USB2+H05261)
Strobe/Lamp Enabled: No (USB2+H05261)
Correct for Detector Non-linearity: No (USB2+H05261)
Correct for Stray Light: No (USB2+H05261)
Number of Pixels in Processed Spectrum: 2048
>>>>>Begin Processed Spectral Data<<<<<
365.73	0.00
365.92	0.00
366.12	0.00
366.32	0.00
366.52	0.00
366.72	0.00
366.91	0.00
367.11	0.00
367.31	0.00
367.51	0.00
367.70	0.00
367.90	0.00
368.10	0.00
368.30	0.00
368.49	0.00
368.69	0.00
368.89	0.00
369.09	0.00
369.28	0.00
369.48	0.00
369.68	0.00
369.87	0.00
370.07	0.00
370.27	0.00
370.47	124.05
370.66	1359.85
370.86	1720.29
371.06	1823.28
371.25	1790.51
371.45	1605.61
371.65	1453.47
371.84	1348.15
372.04	1476.88
372.24	1696.89
372.44	1795.19
372.63	1664.12
372.83	1423.05
373.03	1291.98
373.22	1277.93
373.42	1336.45
373.62	1631.35
373.81	1626.67
374.01	1626.67
374.21	1411.34
374.40	1380.92
374.60	1474.54
374.79	1743.70
374.99	2087.76
375.19	2157.97
375.38	2050.31
375.58	1905.20
375.78	1884.13
375.97	1954.35
376.17	1877.11
376.37	2132.23
376.56	2179.04
376.76	2239.89
376.95	2438.84
377.15	2480.97
377.35	2675.23
377.54	2782.90
377.74	2871.84
377.93	2740.77
378.13	2745.45
378.33	2527.78
378.52	2392.03
378.72	2181.38
378.91	2197.76
379.11	2090.10
379.31	2069.03
379.50	2008.18
379.70	2321.81
379.89	2534.80
380.09	2738.43
380.28	2752.47
380.48	2827.37
380.68	2633.10
380.87	2654.17
381.07	2368.62
381.26	2377.98
381.46	2062.01
381.65	2080.74
381.85	1973.07
382.04	1825.62
382.24	1713.27
382.43	1614.97
382.63	1575.18
382.83	1614.97
383.02	1579.86
383.22	1612.63
383.41	1703.91
383.61	1762.42
383.80	2132.23
384.00	2335.85
384.19	2684.59
384.39	2820.35
384.58	2780.56
384.78	2717.36
384.97	2665.87
385.17	2583.95
385.36	2363.94
385.56	2265.64
385.75	2471.61
385.95	2609.70
386.14	2984.18
386.34	2836.73
386.53	2717.36
386.72	2569.91
386.92	2619.06
387.11	2733.75
387.31	2855.45
387.50	2832.05
387.70	2738.43
387.89	2771.19
388.09	2647.15
388.28	2696.30
388.48	2909.29
388.67	3002.91
388.86	3321.22
389.06	3592.72
389.25	3751.88
389.45	3679.32
389.64	3786.99
389.84	3674.64
390.03	3496.76
390.22	3705.07
390.42	3824.44
390.61	4152.11
390.81	4278.50
391.00	4432.97
391.19	4428.29
391.39	4203.60
391.58	3920.40
391.78	3756.56
391.97	3592.72
392.16	3236.96
392.36	2981.84
392.55	2300.75
392.75	1741.36
392.94	1446.45
393.13	1638.38
393.33	2092.44
393.52	2476.29
393.71	3068.44
393.91	3330.58
394.10	3803.37
394.29	4119.34
394.49	4484.47
394.68	4807.46
394.88	4571.07
395.07	4894.06
395.26	4772.35
395.46	4545.32
395.65	4114.66
395.84	3524.85
396.04	2995.89
396.23	2377.98
396.42	2040.95
396.62	2155.63
396.81	2665.87
397.00	3454.63
397.19	4147.43
397.39	4755.97
397.58	5308.34
397.77	5671.12
397.97	6008.16
398.16	5959.00
398.35	6218.80
398.55	6279.66
398.74	6518.39
398.93	6740.74
399.12	6464.56
399.32	6457.54
399.51	6523.07
399.70	7014.59
399.90	6710.32
400.09	6773.51
400.28	6803.94
400.47	7103.53
400.67	7375.03
400.86	7440.56
401.05	7403.11
401.24	7412.48
401.44	7599.72
401.63	7541.21
401.82	7470.99
402.01	7595.04
402.21	7833.77
402.40	7681.64
402.59	7358.64
402.78	7185.44
402.97	6876.49
403.17	7433.54
403.36	7866.54
403.55	7885.26
403.74	8002.29
403.93	7353.96
404.13	7035.65
404.32	7148.00
404.51	7686.32
404.70	8049.10
404.89	7829.09
405.09	7726.11
405.28	7625.47
405.47	7651.21
405.66	7576.31
405.85	7255.66
406.05	7105.87
406.24	7129.27
406.43	7627.81
406.62	7726.11
406.81	7793.98
407.00	7517.80
407.20	7218.21
407.39	7414.82
407.58	7997.61
407.77	8138.04
407.96	8444.65
408.15	8755.94
408.34	8671.68
408.54	8812.12
408.73	9097.66
408.92	8835.52
409.11	8667.00
409.30	8201.24
409.49	7461.63
409.68	7152.68
409.87	7269.70
410.07	7559.93
410.26	7927.39
410.45	8376.78
410.64	8896.38
410.83	9249.80
411.02	9320.01
411.21	9493.21
411.40	9404.27
411.59	9612.58
411.78	9617.26
411.98	9504.92
412.17	9334.06
412.36	9514.28
412.55	9479.17
412.74	9280.22
412.93	9111.71
413.12	9240.44
413.31	9973.02
413.50	9928.55
413.69	10026.86
413.88	9654.71
414.07	9628.96
414.26	9757.69
414.45	9832.59
414.64	9977.70
414.83	10005.79
415.02	9710.88
415.22	9863.02
415.41	10045.58
415.60	10417.72
415.79	10855.40
415.98	11122.23
416.17	11070.73
416.36	10754.76
416.55	10579.22
416.74	10174.31
416.93	9645.35
417.12	9947.28
417.31	10061.96
417.50	10408.36
417.69	10551.14
417.88	10525.39
418.07	10523.05
418.26	10193.03
418.45	10654.12
418.64	10876.47
418.83	11243.93
419.02	11068.39
419.21	10963.07
419.39	10389.64
419.58	10230.48
419.77	10066.64
419.96	10562.84
420.15	11215.85
420.34	11398.41
420.53	11721.40
420.72	11791.62
420.91	11580.97
421.10	11386.71
421.29	11857.15
421.48	11391.39
421.67	11623.10
421.86	11248.61
422.05	10377.94
422.24	9572.79
422.43	9797.48
422.61	11115.20
422.80	11651.19
422.99	11452.24
423.18	10827.32
423.37	10637.73
423.56	10731.36
423.75	11211.17
423.94	11199.46
424.13	10771.15
424.32	10473.90
424.50	10717.31
424.69	10546.45
424.88	10574.54
425.07	10787.53
425.26	10565.18
425.45	10684.55
425.64	10277.29
425.83	10534.75
426.01	11047.33
426.20	11300.11
426.39	11169.04
426.58	9942.60
426.77	9294.27
426.96	9116.39
427.15	9933.23
427.33	10691.57
427.52	10731.36
427.71	10595.61
427.90	10731.36
428.09	10431.77
428.28	10377.94
428.46	9813.87
428.65	10038.56
428.84	10431.77
429.03	10244.52
429.22	9797.48
429.40	9085.96
429.59	8276.13
429.78	7473.33
429.97	7527.16
430.16	7548.23
430.34	7569.29
430.53	7550.57
430.72	8114.64
430.91	9207.67
431.10	10644.76
431.28	12435.27
431.47	13022.74
431.66	13090.62
431.85	11398.41
432.03	10789.87
432.22	10593.26
432.41	11297.77
432.60	12334.62
432.79	12753.58
432.97	12842.52
433.16	12138.02
433.35	10974.77
433.54	10010.47
433.72	9776.42
433.91	10361.55
434.10	11597.35
434.28	11967.16
434.47	12723.15
434.66	12184.83
434.85	12004.61
435.03	12208.23
435.22	12379.09
435.41	12723.15
435.59	13097.64
435.78	13282.54
435.97	13738.94
436.16	13437.02
436.34	13413.61
436.53	13303.60
436.72	13280.20
436.90	12414.20
437.09	12472.71
437.28	12650.60
437.46	12922.10
437.65	12666.98
437.84	11307.13
438.02	10839.02
438.21	11166.70
438.40	11400.75
438.58	12428.24
438.77	12856.56
438.96	12973.59
439.14	13621.92
439.33	13781.07
439.52	13731.92
439.70	13383.18
439.89	12898.69
440.08	12720.81
440.26	12781.67
440.45	13799.80
440.63	14483.24
440.82	14960.70
441.01	14874.10
441.19	14661.12
441.38	14939.64
441.57	15208.80
441.75	15211.14
441.94	15627.76
442.12	15433.49
442.31	15922.66
442.50	16170.76
442.68	15459.24
442.87	15309.44
443.05	15096.46
443.24	15660.52
443.43	16013.95
443.61	16109.91
443.80	16285.45
443.98	15449.88
444.17	15594.99
444.35	16336.94
444.54	16575.67
444.73	16372.05
444.91	15686.27
445.10	15002.83
445.28	14223.44
445.47	14050.24
445.65	14441.11
445.84	14733.67
446.02	15321.15
446.21	15758.83
446.39	15735.42
446.58	15815.00
446.77	15864.15
446.95	16194.17
447.14	16372.05
447.32	16943.14
447.51	16168.42
447.69	15784.57
447.88	15953.09
448.06	16219.91
448.25	16381.41
448.43	16437.58
448.62	16135.65
448.80	16203.53
448.99	16184.80
449.17	16210.55
449.36	16240.98
449.54	16699.72
449.73	17050.80
449.91	17376.14
450.10	17905.10
450.28	18143.83
450.46	18047.87
450.65	17905.10
450.83	17830.20
451.02	17207.62
451.20	17366.78
451.39	17603.17
451.57	17350.39
451.76	17224.00
451.94	16823.77
452.13	16517.16
452.31	15719.04
452.49	14956.02
452.68	15606.69
452.86	15236.89
453.05	15838.41
453.23	16409.50
453.42	16919.73
453.60	16877.60
453.78	17064.85
453.97	16638.87
454.15	16711.42
454.34	16152.04
454.52	16320.56
454.70	16290.13
454.89	16582.70
455.07	16585.04
455.26	16989.95
455.44	17413.59
455.62	17940.21
455.81	17781.05
455.99	17640.62
456.17	17596.15
456.36	17905.10
456.54	18239.79
456.73	18270.22
456.91	18651.73
457.09	18609.60
457.28	19075.37
457.46	17839.56
457.64	17511.89
457.83	17067.19
458.01	16809.73
458.19	17638.28
458.38	17687.43
458.56	18216.39
458.74	18078.30
458.93	18031.49
459.11	17408.90
459.29	17371.46
459.48	17738.92
459.66	17191.23
459.84	17748.28
460.03	18338.10
460.21	18239.79
460.39	18960.68
460.57	18361.50
460.76	18366.18
460.94	18752.37
461.12	18415.34
461.31	18438.74
461.49	18508.96
461.67	18515.98
461.85	19023.87
462.04	19201.76
462.22	18941.96
462.40	19239.20
462.59	19073.03
462.77	18892.80
462.95	18862.38
463.13	18539.38
463.32	18120.43
463.50	18614.28
463.68	18595.56
463.86	18642.37
464.05	18202.35
464.23	17666.36
464.41	17703.81
464.59	17334.01
464.78	18775.78
464.96	18604.92
465.14	18291.29
465.32	18647.05
465.50	19110.47
465.69	19440.49
465.87	19066.00
466.05	18019.78
466.23	17338.69
466.41	17172.51
466.60	17935.53
466.78	17797.43
466.96	18001.06
467.14	18274.90
467.32	18459.81
467.51	18420.02
467.69	17610.19
467.87	18317.03
468.05	18993.45
468.23	18366.18
468.41	18410.65
468.60	18340.44
468.78	18520.66
468.96	18441.08
469.14	19016.85
469.32	18883.44
469.50	17940.21
469.69	17921.48
469.87	17781.05
470.05	18019.78
470.23	17905.10
470.41	17940.21
470.59	18010.42
470.77	18209.37
470.95	18642.37
471.14	18836.63
471.32	18913.87
471.50	19817.32
471.68	19854.76
471.86	19906.26
472.04	20629.48
472.22	19749.44
472.40	18857.70
472.58	18874.08
472.77	18918.55
472.95	19056.64
473.13	19611.35
473.31	19564.54
473.49	19620.71
473.67	19679.22
473.85	19990.52
474.03	20849.49
474.21	20868.22
474.39	21022.69
474.57	20802.68
474.75	21109.29
474.93	20545.22
475.12	20297.13
475.30	19962.43
475.48	20042.01
475.66	20161.37
475.84	20135.63
476.02	20233.93
476.20	19613.69
476.38	20336.91
476.56	21032.05
476.74	21022.69
476.92	21303.56
477.10	20936.09
477.28	22654.05
477.46	22136.79
477.64	22579.15
477.82	22452.76
478.00	22553.40
478.18	22143.81
478.36	22134.45
478.54	22272.54
478.72	22703.20
478.90	23672.18
479.08	23882.83
479.26	23850.06
479.44	23751.76
479.62	23248.54
479.80	23494.30
479.98	24074.75
480.16	24032.62
480.34	23576.22
480.52	24276.04
480.70	24545.20
480.88	24238.59
481.06	24790.95
481.24	24496.05
481.41	24694.99
481.59	25518.86
481.77	25832.49
481.95	25443.96
482.13	25479.07
482.31	25603.12
482.49	26209.32
482.67	25795.04
482.85	25998.67
483.03	26544.02
483.21	26829.56
483.39	26267.83
483.57	25247.36
483.74	25289.49
483.92	25907.39
484.10	26026.76
484.28	26508.91
484.46	26700.83
484.64	26675.09
484.82	26305.28
485.00	26134.42
485.18	25914.41
485.35	24456.26
485.53	21956.57
485.71	20507.77
485.89	20678.63
486.07	21764.64
486.25	24121.56
486.43	25025.01
486.61	25195.87
486.78	25635.89
486.96	26293.58
487.14	27197.02
487.32	27248.52
487.50	28203.46
487.68	28460.91
487.85	29142.01
488.03	29422.87
488.21	28793.27
488.39	28056.00
488.57	27791.52
488.75	27566.83
488.92	29223.93
489.10	30515.90
489.28	31000.40
489.46	31819.58
489.64	31716.60
489.81	31740.00
489.99	31999.80
490.17	31910.86
490.35	32065.34
490.53	31480.21
490.70	30476.12
490.88	30785.07
491.06	32177.68
491.24	32013.85
491.41	30054.82
491.59	29172.44
491.77	28561.56
491.95	30321.64
492.13	31686.17
492.30	32320.46
492.48	33783.29
492.66	34139.05
492.84	33001.55
493.01	33170.07
493.19	32566.21
493.37	32811.97
493.54	32678.56
493.72	34099.26
493.90	34387.15
494.08	34181.18
494.25	35669.76
494.43	35786.79
494.61	35175.91
494.79	35665.08
494.96	35686.15
495.14	34066.50
495.32	34209.27
495.49	33963.51
495.67	34726.53
495.85	36367.24
496.02	36947.70
496.20	36528.74
496.38	35988.08
496.55	36032.55
496.73	36517.04
496.91	36282.98
497.09	37418.14
497.26	37645.18
497.44	36177.66
497.62	35660.40
497.79	35667.42
497.97	34213.95
498.14	34424.60
498.32	36524.06
498.50	36879.82
498.67	36098.08
498.85	37202.82
499.03	37521.13
499.20	38059.45
499.38	37811.35
499.56	37113.87
499.73	36282.98
499.91	35154.85
500.08	34953.56
500.26	34249.06
500.44	34555.67
500.61	35821.90
500.79	35419.33
500.97	34859.94
501.14	34749.93
501.32	34476.09
501.49	35037.82
501.67	35770.41
501.84	35639.34
502.02	36453.84
502.20	36788.54
502.37	37270.69
502.55	36961.74
502.72	37923.70
502.90	37963.49
503.07	37055.36
503.25	36589.59
503.43	35278.89
503.60	34925.47
503.78	34646.95
503.95	35688.49
504.13	37401.76
504.30	38422.23
504.48	37193.45
504.65	37151.32
504.83	37116.22
505.01	37673.26
505.18	37818.38
505.36	38359.04
505.53	39161.84
505.71	39601.86
505.88	40783.83
506.06	39604.20
506.23	39145.46
506.41	38242.01
506.58	39297.59
506.76	37949.45
506.93	37883.91
507.11	37591.34
507.28	37684.97
507.46	37593.68
507.63	37064.72
507.81	36182.34
507.98	37156.00
508.16	38017.32
508.33	39285.89
508.50	39571.44
508.68	39363.13
508.85	40648.08
509.03	40177.64
509.20	39182.91
509.38	37507.08
509.55	37919.02
509.73	38405.85
509.90	38478.41
510.08	38347.34
510.25	38504.15
510.42	37338.57
510.60	38637.56
510.77	39779.74
510.95	40701.92
511.12	40189.34
511.30	41364.29
511.47	40332.11
511.64	39711.87
511.82	39302.28
511.99	38068.81
512.17	38073.49
512.34	38080.52
512.51	38143.71
512.69	37408.78
512.86	37687.31
513.04	39112.69
513.21	39187.59
513.38	37652.20
513.56	36128.51
513.73	35927.22
513.90	37111.53
514.08	36538.10
514.25	37418.14
514.43	37890.93
514.60	37820.72
514.77	37497.72
514.95	39522.29
515.12	38426.92
515.29	38099.24
515.47	38850.55
515.64	39529.31
515.81	39014.39
515.99	37387.72
516.16	35033.14
516.33	32542.81
516.51	32030.23
516.68	30625.91
516.85	30373.13
517.03	31543.40
517.20	34972.28
517.37	38181.16
517.54	37535.17
517.72	36175.32
517.89	33539.88
518.06	32519.40
518.24	33413.49
518.41	34714.83
518.58	37170.05
518.75	37656.88
518.93	37099.83
519.10	37275.37
519.27	37038.98
519.45	38099.24
519.62	38721.82
519.79	38539.26
519.96	38653.95
520.14	37968.17
520.31	37015.57
520.48	37282.39
520.65	37783.27
520.83	39709.53
521.00	39363.13
521.17	38719.48
521.34	39154.82
521.52	39173.55
521.69	38848.21
521.86	39456.75
522.03	39122.05
522.20	37322.18
522.38	37071.75
522.55	37354.95
522.72	37504.74
522.89	37261.33
523.07	37551.56
523.24	37895.61
523.41	39674.42
523.58	39229.72
523.75	39716.55
523.92	40835.33
524.10	40161.25
524.27	40002.10
524.44	39880.39
524.61	39136.10
524.78	39115.03
524.96	38525.22
525.13	38602.46
525.30	39218.02
525.47	39966.99
525.64	40353.18
525.81	37790.29
525.98	36299.37
526.16	35552.74
526.33	33785.63
526.50	33015.60
526.67	32725.37
526.84	34405.88
527.01	35864.03
527.18	36971.10
527.36	38841.19
527.53	38412.87
527.70	38536.92
527.87	37748.16
528.04	38457.34
528.21	38726.50
528.38	40093.38
528.55	41113.85
528.72	41174.70
528.89	41769.20
529.07	40882.14
529.24	39096.31
529.41	38766.29
529.58	38691.40
529.75	38876.30
529.92	40044.23
530.09	40554.46
530.26	41097.47
530.43	41205.13
530.60	40481.91
530.77	40346.15
530.94	40404.67
531.11	39573.78
531.28	38976.94
531.46	39253.12
531.63	38717.14
531.80	38696.08
531.97	37593.68
532.14	36353.20
532.31	35395.92
532.48	36493.63
532.65	35899.14
532.82	36547.47
532.99	39002.69
533.16	39115.03
533.33	39000.35
533.50	37216.86
533.67	37869.87
533.84	38342.66
534.01	38323.93
534.18	38366.06
534.35	39035.45
534.52	37888.59
534.69	39543.35
534.86	39749.32
535.03	38731.18
535.20	39510.58
535.37	41045.97
535.54	40612.98
535.71	40219.77
535.88	38817.78
536.05	38218.61
536.22	38452.66
536.38	38293.50
536.55	36055.95
536.72	36023.19
536.89	36631.72
537.06	37219.20
537.23	39564.42
537.40	39412.28
537.57	39100.99
537.74	39152.48
537.91	39634.63
538.08	38401.17
538.25	38122.65
538.42	38880.98
538.59	38682.03
538.75	37333.89
538.92	37191.11
539.09	37682.62
539.26	37289.42
539.43	37305.80
539.60	36849.39
539.77	38394.15
539.94	37125.58
540.11	35615.93
540.28	35306.98
540.44	35505.93
540.61	36442.14
540.78	37684.97
540.95	38534.58
541.12	37708.37
541.29	37556.24
541.46	38068.81
541.62	38096.90
541.79	38670.33
541.96	38024.34
542.13	36924.29
542.30	36343.84
542.47	36858.76
542.63	36460.87
542.80	36655.13
542.97	37624.11
543.14	36568.53
543.31	37415.80
543.48	37944.76
543.64	38363.72
543.81	38822.47
543.98	38951.20
544.15	37111.53
544.32	36704.28
544.48	37659.22
544.65	37729.44
544.82	38380.10
544.99	36774.50
545.16	36802.58
545.32	36638.75
545.49	38614.16
545.66	37392.40
545.83	36697.26
546.00	36528.74
546.16	36765.14
546.33	37263.67
546.50	36613.00
546.67	38345.00
546.83	37099.83
547.00	36837.69
547.17	36465.55
547.34	35583.16
547.50	36334.48
547.67	37158.34
547.84	36545.12
548.00	37490.70
548.17	37048.34
548.34	37177.07
548.51	36844.71
548.67	37811.35
548.84	37687.31
549.01	38658.63
549.18	37680.28
549.34	37118.56
549.51	37109.19
549.68	37469.64
549.84	37764.54
550.01	36479.59
550.18	36435.12
550.34	36224.47
550.51	36446.82
550.68	36788.54
550.84	36528.74
551.01	36549.81
551.18	36608.32
551.34	37338.57
551.51	36395.33
551.68	36975.78
551.84	38082.86
552.01	37542.19
552.18	36774.50
552.34	36624.70
552.51	36236.17
552.68	36500.65
552.84	37074.09
553.01	36161.28
553.18	36392.99
553.34	36397.67
553.51	37249.63
553.67	37036.64
553.84	36301.71
554.01	36510.02
554.17	36404.69
554.34	37141.96
554.51	35901.48
554.67	36350.86
554.84	36662.15
555.00	37048.34
555.17	36350.86
555.33	35552.74
555.50	36402.35
555.67	35758.70
555.83	34682.06
556.00	34188.21
556.16	34689.08
556.33	33773.93
556.50	35204.00
556.66	35601.89
556.83	36205.75
556.99	35299.96
557.16	34796.74
557.32	35517.63
557.49	36020.84
557.65	35861.69
557.82	36285.33
557.98	35873.39
558.15	35248.47
558.32	34810.79
558.48	33308.16
558.65	32931.34
558.81	32189.39
558.98	32966.45
559.14	34487.79
559.31	34710.14
559.47	33537.54
559.64	32746.44
559.80	31798.52
559.97	33556.26
560.13	34366.09
560.30	34897.39
560.46	35732.96
560.63	36500.65
560.79	37123.24
560.96	34885.68
561.12	33291.78
561.29	33163.05
561.45	32734.73
561.61	33268.37
561.78	33312.84
561.94	34405.88
562.11	33872.23
562.27	34754.61
562.44	34972.28
562.60	35096.33
562.77	35164.21
562.93	34656.31
563.10	33233.27
563.26	33130.28
563.42	33851.17
563.59	33090.49
563.75	33137.30
563.92	33127.94
564.08	33872.23
564.24	33291.78
564.41	33287.10
564.57	34515.88
564.74	33652.22
564.90	33118.58
565.07	33022.62
565.23	31971.72
565.39	31653.40
565.56	31910.86
565.72	31519.99
565.88	31487.23
566.05	32531.11
566.21	33282.42
566.38	31889.80
566.54	32533.45
566.70	33542.22
566.87	34527.58
567.03	32774.52
567.19	32587.28
567.36	33156.03
567.52	32893.89
567.68	32858.78
567.85	31754.05
568.01	30714.85
568.17	31761.07
568.34	32168.32
568.50	32329.82
568.66	33233.27
568.83	33039.00
568.99	32315.78
569.15	32512.38
569.32	32926.66
569.48	31761.07
569.64	31484.89
569.81	32088.74
569.97	31700.22
570.13	32226.84
570.30	31697.88
570.46	31185.30
570.62	30455.05
570.78	30637.61
570.95	31175.94
571.11	31234.45
571.27	31821.92
571.43	31908.52
571.60	31695.53
571.76	32128.53
571.92	31850.01
572.09	31997.46
572.25	32503.02
572.41	33235.61
572.57	33776.27
572.74	33422.85
572.90	32512.38
573.06	32231.52
573.22	31236.79
573.38	30822.51
573.55	31295.30
573.71	30789.75
573.87	30953.58
574.03	31381.90
574.20	31395.95
574.36	31758.73
574.52	32381.31
574.68	30756.98
574.84	29776.30
575.01	30038.44
575.17	30375.47
575.33	30546.33
575.49	30185.89
575.65	30663.36
575.82	30911.46
575.98	30195.25
576.14	30426.96
576.30	30017.37
576.46	30279.51
576.62	30792.09
576.79	30768.68
576.95	30436.33
577.11	29432.24
577.27	30445.69
577.43	30534.63
577.59	30197.59
577.75	30541.65
577.92	28978.17
578.08	29039.03
578.24	29364.36
578.40	28741.78
578.56	29521.18
578.72	29996.31
578.88	29989.28
579.04	30480.80
579.21	29659.27
579.37	30249.08
579.53	30597.82
579.69	31522.34
579.85	30323.98
580.01	29940.13
580.17	29546.92
580.33	29881.62
580.49	30047.80
580.65	29441.60
580.82	28999.24
580.98	29558.63
581.14	30789.75
581.30	29546.92
581.46	29575.01
581.62	29963.54
581.78	30110.99
581.94	30232.70
582.10	30974.65
582.26	30394.20
582.42	30522.93
582.58	29951.84
582.74	29689.70
582.90	30050.14
583.06	30728.89
583.22	30101.63
583.38	30808.47
583.54	29898.00
583.70	30153.12
583.86	30038.44
584.02	30244.40
584.18	30092.27
584.34	29844.17
584.50	30012.69
584.66	29514.16
584.82	28978.17
584.98	29914.39
585.14	28683.27
585.30	28760.50
585.46	28503.04
585.62	27861.74
585.78	28797.95
585.94	28769.86
586.10	27276.60
586.26	28371.97
586.42	28926.68
586.58	28615.39
586.74	29074.13
586.90	29132.65
587.06	28922.00
587.22	29596.07
587.38	28629.43
587.54	28737.10
587.70	27796.20
587.86	26981.70
588.02	26745.30
588.18	26745.30
588.34	25378.43
588.49	24020.92
588.65	23290.67
588.81	24002.19
588.97	23744.73
589.13	24140.29
589.29	23864.10
589.45	24521.79
589.61	24912.66
589.77	26064.21
589.93	26246.77
590.08	26043.14
590.24	27051.91
590.40	25914.41
590.56	26445.71
590.72	26345.07
590.88	25951.86
591.04	26331.03
591.20	26099.31
591.35	25631.21
591.51	26270.17
591.67	27426.40
591.83	26129.74
591.99	26155.49
592.15	26801.47
592.31	26527.63
592.46	25720.15
592.62	26789.77
592.78	27161.92
592.94	26857.65
593.10	26874.03
593.26	27150.21
593.41	25968.24
593.57	25542.27
593.73	26569.76
593.89	26071.23
594.05	25797.38
594.20	26047.82
594.36	25790.36
594.52	24989.90
594.68	25015.65
594.84	25184.16
594.99	26092.29
595.15	25256.72
595.31	25413.54
595.47	25916.75
595.62	26424.65
595.78	25797.38
595.94	26614.23
596.10	24739.46
596.25	25139.69
596.41	25638.23
596.57	26398.90
596.73	25792.70
596.88	26586.15
597.04	25731.85
597.20	24608.39
597.36	24968.84
597.51	25345.66
597.67	24809.68
597.83	25137.35
597.99	25209.91
598.14	24430.51
598.30	24322.85
598.46	24723.08
598.61	25223.95
598.77	24802.66
598.93	24524.13
599.09	24744.14
599.24	25895.69
599.40	24648.18
599.56	25336.30
599.71	25041.39
599.87	24776.91
600.03	24552.22
600.18	24341.57
600.34	23735.37
600.50	24720.74
600.65	24535.84
600.81	24882.24
600.97	24615.41
601.12	24315.83
601.28	23744.73
601.44	24266.67
601.59	24865.85
601.75	24049.00
601.91	23908.57
602.06	24484.34
602.22	24589.67
602.37	24561.58
602.53	24624.78
602.69	25221.61
602.84	25177.14
603.00	25064.80
603.16	25827.81
603.31	25090.54
603.47	24247.95
603.62	24786.27
603.78	24769.89
603.94	24121.56
604.09	24486.68
604.25	24847.13
604.40	24381.36
604.56	25383.11
604.71	26164.85
604.87	26160.17
605.03	25296.51
605.18	25357.36
605.34	24812.02
605.49	23971.77
605.65	24615.41
605.80	23922.62
605.96	24638.82
606.12	23974.11
606.27	24482.00
606.43	23754.10
606.58	24041.98
606.74	24446.90
606.89	24421.15
607.05	24191.78
607.20	23543.45
607.36	23262.58
607.51	23971.77
607.67	23733.03
607.82	23541.11
607.98	23316.42
608.13	23527.06
608.29	23597.28
608.44	23412.38
608.60	23992.83
608.75	22429.35
608.91	22998.10
609.06	24016.24
609.22	23929.64
609.37	24109.86
609.53	23686.22
609.68	22745.33
609.84	21977.63
609.99	22955.97
610.15	22143.81
610.30	23056.62
610.46	23016.83
610.61	22916.19
610.76	23030.87
610.92	22661.07
611.07	23473.23
611.23	23255.56
611.38	23578.56
611.54	23487.28
611.69	22829.59
611.84	22881.08
612.00	21823.16
612.15	22267.86
612.31	22581.49
612.46	22822.56
612.62	22827.24
612.77	22869.37
612.92	22852.99
613.08	22104.02
613.23	21193.55
613.39	21099.93
613.54	20926.73
613.69	22237.43
613.85	22871.72
614.00	21986.99
614.15	22223.39
614.31	22717.24
614.46	22752.35
614.62	21944.86
614.77	21029.71
614.92	21633.57
615.08	22089.98
615.23	21158.44
615.38	21376.11
615.54	21429.94
615.69	20648.21
615.84	20037.33
616.00	20360.32
616.15	20987.58
616.30	20332.23
616.46	20425.86
616.61	20966.52
616.76	21216.96
616.92	21600.80
617.07	21537.61
617.22	21570.38
617.37	21443.99
617.53	21434.63
617.68	21357.39
617.83	21649.96
617.99	21294.19
618.14	21575.06
618.29	21551.65
618.45	21156.10
618.60	21142.06
618.75	20336.91
618.90	20847.15
619.06	20662.25
619.21	20870.56
619.36	21041.42
619.51	20170.74
619.67	20498.41
619.82	21371.43
619.97	21876.99
620.12	21914.44
620.28	21830.18
620.43	22101.68
620.58	20999.29
620.73	21266.11
620.89	21003.97
621.04	20210.53
621.19	19400.70
621.34	19573.90
621.49	20086.48
621.65	20650.55
621.80	20985.24
621.95	20671.61
622.10	20208.19
622.25	19419.42
622.41	19789.23
622.56	19159.63
622.71	19084.73
622.86	18878.76
623.01	19475.60
623.16	19253.25
623.32	19007.49
623.47	19658.16
623.62	19749.44
623.77	19892.21
623.92	19154.94
624.07	19138.56
624.23	19332.82
624.38	19096.43
624.53	18405.97
624.68	18052.55
624.83	18324.05
624.98	18537.04
625.13	18537.04
625.29	19068.34
625.44	19293.04
625.59	19016.85
625.74	18878.76
625.89	19721.35
626.04	19405.38
626.19	19070.68
626.34	19014.51
626.49	18286.61
626.65	18539.38
626.80	18766.42
626.95	19082.39
627.10	19288.35
627.25	19124.52
627.40	17987.02
627.55	16957.18
627.70	17034.42
627.85	17432.31
628.00	17790.41
628.15	17853.61
628.30	18005.74
628.45	18190.64
628.60	17664.02
628.76	17617.21
628.91	18155.54
629.06	17881.69
629.21	19080.05
629.36	18405.97
629.51	17338.69
629.66	17032.08
629.81	17018.04
629.96	17687.43
630.11	17163.15
630.26	17032.08
630.41	17783.39
630.56	17149.11
630.71	17280.18
630.86	16961.86
631.01	17275.49
631.16	17617.21
631.31	16936.12
631.46	17280.18
631.61	17214.64
631.76	17303.58
631.91	16978.25
632.06	17025.06
632.21	17617.21
632.36	16739.51
632.51	16716.11
632.66	17394.86
632.81	17303.58
632.96	17207.62
633.10	17172.51
633.25	17343.37
633.40	16915.05
633.55	16189.49
633.70	16814.41
633.85	16828.45
634.00	17156.13
634.15	17139.74
634.30	16510.14
634.45	16568.65
634.60	16732.49
634.75	16493.76
634.90	17022.72
635.05	17404.22
635.19	16905.69
635.34	17153.79
635.49	16901.01
635.64	16582.70
635.79	16798.02
635.94	17514.23
636.09	18263.20
636.24	17521.25
636.39	17334.01
636.53	17476.78
636.68	17097.61
636.83	17212.30
636.98	17261.45
637.13	17301.24
637.28	17600.83
637.43	18029.15
637.57	18012.76
637.72	17102.29
637.87	17034.42
638.02	16273.74
638.17	16786.32
638.32	17500.19
638.46	17205.28
638.61	16475.03
638.76	17270.81
638.91	16924.41
639.06	16905.69
639.20	16589.72
639.35	16376.73
639.50	15990.54
639.65	16030.33
639.80	16152.04
639.94	16030.33
640.09	16240.98
640.24	15606.69
640.39	15534.14
640.54	15281.36
640.68	15789.25
640.83	15470.94
640.98	16292.47
641.13	16358.00
641.27	16458.65
641.42	15714.36
641.57	16006.92
641.72	15805.64
641.86	15962.45
642.01	16294.81
642.16	16266.72
642.31	15662.86
642.45	15791.59
642.60	15826.70
642.75	15054.33
642.90	15580.95
643.04	15520.09
643.19	14979.43
643.34	14773.46
643.48	15236.89
643.63	14867.08
643.78	14867.08
643.93	14941.98
644.07	14995.81
644.22	15452.22
644.37	15089.43
644.51	15110.50
644.66	14754.74
644.81	15585.63
644.95	15360.94
645.10	15187.74
645.25	14855.38
645.39	14516.00
645.54	14801.55
645.69	14202.37
645.83	14368.55
645.98	14628.35
646.13	14822.61
646.27	14633.03
646.42	14728.99
646.57	14733.67
646.71	14616.65
646.86	14504.30
647.00	14441.11
647.15	14356.85
647.30	14260.88
647.44	13951.93
647.59	13984.70
647.74	14104.07
647.88	13991.72
648.03	14164.92
648.17	13680.43
648.32	13977.68
648.47	14487.92
648.61	14253.86
648.76	14754.74
648.90	14036.19
649.05	13511.91
649.20	13486.17
649.34	13032.10
649.49	13013.38
649.63	13205.30
649.78	13296.58
649.92	13575.11
650.07	14281.95
650.21	13851.29
650.36	13970.66
650.51	14104.07
650.65	14707.93
650.80	14757.08
650.94	14083.00
651.09	13729.58
651.23	13542.34
651.38	13399.57
651.52	13238.07
651.67	13682.77
651.81	14239.82
651.96	14478.55
652.10	13987.04
652.25	13973.00
652.39	14150.88
652.54	13727.24
652.68	14291.31
652.83	13778.73
652.97	13572.77
653.12	13144.45
653.26	13327.01
653.41	13139.77
653.55	13626.60
653.70	14160.24
653.84	13568.09
653.99	14288.97
654.13	13434.68
654.27	13366.80
654.42	13357.44
654.56	13579.79
654.71	13158.49
654.85	12716.13
655.00	12744.22
655.14	12458.67
655.29	12161.42
655.43	12365.05
655.57	11662.89
655.72	10864.77
655.86	10289.00
656.01	10076.01
656.15	10478.58
656.30	11091.80
656.44	11061.37
656.58	11407.77
656.73	11768.21
656.87	12163.76
657.01	12601.44
657.16	12175.47
657.30	12262.07
657.45	12463.35
657.59	12149.72
657.73	12301.86
657.88	12287.81
658.02	12800.39
658.16	12587.40
658.31	12589.74
658.45	12774.64
658.60	12683.36
658.74	13628.94
658.88	13158.49
659.03	12629.53
659.17	12842.52
659.31	12439.95
659.46	12088.87
659.60	12596.76
659.74	12833.16
659.89	12622.51
660.03	12545.27
660.17	12339.30
660.32	12358.03
660.46	12484.42
660.60	12152.06
660.74	12191.85
660.89	12753.58
661.03	12704.43
661.17	13085.94
661.32	13249.77
661.46	12844.86
661.60	12978.27
661.74	12805.07
661.89	12994.65
662.03	12779.32
662.17	12044.40
662.31	11939.07
662.46	12287.81
662.60	11857.15
662.74	11487.35
662.88	11440.54
663.03	11756.51
663.17	11985.88
663.31	11300.11
663.45	11866.52
663.60	11913.33
663.74	11506.07
663.88	11934.39
664.02	11613.74
664.17	12004.61
664.31	11410.11
664.45	11084.78
664.59	11817.36
664.73	12053.76
664.88	12266.75
665.02	12388.46
665.16	12442.29
665.30	12662.30
665.44	12791.03
665.59	12109.93
665.73	11777.58
665.87	11667.57
666.01	11555.22
666.15	11435.86
666.29	11705.02
666.44	11709.70
666.58	11527.14
666.72	11599.70
666.86	11922.69
667.00	11709.70
667.14	11185.42
667.28	11356.28
667.43	11360.96
667.57	11887.58
667.71	11793.96
667.85	11623.10
667.99	12081.85
668.13	11655.87
668.27	11442.88
668.41	11332.87
668.56	11653.53
668.70	11314.15
668.84	11667.57
668.98	11826.73
669.12	11204.14
669.26	11009.88
669.40	10600.29
669.54	10806.25
669.68	10544.11
669.82	10640.08
669.96	10974.77
670.10	10862.43
670.25	10920.94
670.39	10466.88
670.53	10473.90
670.67	10719.65
670.81	10401.34
670.95	10228.14
671.09	10017.49
671.23	10516.03
671.37	10204.74
671.51	10040.90
671.65	10033.88
671.79	10090.05
671.93	10796.89
672.07	10977.11
672.21	9942.60
672.35	10193.03
672.49	10181.33
672.63	10150.90
672.77	10181.33
672.91	10050.26
673.05	10251.55
673.19	9404.27
673.33	10113.45
673.47	10684.55
673.61	10136.86
673.75	9806.84
673.89	9769.40
674.03	9565.77
674.17	9881.74
674.31	9722.59
674.45	9750.67
674.59	10108.77
674.73	9895.78
674.87	9839.61
675.01	9294.27
675.15	9231.07
675.29	9366.82
675.43	9172.56
675.56	8879.99
675.70	9418.32
675.84	9643.01
675.98	9043.83
676.12	8926.80
676.26	8858.93
676.40	8830.84
676.54	9245.12
676.68	8908.08
676.82	8959.57
676.96	8725.52
677.10	8725.52
677.23	8990.00
677.37	8884.67
677.51	8835.52
677.65	8667.00
677.79	8341.67
677.93	8243.37
678.07	8547.64
678.21	8835.52
678.34	9284.91
678.48	9210.01
678.62	8500.83
678.76	8896.38
678.90	8512.53
679.04	8578.06
679.18	9027.45
679.31	8788.71
679.45	8463.38
679.59	8674.03
679.73	8585.08
679.87	8765.31
680.00	8538.27
680.14	8482.10
680.28	8678.71
680.42	8439.97
680.56	7737.81
680.70	7981.23
680.83	8107.62
680.97	8510.19
681.11	8402.52
681.25	8692.75
681.39	8325.29
681.52	8292.52
681.66	7777.60
681.80	7770.58
681.94	7775.26
682.07	8294.86
682.21	7756.54
682.35	8278.47
682.49	7742.49
682.62	7735.47
682.76	7438.22
682.90	7178.42
683.04	7162.04
683.17	7152.68
683.31	7393.75
683.45	7602.06
683.59	7353.96
683.72	7197.15
683.86	7101.19
684.00	6754.79
684.13	6710.32
684.27	7009.90
684.41	6970.12
684.55	7185.44
684.68	7267.36
684.82	7197.15
684.96	7255.66
685.09	7087.14
685.23	7199.49
685.37	6918.62
685.50	6988.84
685.64	7082.46
685.78	6986.50
685.91	7190.13
686.05	7330.56
686.19	6754.79
686.32	6303.06
686.46	5455.79
686.60	4849.59
686.73	4299.56
686.87	4016.36
687.01	4198.92
687.14	4388.50
687.28	4901.08
687.42	5247.48
687.55	5252.16
687.69	5533.03
687.82	5533.03
687.96	5544.73
688.10	5579.84
688.23	5937.94
688.37	5521.32
688.50	5296.63
688.64	5296.63
688.78	5254.50
688.91	5305.99
689.05	5383.23
689.18	5153.86
689.32	5291.95
689.46	5102.37
689.59	5029.81
689.73	5397.28
689.86	5397.28
690.00	4959.60
690.13	5226.42
690.27	5249.82
690.41	5146.84
690.54	5121.09
690.68	5214.71
690.81	5504.94
690.95	5617.29
691.08	5731.97
691.22	5764.74
691.35	5565.79
691.49	5380.89
691.62	5399.62
691.76	5514.30
691.89	5423.02
692.03	5177.26
692.16	5268.55
692.30	5078.96
692.43	5205.35
692.57	5097.69
692.70	5256.84
692.84	5165.56
692.97	5240.46
693.11	4980.66
693.24	4716.18
693.38	4983.00
693.51	5060.24
693.65	4983.00
693.78	4491.49
693.92	4613.20
694.05	4770.01
694.19	4493.83
694.32	4411.91
694.45	4582.77
694.59	4713.84
694.72	4629.58
694.86	4662.35
694.99	4898.74
695.13	4650.64
695.26	4929.17
695.39	4725.54
695.53	4561.70
695.66	4858.95
695.80	4702.14
695.93	4697.46
696.07	4940.87
696.20	5359.83
696.33	5153.86
696.47	5144.50
696.60	4461.06
696.73	4606.17
696.87	4882.36
697.00	4660.01
697.14	4596.81
697.27	4779.37
697.40	4702.14
697.54	4643.62
697.67	4482.13
697.80	4629.58
697.94	4709.16
698.07	4620.22
698.21	4278.50
698.34	4189.56
698.47	4201.26
698.61	4107.64
698.74	4184.88
698.87	3990.61
699.01	4397.87
699.14	4322.97
699.27	4299.56
699.40	4489.15
699.54	4587.45
699.67	4320.63
699.80	4173.18
699.94	4065.51
700.07	4084.23
700.20	3920.40
700.34	4035.08
700.47	3908.69
700.60	3634.85
700.73	3756.56
700.87	3709.75
701.00	3779.97
701.13	3686.34
701.26	3545.91
701.40	3630.17
701.53	3691.02
701.66	3775.28
701.79	3641.87
701.93	3555.27
702.06	3480.38
702.19	3578.68
702.32	3494.42
702.46	3541.23
702.59	3740.18
702.72	3765.92
702.85	3786.99
702.99	3878.27
703.12	3669.96
703.25	3669.96
703.38	3503.78
703.51	3501.44
703.65	3496.76
703.78	3606.77
703.91	3562.30
704.04	3630.17
704.17	3508.46
704.31	3529.53
704.44	3494.42
704.57	3674.64
704.70	3534.21
704.83	3318.88
704.96	3447.61
705.10	3447.61
705.23	3316.54
>>>>>End Processed Spectral Data<<<<<
