SpectraSuite Data File
++++++++++++++++++++++++++++++++++++
Date: Mon Oct 07 14:54:59 GMT-05:00 2013
User: price-jones
Dark Spectrum Present: No
Reference Spectrum Present: No
Number of Sampled Component Spectra: 1
Spectrometers: USB2+H05261
Integration Time (usec): 10000 (USB2+H05261)
Spectra Averaged: 1 (USB2+H05261)
Boxcar Smoothing: 0 (USB2+H05261)
Correct for Electrical Dark: No (USB2+H05261)
Strobe/Lamp Enabled: No (USB2+H05261)
Correct for Detector Non-linearity: No (USB2+H05261)
Correct for Stray Light: No (USB2+H05261)
Number of Pixels in Processed Spectrum: 2048
>>>>>Begin Processed Spectral Data<<<<<
365.73	0.00
365.92	0.00
366.12	0.00
366.32	0.00
366.52	0.00
366.72	0.00
366.91	0.00
367.11	0.00
367.31	0.00
367.51	0.00
367.70	0.00
367.90	0.00
368.10	0.00
368.30	0.00
368.49	0.00
368.69	0.00
368.89	0.00
369.09	0.00
369.28	0.00
369.48	0.00
369.68	0.00
369.87	0.00
370.07	0.00
370.27	0.00
370.47	56.17
370.66	1355.17
370.86	1589.22
371.06	1739.02
371.25	1650.08
371.45	1558.80
371.65	1385.60
371.84	1263.89
372.04	1451.13
372.24	1629.01
372.44	1806.89
372.63	1596.25
372.83	1434.75
373.03	1287.29
373.22	1238.14
373.42	1378.58
373.62	1542.41
373.81	1629.01
374.01	1724.97
374.21	1451.13
374.40	1357.51
374.60	1465.18
374.79	1654.76
374.99	1923.92
375.19	1888.81
375.38	1914.56
375.58	1790.51
375.78	1844.34
375.97	1827.96
376.17	2073.71
376.37	1954.35
376.56	2090.10
376.76	2174.36
376.95	2415.43
377.15	2558.21
377.35	2544.16
377.54	2644.81
377.74	2759.49
377.93	2693.96
378.13	2642.46
378.33	2476.29
378.52	2242.23
378.72	2221.17
378.91	2183.72
379.11	2129.89
379.31	1909.88
379.50	2104.14
379.70	2324.15
379.89	2480.97
380.09	2612.04
380.28	2684.59
380.48	2588.63
380.68	2548.84
380.87	2602.68
381.07	2279.68
381.26	2183.72
381.46	1935.62
381.65	1870.09
381.85	1874.77
382.04	1788.17
382.24	1706.25
382.43	1533.05
382.63	1696.89
382.83	1533.05
383.02	1647.74
383.22	1565.82
383.41	1708.59
383.61	1860.73
383.80	2153.29
384.00	2462.24
384.19	2654.17
384.39	2609.70
384.58	2630.76
384.78	2621.40
384.97	2525.44
385.17	2387.35
385.36	2377.98
385.56	2249.25
385.75	2457.56
385.95	2499.69
386.14	2757.15
386.34	2726.72
386.53	2483.31
386.72	2450.54
386.92	2548.84
387.11	2761.83
387.31	2855.45
387.50	2658.85
387.70	2686.94
387.89	2621.40
388.09	2619.06
388.28	2691.62
388.48	2745.45
388.67	3009.93
388.86	3229.94
389.06	3543.57
389.25	3506.12
389.45	3606.77
389.64	3548.25
389.84	3574.00
390.03	3531.87
390.22	3599.74
390.42	3735.50
390.61	3939.12
390.81	4159.13
391.00	4231.69
391.19	4222.33
391.39	4119.34
391.58	3728.47
391.78	3639.53
391.97	3538.89
392.16	3173.77
392.36	2775.88
392.55	2181.38
392.75	1811.57
392.94	1526.03
393.13	1551.78
393.33	1806.89
393.52	2385.01
393.71	2991.20
393.91	3178.45
394.10	3630.17
394.29	4067.85
394.49	4219.99
394.68	4559.36
394.88	4566.39
395.07	4664.69
395.26	4674.05
395.46	4416.59
395.65	4039.76
395.84	3428.88
396.04	2827.37
396.23	2370.96
396.42	2026.90
396.62	2097.12
396.81	2502.03
397.00	3337.60
397.19	4112.32
397.39	4753.63
397.58	5261.52
397.77	5418.34
397.97	5776.44
398.16	5961.34
398.35	5975.39
398.55	6258.59
398.74	6289.02
398.93	6478.60
399.12	6417.75
399.32	6319.45
399.51	6410.73
399.70	6656.48
399.90	6623.72
400.09	6715.00
400.28	6778.19
400.47	6672.87
400.67	7026.29
400.86	7082.46
401.05	7201.83
401.24	7215.87
401.44	7545.89
401.63	7262.68
401.82	7389.07
402.01	7311.83
402.21	7375.03
402.40	7344.60
402.59	7052.03
402.78	6869.47
402.97	6771.17
403.17	7262.68
403.36	7391.41
403.55	7611.42
403.74	7754.19
403.93	7171.40
404.13	6740.74
404.32	6925.65
404.51	7304.81
404.70	7674.62
404.89	7571.63
405.09	7426.52
405.28	7222.89
405.47	7325.88
405.66	7293.11
405.85	7091.82
406.05	6937.35
406.24	7211.19
406.43	7332.90
406.62	7658.23
406.81	7709.72
407.00	7267.36
407.20	7138.63
407.39	7269.70
407.58	7749.51
407.77	7878.24
407.96	8365.07
408.15	8294.86
408.34	8283.16
408.54	8580.40
408.73	8512.53
408.92	8716.16
409.11	8224.64
409.30	7758.88
409.49	7232.26
409.68	6925.65
409.87	7005.22
410.07	7496.74
410.26	8056.12
410.45	8297.20
410.64	8517.21
410.83	8851.91
411.02	8938.51
411.21	9233.41
411.40	9011.06
411.59	9224.05
411.78	9224.05
411.98	9287.25
412.17	9266.18
412.36	9006.38
412.55	9146.81
412.74	8695.09
412.93	8748.92
413.12	9013.40
413.31	9717.90
413.50	9699.18
413.69	9790.46
413.88	9266.18
414.07	9067.24
414.26	9369.16
414.45	9668.75
414.64	9511.94
414.83	9757.69
415.02	9336.40
415.22	9479.17
415.41	9727.27
415.60	10164.95
415.79	10789.87
415.98	10864.77
416.17	10778.17
416.36	10406.02
416.55	10036.22
416.74	9816.21
416.93	9397.25
417.12	9664.07
417.31	9645.35
417.50	10001.11
417.69	10436.45
417.88	10319.42
418.07	10387.30
418.26	9963.66
418.45	10200.05
418.64	10766.46
418.83	10977.11
419.02	10506.66
419.21	10401.34
419.39	9872.38
419.58	9841.95
419.77	9848.97
419.96	10169.63
420.15	10855.40
420.34	11016.90
420.53	11265.00
420.72	11190.10
420.91	11260.32
421.10	11084.78
421.29	11059.03
421.48	10960.73
421.67	11316.49
421.86	10705.61
422.05	10024.51
422.24	9181.92
422.43	9584.49
422.61	10656.46
422.80	11234.57
422.99	10780.51
423.18	10352.19
423.37	10335.81
423.56	10438.79
423.75	10764.12
423.94	10904.56
424.13	10326.44
424.32	10064.30
424.50	10228.14
424.69	10560.50
424.88	10558.16
425.07	10258.57
425.26	10335.81
425.45	9825.57
425.64	9949.62
425.83	9930.89
426.01	10686.89
426.20	10864.77
426.39	10803.91
426.58	9699.18
426.77	9224.05
426.96	8915.10
427.15	9579.81
427.33	10279.63
427.52	10286.65
427.71	10373.25
427.90	10230.48
428.09	9930.89
428.28	9825.57
428.46	9603.22
428.65	9736.63
428.84	9886.42
429.03	9856.00
429.22	9467.47
429.40	8706.79
429.59	7742.49
429.78	7190.13
429.97	7239.28
430.16	7194.81
430.34	7110.55
430.53	7330.56
430.72	7765.90
430.91	8882.33
431.10	10518.37
431.28	11688.64
431.47	12547.61
431.66	12561.66
431.85	11094.14
432.03	10253.89
432.22	10312.40
432.41	11037.97
432.60	11592.67
432.79	12187.17
432.97	12266.75
433.16	12327.60
433.35	10714.97
433.54	9430.02
433.72	9338.74
433.91	9593.86
434.10	10963.07
434.28	11681.61
434.47	12025.67
434.66	11777.58
434.85	12037.38
435.03	11808.00
435.22	11838.43
435.41	12486.76
435.59	12674.00
435.78	12636.55
435.97	13074.23
436.16	13018.06
436.34	12793.37
436.53	12711.45
436.72	12795.71
436.90	12044.40
437.09	11967.16
437.28	12070.14
437.46	12390.80
437.65	12177.81
437.84	10888.17
438.02	10583.90
438.21	10733.70
438.40	11094.14
438.58	11974.18
438.77	12336.96
438.96	12168.45
439.14	13015.72
439.33	13268.50
439.52	13259.13
439.70	13032.10
439.89	12250.36
440.08	12266.75
440.26	12507.82
440.45	13118.70
440.63	14050.24
440.82	14300.67
441.01	14214.07
441.19	13991.72
441.38	14352.16
441.57	14967.73
441.75	14675.16
441.94	15241.57
442.12	15030.92
442.31	15279.02
442.50	15304.76
442.68	14597.92
442.87	14518.34
443.05	14663.46
443.24	15096.46
443.43	15318.81
443.61	15410.09
443.80	15421.79
443.98	14499.62
444.17	14890.49
444.35	15847.77
444.54	15915.64
444.73	15896.92
444.91	14799.21
445.10	14108.75
445.28	13413.61
445.47	13591.49
445.65	13788.10
445.84	14565.15
446.02	14810.91
446.21	15119.86
446.39	14956.02
446.58	15321.15
446.77	15370.30
446.95	15372.64
447.14	15843.09
447.32	16283.11
447.51	15580.95
447.69	15040.28
447.88	15459.24
448.06	15744.78
448.25	15552.86
448.43	15573.92
448.62	15410.09
448.80	15161.99
448.99	15267.31
449.17	15529.45
449.36	15604.35
449.54	16065.44
449.73	16409.50
449.91	16477.37
450.10	17137.40
450.28	17722.54
450.46	17530.61
450.65	17319.96
450.83	17172.51
451.02	16446.94
451.20	16760.58
451.39	17057.82
451.57	16617.80
451.76	16484.39
451.94	16390.77
452.13	16208.21
452.31	14960.70
452.49	14228.12
452.68	14827.29
452.86	14736.01
453.05	15194.76
453.23	15784.57
453.42	16404.81
453.60	15829.04
453.78	16460.99
453.97	16205.87
454.15	15953.09
454.34	15644.14
454.52	15754.15
454.70	15637.12
454.89	15829.04
455.07	15810.32
455.26	16325.24
455.44	16795.68
455.62	16886.97
455.81	17123.36
455.99	17111.66
456.17	17067.19
456.36	17266.13
456.54	17493.16
456.73	17214.64
456.91	17514.23
457.09	17762.33
457.28	18209.37
457.46	17474.44
457.64	16631.85
457.83	16589.72
458.01	16599.08
458.19	16830.79
458.38	16959.52
458.56	17195.92
458.74	17341.03
458.93	16905.69
459.11	16760.58
459.29	16898.67
459.48	16629.51
459.66	16648.23
459.84	17106.98
460.03	17474.44
460.21	17570.40
460.39	18059.57
460.57	17748.28
460.76	17788.07
460.94	18010.42
461.12	17336.35
461.31	17661.68
461.49	17671.04
461.67	17699.13
461.85	18483.21
462.04	18487.89
462.22	18398.95
462.40	18331.08
462.59	18260.86
462.77	18075.96
462.95	18253.84
463.13	17687.43
463.32	17542.32
463.50	17696.79
463.68	17834.88
463.86	17841.90
464.05	17570.40
464.23	17380.82
464.41	17256.77
464.59	16666.95
464.78	17874.67
464.96	18017.44
465.14	17696.79
465.32	18249.16
465.50	18438.74
465.69	18616.62
465.87	18202.35
466.05	17577.42
466.23	16503.12
466.41	16725.47
466.60	17259.11
466.78	17132.72
466.96	17593.81
467.14	17551.68
467.32	17554.02
467.51	17689.77
467.69	17064.85
467.87	17334.01
468.05	17720.20
468.23	17535.29
468.41	17638.28
468.60	17568.06
468.78	17827.86
468.96	17383.16
469.14	17984.68
469.32	18394.27
469.50	17088.25
469.69	17132.72
469.87	17022.72
470.05	17256.77
470.23	17116.34
470.41	17586.79
470.59	17359.75
470.77	17247.41
470.95	18026.81
471.14	18354.48
471.32	17972.97
471.50	19042.60
471.68	19262.61
471.86	19164.31
472.04	19524.75
472.22	19335.17
472.40	18373.21
472.58	18054.89
472.77	18068.94
472.95	18043.19
473.13	19145.58
473.31	18429.38
473.49	18862.38
473.67	19122.18
473.85	19255.59
474.03	19758.80
474.21	19735.40
474.39	20135.63
474.57	20290.10
474.75	20301.81
474.93	19559.86
475.12	19438.15
475.30	19140.90
475.48	19019.19
475.66	19271.97
475.84	19248.57
476.02	19246.23
476.20	18607.26
476.38	19459.21
476.56	20042.01
476.74	20374.36
476.92	20409.47
477.10	20510.11
477.28	21998.70
477.46	21291.85
477.64	21226.32
477.82	21493.14
478.00	21809.11
478.18	21202.91
478.36	20922.05
478.54	21729.53
478.72	21577.40
478.90	22537.02
479.08	22869.37
479.26	22361.48
479.44	22487.87
479.62	22389.56
479.80	22410.63
479.98	22600.21
480.16	23285.99
480.34	22733.62
480.52	23506.00
480.70	23452.17
480.88	23197.05
481.06	23733.03
481.24	23417.06
481.41	23922.62
481.59	24545.20
481.77	24233.91
481.95	24393.06
482.13	24208.16
482.31	24432.85
482.49	25123.31
482.67	25177.14
482.85	25120.97
483.03	25731.85
483.21	25729.51
483.39	25404.17
483.57	24580.31
483.74	23903.89
483.92	24589.67
484.10	24739.46
484.28	25387.79
484.46	25645.25
484.64	25544.61
484.82	24994.58
485.00	24879.89
485.18	24130.92
485.35	22972.36
485.53	20650.55
485.71	19384.32
485.89	19812.63
486.07	20774.60
486.25	22661.07
486.43	24116.88
486.61	24004.53
486.78	24449.24
486.96	25219.27
487.14	25937.82
487.32	25895.69
487.50	26822.54
487.68	27070.64
487.85	28034.94
488.03	28259.63
488.21	27800.88
488.39	26569.76
488.57	26136.76
488.75	26483.16
488.92	27885.14
489.10	29673.31
489.28	29883.96
489.46	30389.52
489.64	30270.15
489.81	30747.62
489.99	30319.30
490.17	30679.74
490.35	30733.57
490.53	29551.60
490.70	29373.72
490.88	29364.36
491.06	30768.68
491.24	30543.99
491.41	28680.92
491.59	27688.54
491.77	27524.70
491.95	28842.42
492.13	30370.79
492.30	30665.70
492.48	32053.64
492.66	32231.52
492.84	31634.68
493.01	31742.35
493.19	31854.69
493.37	31435.74
493.54	31379.56
493.72	32809.63
493.90	32769.84
494.08	32835.38
494.25	33802.02
494.43	33638.18
494.61	34511.20
494.79	34382.47
494.96	33851.17
495.14	32388.33
495.32	32428.12
495.49	32669.20
495.67	33474.34
495.85	35068.25
496.02	35269.53
496.20	34721.85
496.38	34319.28
496.55	34026.71
496.73	34944.20
496.91	35091.65
497.09	36369.58
497.26	35370.18
497.44	34862.28
497.62	33958.83
497.79	33659.24
497.97	32315.78
498.14	32898.57
498.32	34569.71
498.50	35325.71
498.67	35353.79
498.85	35658.06
499.03	35934.24
499.20	35875.73
499.38	36266.60
499.56	35901.48
499.73	35159.53
499.91	33605.41
500.08	33165.39
500.26	32472.59
500.44	33472.00
500.61	34260.76
500.79	34316.93
500.97	33319.87
501.14	33439.23
501.32	33357.32
501.49	33425.19
501.67	33937.77
501.84	34312.25
502.02	34529.92
502.20	35126.76
502.37	35335.07
502.55	35110.38
502.72	35817.22
502.90	36201.07
503.07	35243.79
503.25	34415.24
503.43	33549.24
503.60	33324.55
503.78	32996.87
503.95	33598.39
504.13	35950.63
504.30	36554.49
504.48	35644.02
504.65	35475.50
504.83	35407.62
505.01	36273.62
505.18	36217.45
505.36	36442.14
505.53	37361.97
505.71	38487.77
505.88	38848.21
506.06	37600.71
506.23	37614.75
506.41	36800.24
506.58	36711.30
506.76	36517.04
506.93	35908.50
507.11	35751.68
507.28	36177.66
507.46	35587.85
507.63	35119.74
507.81	34576.73
507.98	35065.91
508.16	36123.83
508.33	37296.44
508.50	37144.30
508.68	38129.67
508.85	38866.94
509.03	38169.46
509.20	37303.46
509.38	35990.42
509.55	35896.80
509.73	36676.19
509.90	36512.36
510.08	36339.16
510.25	36879.82
510.42	36189.36
510.60	37104.51
510.77	38286.48
510.95	38438.62
511.12	38209.25
511.30	39215.68
511.47	38267.76
511.64	38234.99
511.82	37811.35
511.99	36589.59
512.17	36613.00
512.34	36556.83
512.51	36505.34
512.69	35660.40
512.86	35826.58
513.04	37528.15
513.21	37090.47
513.38	35899.14
513.56	34389.49
513.73	33930.75
513.90	35009.73
514.08	35192.30
514.25	35920.20
514.43	36030.21
514.60	36222.13
514.77	35796.15
514.95	37399.42
515.12	36243.20
515.29	35648.70
515.47	36833.01
515.64	37642.84
515.81	37296.44
515.99	35983.40
516.16	33408.81
516.33	30916.14
516.51	30705.49
516.68	29448.62
516.85	29097.54
517.03	30192.91
517.20	33755.21
517.37	36025.53
517.54	36481.93
517.72	34576.73
517.89	31901.50
518.06	30749.96
518.24	31798.52
518.41	33331.57
518.58	35248.47
518.75	35515.29
518.93	35154.85
519.10	35573.80
519.27	35311.66
519.45	36212.77
519.62	36491.29
519.79	36760.45
519.96	37102.17
520.14	36456.18
520.31	34920.79
520.48	35012.07
520.65	35667.42
520.83	37619.43
521.00	37551.56
521.17	36725.35
521.34	37055.36
521.52	37132.60
521.69	37158.34
521.86	37668.58
522.03	36947.70
522.20	35718.92
522.38	35119.74
522.55	35845.30
522.72	35959.99
522.89	35583.16
523.07	35562.10
523.24	36149.57
523.41	37427.51
523.58	37312.82
523.75	38153.07
523.92	38534.58
524.10	38347.34
524.27	38295.85
524.44	38281.80
524.61	37979.87
524.78	37015.57
524.96	36624.70
525.13	36453.84
525.30	37420.48
525.47	38010.30
525.64	38188.18
525.81	36858.76
525.98	34550.99
526.16	34129.69
526.33	32182.37
526.50	31356.16
526.67	31182.96
526.84	32151.94
527.01	34148.42
527.18	35449.75
527.36	36727.69
527.53	36903.23
527.70	36730.03
527.87	35590.19
528.04	36854.08
528.21	36755.77
528.38	38403.51
528.55	39498.88
528.72	39400.58
528.89	39386.54
529.07	38628.20
529.24	36542.78
529.41	36510.02
529.58	36467.89
529.75	37022.59
529.92	37970.51
530.09	37872.21
530.26	38162.43
530.43	39014.39
530.60	38518.20
530.77	38843.53
530.94	38780.34
531.11	37429.85
531.28	37216.86
531.46	37013.23
531.63	36507.68
531.80	36783.86
531.97	35569.12
532.14	34675.04
532.31	33596.05
532.48	34391.83
532.65	33848.83
532.82	35246.13
532.99	37139.62
533.16	37387.72
533.33	37069.40
533.50	35470.82
533.67	36032.55
533.84	36591.94
534.01	36236.17
534.18	36615.34
534.35	36821.31
534.52	36477.25
534.69	37493.04
534.86	37656.88
535.03	36779.18
535.20	37839.44
535.37	39243.76
535.54	38808.42
535.71	38780.34
535.88	38057.11
536.05	36313.41
536.22	36613.00
536.38	36332.14
536.55	34426.94
536.72	34347.36
536.89	35054.20
537.06	35714.23
537.23	37591.34
537.40	37490.70
537.57	37471.98
537.74	37031.96
537.91	37343.25
538.08	36123.83
538.25	35990.42
538.42	37261.33
538.59	36816.63
538.75	35639.34
538.92	34911.43
539.09	35899.14
539.26	36226.81
539.43	35138.46
539.60	35077.61
539.77	36142.55
539.94	34866.96
540.11	33677.97
540.28	33460.30
540.44	33553.92
540.61	34483.11
540.78	35585.50
540.95	36645.77
541.12	36112.13
541.29	35969.35
541.46	36334.48
541.62	36610.66
541.79	37177.07
541.96	35957.65
542.13	34771.00
542.30	34658.65
542.47	34780.36
542.63	35122.08
542.80	34962.92
542.97	35789.13
543.14	34923.13
543.31	35480.18
543.48	35454.44
543.64	36423.42
543.81	37074.09
543.98	37015.57
544.15	35056.54
544.32	34897.39
544.48	35531.67
544.65	36608.32
544.82	37277.71
544.99	35136.12
545.16	35075.27
545.32	35283.58
545.49	37027.28
545.66	36004.46
545.83	34672.70
546.00	34785.04
546.16	35491.88
546.33	35475.50
546.50	34759.30
546.67	36521.72
546.83	35271.87
547.00	35136.12
547.17	34305.23
547.34	33668.61
547.50	34490.13
547.67	35061.22
547.84	35283.58
548.00	35831.26
548.17	35632.32
548.34	35044.84
548.51	35173.57
548.67	35807.86
548.84	36119.15
549.01	36341.50
549.18	35407.62
549.34	35019.10
549.51	35192.30
549.68	35934.24
549.84	35409.96
550.01	34827.17
550.18	35321.02
550.34	34508.86
550.51	34417.58
550.68	34646.95
550.84	34803.77
551.01	34515.88
551.18	34972.28
551.34	35505.93
551.51	34478.43
551.68	35187.61
551.84	36486.61
552.01	35620.61
552.18	34756.96
552.34	34375.45
552.51	34843.56
552.68	35218.04
552.84	35337.41
553.01	34595.46
553.18	34340.34
553.34	34387.15
553.51	34923.13
553.67	34717.17
553.84	34127.35
554.01	35019.10
554.17	34401.19
554.34	35267.19
554.51	34087.56
554.67	34150.76
554.84	35070.59
555.00	34820.15
555.17	34951.22
555.33	34230.33
555.50	34806.11
555.67	33553.92
555.83	33043.68
556.00	32325.14
556.16	33254.33
556.33	32804.95
556.50	33830.10
556.66	34244.38
556.83	33736.48
556.99	33376.04
557.16	32903.25
557.32	33905.00
557.49	34209.27
557.65	34113.31
557.82	34532.26
557.98	33720.10
558.15	33876.91
558.32	32863.46
558.48	31608.93
558.65	31489.57
558.81	31007.42
558.98	31026.14
559.14	32842.40
559.31	33399.44
559.47	32027.89
559.64	31110.40
559.80	30319.30
559.97	31480.21
560.13	32657.49
560.30	32797.93
560.46	34185.86
560.63	34679.72
560.79	34948.88
560.96	33369.02
561.12	31978.74
561.29	31761.07
561.45	30892.73
561.61	31307.01
561.78	31920.23
561.94	32343.86
562.11	32292.37
562.27	32807.29
562.44	33329.23
562.60	33139.65
562.77	33481.36
562.93	32945.38
563.10	31697.88
563.26	32053.64
563.42	32341.52
563.59	31620.64
563.75	31428.71
563.92	31644.04
564.08	32439.82
564.24	31543.40
564.41	31697.88
564.57	32818.99
564.74	31800.86
564.90	31108.06
565.07	31119.76
565.23	30183.55
565.39	30080.56
565.56	30710.17
565.72	30333.34
565.88	29748.21
566.05	30689.10
566.21	31257.85
566.38	30335.68
566.54	31372.54
566.70	31571.49
566.87	31880.44
567.03	31012.10
567.19	31379.56
567.36	31669.79
567.52	30923.16
567.68	31068.27
567.85	30747.62
568.01	29244.99
568.17	29989.28
568.34	30866.98
568.50	30321.64
568.66	31503.61
568.83	30754.64
568.99	30401.22
569.15	30600.16
569.32	31110.40
569.48	30068.86
569.64	29406.49
569.81	30305.26
569.97	29848.85
570.13	30153.12
570.30	29748.21
570.46	29439.26
570.62	28898.59
570.78	28704.33
570.95	29565.65
571.11	30148.44
571.27	30529.95
571.43	30363.77
571.60	29968.22
571.76	29998.65
571.92	30508.88
572.09	29771.61
572.25	30885.71
572.41	31824.26
572.57	32055.98
572.74	31978.74
572.90	30494.84
573.06	30534.63
573.22	29558.63
573.38	29310.53
573.55	29509.47
573.71	29046.05
573.87	29142.01
574.03	29979.92
574.20	30164.82
574.36	30391.86
574.52	30684.42
574.68	29333.93
574.84	28166.01
575.01	27943.66
575.17	28355.59
575.33	28877.53
575.49	28416.44
575.65	28922.00
575.82	29212.23
575.98	28636.45
576.14	28163.67
576.30	28470.28
576.46	28362.61
576.62	29511.81
576.79	29495.43
576.95	28933.70
577.11	27681.52
577.27	28709.01
577.43	28947.75
577.59	28325.16
577.75	28882.21
577.92	27737.69
578.08	27173.62
578.24	28229.20
578.40	27211.07
578.56	28252.61
578.72	28594.32
578.88	28449.21
579.04	28238.56
579.21	28318.14
579.37	28458.57
579.53	29509.47
579.69	29907.37
579.85	28980.51
580.01	28182.39
580.17	28016.21
580.33	28205.80
580.49	28002.17
580.65	27908.55
580.82	28098.13
580.98	27967.06
581.14	28823.70
581.30	27957.70
581.46	28334.53
581.62	28219.84
581.78	28217.50
581.94	28486.66
582.10	28924.34
582.26	28683.27
582.42	28615.39
582.58	28219.84
582.74	28648.16
582.90	28446.87
583.06	28723.05
583.22	28133.24
583.38	28701.99
583.54	28716.03
583.70	28819.02
583.86	28472.62
584.02	28753.48
584.18	28418.78
584.34	29186.48
584.50	28416.44
584.66	28156.64
584.82	27740.03
584.98	27833.65
585.14	27241.50
585.30	27002.76
585.46	26888.07
585.62	26541.68
585.78	27037.87
585.94	27236.81
586.10	26398.90
586.26	26899.78
586.42	27407.67
586.58	27105.74
586.74	27751.73
586.90	27833.65
587.06	27637.05
587.22	27866.42
587.38	27255.54
587.54	26813.18
587.70	26412.95
587.86	25659.29
588.02	25570.35
588.18	25249.70
588.34	24194.12
588.49	23285.99
588.65	22127.42
588.81	22845.97
588.97	22279.56
589.13	22796.82
589.29	22469.14
589.45	22986.40
589.61	23253.22
589.77	24627.12
589.93	24741.80
590.08	24470.30
590.24	25483.75
590.40	24783.93
590.56	24854.15
590.72	24893.94
590.88	24905.64
591.04	24868.19
591.20	24774.57
591.35	24421.15
591.51	24772.23
591.67	25942.50
591.83	25188.85
591.99	24456.26
592.15	25284.81
592.31	25158.42
592.46	24414.13
592.62	24961.81
592.78	25549.29
592.94	24999.26
593.10	25450.99
593.26	25539.93
593.41	24524.13
593.57	24451.58
593.73	24966.49
593.89	24568.60
594.05	24584.99
594.20	24231.57
594.36	24271.36
594.52	23403.02
594.68	23974.11
594.84	24123.90
594.99	24521.79
595.15	23522.38
595.31	24261.99
595.47	24924.36
595.62	25010.96
595.78	24411.79
595.94	25186.50
596.10	23557.49
596.25	23477.91
596.41	24524.13
596.57	24474.98
596.73	23969.43
596.88	24753.51
597.04	23737.71
597.20	23613.66
597.36	23328.12
597.51	24187.10
597.67	23819.63
597.83	24063.05
597.99	23948.36
598.14	23384.29
598.30	22867.03
598.46	22993.42
598.61	23674.52
598.77	23283.65
598.93	23754.10
599.09	23431.10
599.24	24671.59
599.40	23859.42
599.56	23803.25
599.71	23976.45
599.87	23349.18
600.03	23098.75
600.18	23288.33
600.34	22583.83
600.50	23122.15
600.65	23239.18
600.81	23115.13
600.97	23082.36
601.12	22960.66
601.28	22579.15
601.44	22970.02
601.59	23672.18
601.75	22595.53
601.91	22785.12
602.06	23491.96
602.22	23396.00
602.37	23325.78
602.53	23559.83
602.69	23742.39
602.84	23716.65
603.00	23316.42
603.16	24058.37
603.31	23697.92
603.47	22831.93
603.62	23686.22
603.78	23503.66
603.94	22588.51
604.09	23211.09
604.25	23655.79
604.40	23150.24
604.56	23852.40
604.71	24503.07
604.87	24594.35
605.03	24051.34
605.18	23410.04
605.34	23344.50
605.49	22721.92
605.65	22998.10
605.80	22822.56
605.96	23323.44
606.12	23199.39
606.27	23381.95
606.43	22902.14
606.58	22618.94
606.74	23180.67
606.89	23573.88
607.05	22820.22
607.20	22216.36
607.36	22527.66
607.51	22560.42
607.67	22717.24
607.82	22782.77
607.98	22068.91
608.13	22036.14
608.29	22525.32
608.44	22277.22
608.60	22532.34
608.75	21443.99
608.91	21862.94
609.06	22630.64
609.22	22789.80
609.37	22698.52
609.53	22410.63
609.68	21509.52
609.84	20737.15
609.99	21661.66
610.15	20950.14
610.30	22001.04
610.46	21858.26
610.61	21799.75
610.76	21530.59
610.92	21123.33
611.07	22061.89
611.23	21827.84
611.38	22443.40
611.54	22342.75
611.69	21572.72
611.84	21586.76
612.00	20823.75
612.15	21364.41
612.31	21689.74
612.46	21308.24
612.62	21570.38
612.77	21682.72
612.92	21820.81
613.08	20706.72
613.23	20414.15
613.39	19955.41
613.54	19941.36
613.69	20528.84
613.85	21633.57
614.00	21270.79
614.15	20641.18
614.31	21333.98
614.46	21549.31
614.62	20688.00
614.77	20173.08
614.92	20582.67
615.08	20868.22
615.23	20147.33
615.38	20519.48
615.54	20091.16
615.69	19229.84
615.84	19447.51
616.00	19384.32
616.15	19901.58
616.30	18895.14
616.46	19096.43
616.61	20287.76
616.76	19807.95
616.92	20414.15
617.07	20334.57
617.22	20439.90
617.37	20091.16
617.53	20020.94
617.68	19887.53
617.83	20126.27
617.99	20236.27
618.14	20334.57
618.29	19929.66
618.45	19681.56
618.60	19894.55
618.75	18941.96
618.90	19578.58
619.06	19482.62
619.21	19594.96
619.36	19812.63
619.51	19412.40
619.67	18941.96
619.82	19824.34
619.97	20641.18
620.12	20720.76
620.28	20559.27
620.43	20999.29
620.58	19847.74
620.73	20613.10
620.89	19894.55
621.04	19145.58
621.19	18239.79
621.34	18420.02
621.49	18850.67
621.65	19372.61
621.80	19850.08
621.95	19351.55
622.10	19009.83
622.25	18340.44
622.41	18347.46
622.56	18389.59
622.71	17790.41
622.86	17589.13
623.01	18078.30
623.16	18054.89
623.32	18050.21
623.47	18768.76
623.62	18307.67
623.77	19030.90
623.92	18171.92
624.07	17996.38
624.23	18040.85
624.38	17788.07
624.53	17476.78
624.68	17446.35
624.83	17502.53
624.98	17383.16
625.13	17385.50
625.29	18164.90
625.44	18200.01
625.59	17832.54
625.74	17455.72
625.89	18106.38
626.04	18321.71
626.19	18092.34
626.34	17680.41
626.49	17202.94
626.65	17294.22
626.80	17621.89
626.95	18082.98
627.10	18197.67
627.25	17975.31
627.40	17331.67
627.55	16154.38
627.70	16224.59
627.85	16362.69
628.00	16828.45
628.15	16985.27
628.30	16851.86
628.45	16929.09
628.60	16718.45
628.76	16854.20
628.91	16903.35
629.06	16795.68
629.21	17961.27
629.36	17090.59
629.51	16634.19
629.66	15791.59
629.81	15597.33
629.96	16217.57
630.11	15936.71
630.26	16336.94
630.41	16879.94
630.56	16156.72
630.71	16449.28
630.86	16049.05
631.01	16482.05
631.16	16776.96
631.31	15892.24
631.46	15932.03
631.61	15983.52
631.76	16112.25
631.91	16042.03
632.06	16011.60
632.21	16514.82
632.36	15896.92
632.51	15609.03
632.66	16465.67
632.81	16280.77
632.96	16299.49
633.10	16170.76
633.25	16255.02
633.40	15562.22
633.55	15475.62
633.70	15552.86
633.85	15697.97
634.00	15943.73
634.15	15967.13
634.30	15475.62
634.45	15545.84
634.60	15786.91
634.75	15531.80
634.90	15929.69
635.05	16444.60
635.19	15927.35
635.34	16060.76
635.49	15812.66
635.64	15768.19
635.79	15866.49
635.94	16500.78
636.09	17427.63
636.24	16489.07
636.39	16318.22
636.53	16615.46
636.68	16098.20
636.83	16343.96
636.98	16035.01
637.13	16215.23
637.28	16531.20
637.43	16891.65
637.57	16758.24
637.72	15868.83
637.87	15915.64
638.02	15496.69
638.17	15784.57
638.32	16465.67
638.46	16393.11
638.61	15707.34
638.76	16032.67
638.91	15962.45
639.06	15817.34
639.20	15822.02
639.35	15658.18
639.50	15180.71
639.65	15096.46
639.80	15091.77
639.94	15365.62
640.09	15454.56
640.24	14691.54
640.39	14728.99
640.54	14122.79
640.68	14897.51
640.83	14764.10
640.98	15126.88
641.13	15440.51
641.27	15681.59
641.42	14855.38
641.57	14817.93
641.72	14698.56
641.86	15147.95
642.01	15396.04
642.16	15297.74
642.31	14551.11
642.45	14530.05
642.60	14728.99
642.75	14167.26
642.90	14562.81
643.04	14698.56
643.19	14029.17
643.34	14068.96
643.48	14256.20
643.63	14368.55
643.78	13870.01
643.93	13720.22
644.07	14239.82
644.22	14656.43
644.37	14211.73
644.51	13991.72
644.66	14010.45
644.81	14635.37
644.95	14541.75
645.10	14183.65
645.25	13689.79
645.39	13336.37
645.54	14050.24
645.69	13369.14
645.83	13671.07
645.98	13839.59
646.13	14101.73
646.27	13657.03
646.42	14012.79
646.57	13909.80
646.71	13839.59
646.86	13687.45
647.00	13603.19
647.15	13507.23
647.30	13209.98
647.44	13041.46
647.59	13011.04
647.74	13200.62
647.88	12809.75
648.03	12814.43
648.17	12915.08
648.32	13039.12
648.47	13514.25
648.61	13497.87
648.76	13750.65
648.90	13273.18
649.05	12943.16
649.20	12416.54
649.34	11969.50
649.49	12381.43
649.63	12461.01
649.78	12444.63
649.92	12648.26
650.07	13266.16
650.21	13146.79
650.36	12992.31
650.51	13390.20
650.65	13933.21
650.80	13774.05
650.94	13298.92
651.09	13039.12
651.23	12599.10
651.38	12098.23
651.52	12645.91
651.67	12882.31
651.81	13383.18
651.96	13544.68
652.10	13317.65
652.25	13261.48
652.39	13081.25
652.54	12812.09
652.68	13167.85
652.83	13146.79
652.97	12896.35
653.12	12439.95
653.26	12514.84
653.41	12500.80
653.55	12645.91
653.70	13118.70
653.84	12603.78
653.99	13151.47
654.13	12489.10
654.27	12627.19
654.42	12332.28
654.56	12423.56
654.71	12264.41
654.85	11651.19
655.00	11772.89
655.14	11749.49
655.29	11447.56
655.43	11557.57
655.57	10647.10
655.72	9879.40
655.86	9312.99
656.01	9434.70
656.15	9530.66
656.30	10349.85
656.44	10483.26
656.58	10750.08
656.73	11035.63
656.87	11459.26
657.01	11426.50
657.16	11396.07
657.30	11580.97
657.45	11927.37
657.59	11417.13
657.73	11566.93
657.88	11719.06
658.02	12044.40
658.16	11754.17
658.31	11840.77
658.45	12004.61
658.60	11908.65
658.74	12697.41
658.88	12374.41
659.03	11845.45
659.17	12013.97
659.31	11534.16
659.46	11613.74
659.60	12053.76
659.74	11838.43
659.89	11901.62
660.03	11805.66
660.17	11749.49
660.32	11552.88
660.46	11815.02
660.60	11555.22
660.74	11569.27
660.89	11740.13
661.03	12011.63
661.17	12095.89
661.32	12161.42
661.46	12004.61
661.60	12170.79
661.74	11995.25
661.89	11941.41
662.03	11864.18
662.17	11136.27
662.31	11316.49
662.46	11405.43
662.60	10934.98
662.74	10455.17
662.88	10401.34
663.03	10977.11
663.17	11136.27
663.31	10499.64
663.45	10998.18
663.60	11269.68
663.74	10963.07
663.88	11290.74
664.02	10806.25
664.17	11176.06
664.31	10483.26
664.45	10258.57
664.59	10953.71
664.73	11414.79
664.88	11590.33
665.02	11880.56
665.16	11887.58
665.30	11850.13
665.44	12020.99
665.59	11438.20
665.73	10993.50
665.87	10794.55
666.01	10597.95
666.15	10548.79
666.29	10588.58
666.44	11054.35
666.58	11007.54
666.72	10794.55
666.86	11204.14
667.00	11112.86
667.14	10305.38
667.28	10480.92
667.43	10466.88
667.57	11154.99
667.71	10937.32
667.85	10693.91
667.99	11005.20
668.13	10881.15
668.27	10920.94
668.41	10885.83
668.56	10839.02
668.70	10583.90
668.84	10949.03
668.98	10965.41
669.12	10600.29
669.26	10209.42
669.40	10001.11
669.54	9977.70
669.68	9856.00
669.82	9930.89
669.96	10223.46
670.10	9926.21
670.25	10270.27
670.39	9930.89
670.53	9905.15
670.67	9923.87
670.81	9696.84
670.95	9626.62
671.09	9598.54
671.23	9647.69
671.37	9401.93
671.51	9284.91
671.65	9186.60
671.79	9497.89
671.93	10050.26
672.07	10190.69
672.21	9448.74
672.35	9495.55
672.49	9542.36
672.63	9542.36
672.77	9535.34
672.91	9455.76
673.05	9441.72
673.19	9043.83
673.33	9434.70
673.47	9827.91
673.61	9593.86
673.75	9320.01
673.89	9345.76
674.03	8837.86
674.17	9350.44
674.31	9312.99
674.45	8940.85
674.59	9476.83
674.73	9472.15
674.87	9118.73
675.01	8840.20
675.15	8568.70
675.29	8870.63
675.43	8472.74
675.56	8402.52
675.70	8685.73
675.84	8978.30
675.98	8578.06
676.12	8521.89
676.26	8428.27
676.40	8526.57
676.54	8402.52
676.68	8650.62
676.82	8180.17
676.96	8177.83
677.10	8135.70
677.23	8105.28
677.37	8133.36
677.51	8372.10
677.65	8219.96
677.79	8018.68
677.93	7864.20
678.07	8131.02
678.21	8212.94
678.34	8414.23
678.48	8226.98
678.62	8252.73
678.76	8500.83
678.90	8035.06
679.04	8086.55
679.18	8425.93
679.31	8224.64
679.45	7929.74
679.59	7953.14
679.73	7829.09
679.87	8203.58
680.00	7885.26
680.14	8011.65
680.28	8222.30
680.42	7906.33
680.56	7435.88
680.70	7183.10
680.83	7674.62
680.97	8161.45
681.11	7957.82
681.25	7716.75
681.39	7845.48
681.52	7592.70
681.66	7517.80
681.80	7194.81
681.94	7314.17
682.07	7475.67
682.21	7332.90
682.35	7618.44
682.49	7213.53
682.62	7220.55
682.76	7054.37
682.90	6506.69
683.04	6766.49
683.17	6672.87
683.31	6808.62
683.45	7398.43
683.59	6857.77
683.72	6548.82
683.86	6539.46
684.00	6050.28
684.13	6115.82
684.27	6445.84
684.41	6551.16
684.55	6604.99
684.68	6808.62
684.82	6850.75
684.96	6738.40
685.09	6682.23
685.23	6471.58
685.37	6434.13
685.50	6588.61
685.64	6616.69
685.78	6565.20
685.91	6401.37
686.05	6644.78
686.19	6296.04
686.32	5778.78
686.46	5331.74
686.60	4484.47
686.73	4112.32
686.87	3889.97
687.01	3999.98
687.14	4077.21
687.28	4582.77
687.42	4802.78
687.55	4901.08
687.69	5078.96
687.82	5448.77
687.96	5116.41
688.10	5313.02
688.23	5568.13
688.37	5219.39
688.50	4842.57
688.64	4924.49
688.78	5041.51
688.91	4992.36
689.05	4975.98
689.18	4903.42
689.32	4910.44
689.46	4772.35
689.59	4631.92
689.73	5022.79
689.86	4821.50
690.00	4540.64
690.13	4835.55
690.27	5008.75
690.41	4704.48
690.54	4798.10
690.68	4926.83
690.81	5210.03
690.95	5249.82
691.08	5380.89
691.22	5378.55
691.35	5179.61
691.49	4947.89
691.62	5095.35
691.76	5114.07
691.89	4952.57
692.03	4840.23
692.16	4987.68
692.30	4685.75
692.43	4777.03
692.57	4730.22
692.70	4861.29
692.84	4720.86
692.97	4678.73
693.11	4608.51
693.24	4636.60
693.38	4585.11
693.51	4615.54
693.65	4486.81
693.78	4416.59
693.92	4355.74
694.05	4285.52
694.19	4049.13
694.32	3995.29
694.45	4180.20
694.59	4374.46
694.72	4140.41
694.86	4435.32
694.99	4472.76
695.13	4500.85
695.26	4664.69
695.39	4430.63
695.53	4386.16
695.66	4372.12
695.80	4407.23
695.93	4397.87
696.07	4786.40
696.20	4699.80
696.33	4692.77
696.47	4748.95
696.60	4276.16
696.73	4388.50
696.87	4573.41
697.00	4437.66
697.14	4542.98
697.27	4432.97
697.40	4194.24
697.54	4259.78
697.67	4227.01
697.80	4135.73
697.94	4435.32
698.07	4306.59
698.21	4044.45
698.34	3875.93
698.47	3920.40
698.61	3857.20
698.74	3999.98
698.87	3941.46
699.01	3957.85
699.14	4074.87
699.27	4170.83
699.40	4227.01
699.54	4308.93
699.67	3990.61
699.80	3894.65
699.94	3770.60
700.07	3698.05
700.20	3796.35
700.34	3613.79
700.47	3618.47
700.60	3454.63
700.73	3471.01
700.87	3496.76
701.00	3581.02
701.13	3466.33
701.26	3445.27
701.40	3435.91
701.53	3361.01
701.66	3529.53
701.79	3452.29
701.93	3318.88
702.06	3377.39
702.19	3307.18
702.32	3358.67
702.46	3143.34
702.59	3389.10
702.72	3424.20
702.85	3564.64
702.99	3531.87
703.12	3482.72
703.25	3478.04
703.38	3155.04
703.51	3119.93
703.65	3253.34
703.78	3302.50
703.91	3328.24
704.04	3236.96
704.17	3171.43
704.31	3314.20
704.44	3480.38
704.57	3353.99
704.70	3316.54
704.83	3094.19
704.96	3335.26
705.10	3098.87
705.23	3112.91
>>>>>End Processed Spectral Data<<<<<
