SpectraSuite Data File
++++++++++++++++++++++++++++++++++++
Date: Mon Oct 07 14:54:58 GMT-05:00 2013
User: price-jones
Dark Spectrum Present: No
Reference Spectrum Present: No
Number of Sampled Component Spectra: 1
Spectrometers: USB2+H05261
Integration Time (usec): 10000 (USB2+H05261)
Spectra Averaged: 1 (USB2+H05261)
Boxcar Smoothing: 0 (USB2+H05261)
Correct for Electrical Dark: No (USB2+H05261)
Strobe/Lamp Enabled: No (USB2+H05261)
Correct for Detector Non-linearity: No (USB2+H05261)
Correct for Stray Light: No (USB2+H05261)
Number of Pixels in Processed Spectrum: 2048
>>>>>Begin Processed Spectral Data<<<<<
365.73	0.00
365.92	0.00
366.12	0.00
366.32	0.00
366.52	0.00
366.72	0.00
366.91	0.00
367.11	0.00
367.31	0.00
367.51	0.00
367.70	0.00
367.90	0.00
368.10	0.00
368.30	0.00
368.49	0.00
368.69	0.00
368.89	0.00
369.09	0.00
369.28	0.00
369.48	0.00
369.68	0.00
369.87	0.00
370.07	0.00
370.27	0.00
370.47	210.65
370.66	1453.47
370.86	1746.04
371.06	1746.04
371.25	1827.96
371.45	1556.46
371.65	1488.58
371.84	1411.34
372.04	1455.81
372.24	1710.93
372.44	1748.38
372.63	1591.56
372.83	1509.65
373.03	1322.40
373.22	1284.95
373.42	1334.11
373.62	1547.09
373.81	1675.82
374.01	1614.97
374.21	1460.49
374.40	1441.77
374.60	1371.55
374.79	1666.46
374.99	2001.16
375.19	2263.30
375.38	2085.42
375.58	2031.58
375.78	1916.90
375.97	1914.56
376.17	2026.90
376.37	2087.76
376.56	2214.15
376.76	2296.07
376.95	2373.30
377.15	2581.61
377.35	2761.83
377.54	2731.41
377.74	2909.29
377.93	2780.56
378.13	2672.89
378.33	2537.14
378.52	2321.81
378.72	2211.81
378.91	2310.11
379.11	2139.25
379.31	2150.95
379.50	2211.81
379.70	2246.91
379.89	2530.12
380.09	2693.96
380.28	2895.24
380.48	2888.22
380.68	2796.94
380.87	2583.95
381.07	2305.43
381.26	2167.34
381.46	1959.03
381.65	2012.86
381.85	1842.00
382.04	1767.10
382.24	1722.63
382.43	1614.97
382.63	1603.27
382.83	1558.80
383.02	1579.86
383.22	1703.91
383.41	1661.78
383.61	1856.04
383.80	2083.08
384.00	2466.92
384.19	2640.12
384.39	2703.32
384.58	2745.45
384.78	2715.02
384.97	2574.59
385.17	2420.11
385.36	2375.64
385.56	2263.30
385.75	2394.37
385.95	2588.63
386.14	2773.53
386.34	2754.81
386.53	2708.00
386.72	2485.65
386.92	2677.57
387.11	2689.28
387.31	2853.11
387.50	2738.43
387.70	2740.77
387.89	2635.44
388.09	2759.49
388.28	2691.62
388.48	2850.77
388.67	2942.05
388.86	3405.48
389.06	3522.51
389.25	3836.14
389.45	3639.53
389.64	3684.00
389.84	3702.73
390.03	3440.59
390.22	3698.05
390.42	3892.31
390.61	4109.98
390.81	4198.92
391.00	4269.14
391.19	4194.24
391.39	4135.73
391.58	3674.64
391.78	3543.57
391.97	3625.49
392.16	3094.19
392.36	2724.38
392.55	2260.96
392.75	1774.13
392.94	1320.06
393.13	1568.16
393.33	1949.67
393.52	2293.72
393.71	2984.18
393.91	3344.63
394.10	3735.50
394.29	4035.08
394.49	4198.92
394.68	4727.88
394.88	4587.45
395.07	4725.54
395.26	4730.22
395.46	4409.57
395.65	4044.45
395.84	3412.50
396.04	2963.12
396.23	2382.67
396.42	2010.52
396.62	1987.11
396.81	2551.18
397.00	3225.26
397.19	4180.20
397.39	4697.46
397.58	5310.68
397.77	5479.19
397.97	5738.99
398.16	5685.16
398.35	6031.56
398.55	6148.59
398.74	6155.61
398.93	6450.52
399.12	6312.42
399.32	6225.82
399.51	6483.28
399.70	6745.42
399.90	6420.09
400.09	6555.84
400.28	6654.14
400.47	6693.93
400.67	7070.76
400.86	7265.02
401.05	7178.42
401.24	7276.73
401.44	7375.03
401.63	7218.21
401.82	7140.97
402.01	7428.86
402.21	7573.97
402.40	7513.12
402.59	7145.66
402.78	6712.66
402.97	6703.29
403.17	7171.40
403.36	7473.33
403.55	7578.65
403.74	7585.68
403.93	7173.74
404.13	6902.24
404.32	6773.51
404.51	7164.38
404.70	7548.23
404.89	7564.61
405.09	7541.21
405.28	7070.76
405.47	7157.36
405.66	7363.33
405.85	6918.62
406.05	6902.24
406.24	7068.42
406.43	7368.01
406.62	7524.82
406.81	7447.58
407.00	7178.42
407.20	7082.46
407.39	7140.97
407.58	7784.62
407.77	7915.69
407.96	7941.44
408.15	8348.69
408.34	8081.87
408.54	8627.21
408.73	8599.13
408.92	8313.58
409.11	7899.31
409.30	7606.74
409.49	7178.42
409.68	6794.58
409.87	6995.86
410.07	7236.94
410.26	7740.15
410.45	8098.25
410.64	8327.63
410.83	8498.49
411.02	8987.66
411.21	9142.13
411.40	9013.40
411.59	8889.35
411.78	9100.00
411.98	8894.04
412.17	9071.92
412.36	8823.82
412.55	8699.77
412.74	8538.27
412.93	8423.59
413.12	8802.75
413.31	9373.85
413.50	9523.64
413.69	9458.10
413.88	9034.47
414.07	8915.10
414.26	9165.54
414.45	9451.08
414.64	9495.55
414.83	9376.19
415.02	9181.92
415.22	9497.89
415.41	9607.90
415.60	9921.53
415.79	10279.63
415.98	10253.89
416.17	10361.55
416.36	9940.26
416.55	9802.16
416.74	9432.36
416.93	9259.16
417.12	9312.99
417.31	9687.48
417.50	9561.09
417.69	9898.13
417.88	10111.11
418.07	9724.93
418.26	9675.77
418.45	10031.54
418.64	10340.49
418.83	10485.60
419.02	10354.53
419.21	10029.20
419.39	9502.58
419.58	9280.22
419.77	9549.39
419.96	10155.58
420.15	10509.01
420.34	10761.78
420.53	11321.17
420.72	11382.03
420.91	10834.34
421.10	10757.10
421.29	10766.46
421.48	10546.45
421.67	10974.77
421.86	10335.81
422.05	9446.40
422.24	8929.14
422.43	9029.79
422.61	9973.02
422.80	10623.69
422.99	10235.16
423.18	9923.87
423.37	10061.96
423.56	10164.95
423.75	10424.75
423.94	10490.28
424.13	9834.93
424.32	9813.87
424.50	9865.36
424.69	9984.73
424.88	10059.62
425.07	9762.37
425.26	9753.01
425.45	9664.07
425.64	9689.82
425.83	9858.34
426.01	10689.23
426.20	10272.61
426.39	10019.83
426.58	9217.03
426.77	8957.23
426.96	8751.26
427.15	8938.51
427.33	9743.65
427.52	9872.38
427.71	10033.88
427.90	9617.26
428.09	9696.84
428.28	9390.23
428.46	9284.91
428.65	9181.92
428.84	9401.93
429.03	9467.47
429.22	8814.46
429.40	8219.96
429.59	7550.57
429.78	6829.68
429.97	6801.60
430.16	6785.21
430.34	6860.11
430.53	6810.96
430.72	7262.68
430.91	8156.77
431.10	9769.40
431.28	11000.52
431.47	11482.67
431.66	11580.97
431.85	10546.45
432.03	9633.64
432.22	9797.48
432.41	10263.25
432.60	11152.65
432.79	11463.94
432.97	11719.06
433.16	11190.10
433.35	10111.11
433.54	9184.26
433.72	9151.49
433.91	9507.26
434.10	10616.67
434.28	11044.99
434.47	11700.34
434.66	10862.43
434.85	11075.42
435.03	11272.02
435.22	11412.45
435.41	11868.86
435.59	11740.13
435.78	12217.60
435.97	12299.52
436.16	12266.75
436.34	12278.45
436.53	12020.99
436.72	11948.43
436.90	11190.10
437.09	11131.59
437.28	11002.86
437.46	11510.75
437.65	11232.23
437.84	10253.89
438.02	10040.90
438.21	10111.11
438.40	10487.94
438.58	11143.29
438.77	11384.37
438.96	11758.85
439.14	12287.81
439.33	12163.76
439.52	12510.16
439.70	12114.61
439.89	11833.75
440.08	11520.12
440.26	11735.45
440.45	12269.09
440.63	13172.54
440.82	13902.78
441.01	12950.18
441.19	13200.62
441.38	13788.10
441.57	13797.46
441.75	14050.24
441.94	14195.35
442.12	13811.50
442.31	14373.23
442.50	14286.63
442.68	14291.31
442.87	14061.94
443.05	13884.06
443.24	14078.32
443.43	14075.98
443.61	14450.47
443.80	14874.10
443.98	14036.19
444.17	14249.18
444.35	14897.51
444.54	15007.52
444.73	14850.70
444.91	13827.88
445.10	13277.86
445.28	12947.84
445.47	12823.80
445.65	12975.93
445.84	13406.59
446.02	13743.63
446.21	13870.01
446.39	13996.40
446.58	14017.47
446.77	14600.26
446.95	14738.35
447.14	15087.09
447.32	15253.27
447.51	14853.04
447.69	14015.13
447.88	13783.41
448.06	14300.67
448.25	14682.18
448.43	14506.64
448.62	14331.10
448.80	14073.64
448.99	14239.82
449.17	14508.98
449.36	14670.48
449.54	14878.79
449.73	15267.31
449.91	15358.60
450.10	15901.60
450.28	16030.33
450.46	15529.45
450.65	15529.45
450.83	15653.50
451.02	15557.54
451.20	15246.25
451.39	15105.82
451.57	15110.50
451.76	15192.42
451.94	14661.12
452.13	14656.43
452.31	13867.67
452.49	13453.40
452.68	13877.04
452.86	13752.99
453.05	14169.60
453.23	14991.13
453.42	15023.90
453.60	14801.55
453.78	15316.47
453.97	14750.06
454.15	14789.85
454.34	14560.47
454.52	14551.11
454.70	14717.29
454.89	14516.00
455.07	14527.71
455.26	14726.65
455.44	15173.69
455.62	15503.71
455.81	15735.42
455.99	15070.71
456.17	15489.67
456.36	15522.43
456.54	15936.71
456.73	16056.08
456.91	16358.00
457.09	15871.17
457.28	16374.39
457.46	15679.25
457.64	15719.04
457.83	15007.52
458.01	14761.76
458.19	15335.19
458.38	15084.75
458.56	15730.74
458.74	15770.53
458.93	15580.95
459.11	15353.91
459.29	15171.35
459.48	15304.76
459.66	15161.99
459.84	15344.55
460.03	15941.39
460.21	15747.12
460.39	16269.06
460.57	16332.26
460.76	16575.67
460.94	16140.33
461.12	16095.86
461.31	16376.73
461.49	16369.71
461.67	16311.19
461.85	16769.94
462.04	16755.90
462.22	16486.73
462.40	16547.59
462.59	16077.14
462.77	16355.66
462.95	16435.24
463.13	16563.97
463.32	16276.09
463.50	15864.15
463.68	15948.41
463.86	16215.23
464.05	15917.98
464.23	15211.14
464.41	15063.69
464.59	15248.59
464.78	15922.66
464.96	15503.71
465.14	15480.30
465.32	16388.43
465.50	16683.34
465.69	16643.55
465.87	16065.44
466.05	15749.46
466.23	15115.18
466.41	15047.30
466.60	16063.10
466.78	15742.44
466.96	15389.02
467.14	15695.63
467.32	16128.63
467.51	15906.28
467.69	15243.91
467.87	15475.62
468.05	15714.36
468.23	15833.72
468.41	15585.63
468.60	15847.77
468.78	15850.11
468.96	15681.59
469.14	16091.18
469.32	16486.73
469.50	15325.83
469.69	15377.32
469.87	15061.35
470.05	15257.95
470.23	15428.81
470.41	15749.46
470.59	15524.77
470.77	15370.30
470.95	15829.04
471.14	16121.61
471.32	16299.49
471.50	17429.97
471.68	17205.28
471.86	17453.37
472.04	17128.04
472.22	17036.76
472.40	16563.97
472.58	16407.16
472.77	16084.16
472.95	16603.76
473.13	17003.99
473.31	16666.95
473.49	16732.49
473.67	16924.41
473.85	16870.58
474.03	16861.22
474.21	17188.89
474.39	17369.12
474.57	17385.50
474.75	17610.19
474.93	17563.38
475.12	17184.21
475.30	17451.03
475.48	17523.59
475.66	17668.70
475.84	17193.58
476.02	17191.23
476.20	17334.01
476.38	17013.35
476.56	17378.48
476.74	18164.90
476.92	18246.82
477.10	18328.74
477.28	19082.39
477.46	18747.69
477.64	18771.10
477.82	18930.25
478.00	18932.59
478.18	18745.35
478.36	18759.39
478.54	18293.63
478.72	19358.57
478.90	19885.19
479.08	19807.95
479.26	19826.68
479.44	19473.26
479.62	19920.30
479.80	20067.75
479.98	20098.18
480.16	20437.56
480.34	20259.68
480.52	20170.74
480.70	20196.48
480.88	20140.31
481.06	20783.96
481.24	21062.48
481.41	21720.17
481.59	21909.75
481.77	21172.49
481.95	20987.58
482.13	21371.43
482.31	20781.62
482.49	21708.47
482.67	21193.55
482.85	21305.90
483.03	21460.37
483.21	21816.13
483.39	21584.42
483.57	21858.26
483.74	21366.75
483.92	21535.27
484.10	21905.07
484.28	22108.70
484.46	22354.46
484.64	21731.87
484.82	21961.25
485.00	22153.17
485.18	21137.38
485.35	20180.10
485.53	18061.91
485.71	17057.82
485.89	17458.06
486.07	18487.89
486.25	20025.62
486.43	21020.35
486.61	20215.21
486.78	20641.18
486.96	21338.66
487.14	22209.34
487.32	22593.19
487.50	23023.85
487.68	22745.33
487.85	23690.90
488.03	23704.95
488.21	23065.98
488.39	22368.50
488.57	22785.12
488.75	22902.14
488.92	23974.11
489.10	25883.98
489.28	25872.28
489.46	26536.99
489.64	27140.85
489.81	26515.93
489.99	25504.82
490.17	26197.62
490.35	27065.96
490.53	26218.68
490.70	25673.34
490.88	26071.23
491.06	27019.14
491.24	26497.20
491.41	25057.78
491.59	24276.04
491.77	23920.28
491.95	24884.58
492.13	25720.15
492.30	26352.09
492.48	27861.74
492.66	28056.00
492.84	27337.46
493.01	26967.65
493.19	26146.12
493.37	25771.64
493.54	26321.66
493.72	27016.80
493.90	27936.63
494.08	28290.06
494.25	29469.69
494.43	29142.01
494.61	29890.98
494.79	29631.18
494.96	29420.53
495.14	28041.96
495.32	27285.97
495.49	27346.82
495.67	28137.92
495.85	29930.77
496.02	30110.99
496.20	29766.93
496.38	29551.60
496.55	29493.09
496.73	29727.14
496.91	29434.58
497.09	29958.86
497.26	29862.90
497.44	30422.28
497.62	29504.79
497.79	28657.52
497.97	27590.24
498.14	27971.74
498.32	29156.05
498.50	29528.20
498.67	30616.55
498.85	29717.78
499.03	29268.40
499.20	29909.71
499.38	29862.90
499.56	29394.79
499.73	29209.89
499.91	28790.93
500.08	28292.40
500.26	27683.86
500.44	28641.14
500.61	29261.38
500.79	28276.01
500.97	28053.66
501.14	28046.64
501.32	27676.83
501.49	27590.24
501.67	28060.68
501.84	29184.14
502.02	28842.42
502.20	29298.83
502.37	30169.51
502.55	30342.70
502.72	30323.98
502.90	30773.36
503.07	30314.62
503.25	30529.95
503.43	29359.68
503.60	27805.56
503.78	27503.64
503.95	28741.78
504.13	29315.21
504.30	30595.48
504.48	30984.01
504.65	30288.87
504.83	30190.57
505.01	30146.10
505.18	30630.59
505.36	31578.51
505.53	31405.31
505.71	31976.40
505.88	31960.02
506.06	31742.35
506.23	31140.83
506.41	30501.86
506.58	30466.75
506.76	30221.00
506.93	30522.93
507.11	29078.82
507.28	30508.88
507.46	29668.63
507.63	29062.43
507.81	28453.89
507.98	29083.50
508.16	30408.24
508.33	31171.25
508.50	30162.48
508.68	31484.89
508.85	32070.02
509.03	31363.18
509.20	30228.02
509.38	30347.39
509.55	29872.26
509.73	30705.49
509.90	31021.46
510.08	30401.22
510.25	29806.72
510.42	30176.53
510.60	30216.32
510.77	31393.61
510.95	32051.30
511.12	30785.07
511.30	31426.37
511.47	32236.20
511.64	31737.66
511.82	31585.53
511.99	30700.81
512.17	30609.53
512.34	30471.43
512.51	30075.88
512.69	30270.15
512.86	30890.39
513.04	31370.20
513.21	30855.28
513.38	30731.23
513.56	29979.92
513.73	28917.32
513.90	28552.20
514.08	29355.00
514.25	29993.97
514.43	30515.90
514.60	30588.46
514.77	30658.68
514.95	30419.94
515.12	30052.48
515.29	31002.74
515.47	31353.82
515.64	31009.76
515.81	30939.54
515.99	30429.30
516.16	27627.68
516.33	26195.28
516.51	24975.86
516.68	23896.87
516.85	23405.36
517.03	24758.19
517.20	26644.66
517.37	29008.60
517.54	29556.28
517.72	27470.87
517.89	26176.55
518.06	25303.53
518.24	25771.64
518.41	27618.32
518.58	28737.10
518.75	28973.49
518.93	28510.07
519.10	28437.51
519.27	29043.71
519.45	29319.89
519.62	30295.89
519.79	30602.50
519.96	30462.07
520.14	29493.09
520.31	29289.46
520.48	28879.87
520.65	29738.85
520.83	29958.86
521.00	29745.87
521.17	29837.15
521.34	28755.82
521.52	29200.52
521.69	30597.82
521.86	30955.93
522.03	29802.04
522.20	28910.30
522.38	27929.61
522.55	27824.29
522.72	29024.98
522.89	28411.76
523.07	29207.55
523.24	30359.09
523.41	30106.31
523.58	30031.41
523.75	29701.40
523.92	31438.08
524.10	31058.91
524.27	31173.60
524.44	31199.34
524.61	31508.29
524.78	31337.43
524.96	30801.45
525.13	30696.13
525.30	31297.64
525.47	31693.19
525.64	31236.79
525.81	29034.35
525.98	27445.12
526.16	26544.02
526.33	26218.68
526.50	26459.76
526.67	26469.12
526.84	26555.72
527.01	28133.24
527.18	28751.14
527.36	29034.35
527.53	30338.02
527.70	30045.46
527.87	28594.32
528.04	28744.12
528.21	29823.11
528.38	30178.87
528.55	31732.98
528.72	31009.76
528.89	31218.07
529.07	31019.12
529.24	29516.50
529.41	30209.29
529.58	29134.99
529.75	29067.11
529.92	29399.47
530.09	29806.72
530.26	29872.26
530.43	29017.96
530.60	30969.97
530.77	31218.07
530.94	32165.98
531.11	30501.86
531.28	30099.29
531.46	29895.66
531.63	30221.00
531.80	30611.87
531.97	29355.00
532.14	27878.12
532.31	27094.04
532.48	26642.32
532.65	26712.53
532.82	27480.23
532.99	28599.01
533.16	30204.61
533.33	31000.40
533.50	30373.13
533.67	28994.56
533.84	29102.22
534.01	28737.10
534.18	29214.57
534.35	28957.11
534.52	29095.20
534.69	29465.00
534.86	29298.83
535.03	29858.21
535.20	30225.68
535.37	30157.80
535.54	30789.75
535.71	29738.85
535.88	29837.15
536.05	28704.33
536.22	28545.17
536.38	27840.67
536.55	28442.19
536.72	28128.56
536.89	27810.25
537.06	28903.28
537.23	29146.69
537.40	29418.19
537.57	29441.60
537.74	28257.29
537.91	28526.45
538.08	29565.65
538.25	29736.51
538.42	28762.84
538.59	28884.55
538.75	29308.19
538.92	28624.75
539.09	27627.68
539.26	27138.51
539.43	26752.32
539.60	26958.29
539.77	27098.72
539.94	26405.92
540.11	25876.96
540.28	25345.66
540.44	26132.08
540.61	26698.49
540.78	26747.64
540.95	28343.89
541.12	27433.42
541.29	28224.52
541.46	27835.99
541.62	27835.99
541.79	26892.76
541.96	26700.83
542.13	27803.22
542.30	28147.28
542.47	27880.46
542.63	27374.91
542.80	26551.04
542.97	26962.97
543.14	26546.36
543.31	26675.09
543.48	27988.13
543.64	28327.50
543.81	28889.23
543.98	28250.27
544.15	27805.56
544.32	26644.66
544.48	27857.06
544.65	26906.80
544.82	27215.75
544.99	27716.62
545.16	27578.53
545.32	27887.48
545.49	28517.09
545.66	28467.94
545.83	27896.85
546.00	27763.43
546.16	27185.32
546.33	27267.24
546.50	27520.02
546.67	27475.55
546.83	26899.78
547.00	26920.84
547.17	26637.64
547.34	26780.41
547.50	26778.07
547.67	26604.87
547.84	26363.79
548.00	27030.85
548.17	26630.62
548.34	26771.05
548.51	26558.06
548.67	27578.53
548.84	27674.49
549.01	27749.39
549.18	28081.75
549.34	28154.30
549.51	27725.99
549.68	27587.89
549.84	26661.04
550.01	27274.26
550.18	26169.53
550.34	26661.04
550.51	26333.37
550.68	25785.68
550.84	25142.03
551.01	25340.98
551.18	24954.79
551.34	25184.16
551.51	26483.16
551.68	27449.80
551.84	26363.79
552.01	26567.42
552.18	25958.88
552.34	25769.30
552.51	25823.13
552.68	26710.19
552.84	26022.08
553.01	26260.81
553.18	26995.74
553.34	26904.46
553.51	26139.10
553.67	26164.85
553.84	27388.95
554.01	27365.54
554.17	25879.30
554.34	26656.36
554.51	27197.02
554.67	26806.16
554.84	25881.64
555.00	25912.07
555.17	26103.99
555.33	25809.09
555.50	26757.00
555.67	26143.78
555.83	26235.06
556.00	26146.12
556.16	25975.27
556.33	25804.41
556.50	25708.44
556.66	25046.07
556.83	24437.53
556.99	24819.04
557.16	25355.02
557.32	25387.79
557.49	25364.39
557.65	25479.07
557.82	24126.24
557.98	24706.70
558.15	25549.29
558.32	24411.79
558.48	23229.82
558.65	23805.59
558.81	23683.88
558.98	23953.04
559.14	24552.22
559.31	24631.80
559.47	24400.08
559.64	23655.79
559.80	24975.86
559.97	24027.94
560.13	24943.09
560.30	24982.88
560.46	25216.93
560.63	25453.33
560.79	25935.48
560.96	24858.83
561.12	24086.45
561.29	24034.96
561.45	23707.29
561.61	23770.48
561.78	23737.71
561.94	24013.90
562.11	23707.29
562.27	24126.24
562.44	24723.08
562.60	24606.05
562.77	25188.85
562.93	24121.56
563.10	24163.69
563.26	23974.11
563.42	23330.46
563.59	23255.56
563.75	24018.58
563.92	23840.70
564.08	23648.77
564.24	23672.18
564.41	22438.72
564.57	23016.83
564.74	23101.09
564.90	22843.63
565.07	22654.05
565.23	22108.70
565.39	22228.07
565.56	23094.07
565.72	22721.92
565.88	23255.56
566.05	22445.74
566.21	23049.60
566.38	22333.39
566.54	22726.60
566.70	22312.33
566.87	22841.29
567.03	24011.56
567.19	24414.13
567.36	22616.60
567.52	23470.89
567.68	22944.27
567.85	22724.26
568.01	22824.90
568.17	21982.31
568.34	21144.40
568.50	21687.40
568.66	21486.12
568.83	21994.01
568.99	22335.73
569.15	21928.48
569.32	23077.68
569.48	22178.92
569.64	21713.15
569.81	20922.05
569.97	21638.25
570.13	21834.86
570.30	21219.30
570.46	21247.38
570.62	20102.86
570.78	19939.02
570.95	20053.71
571.11	20985.24
571.27	21142.06
571.43	20891.62
571.60	21661.66
571.76	21682.72
571.92	21926.14
572.09	22309.99
572.25	21979.97
572.41	22810.86
572.57	22260.84
572.74	21553.99
572.90	21811.45
573.06	21750.60
573.22	21170.15
573.38	21214.62
573.55	21043.76
573.71	21163.12
573.87	21624.21
574.03	21474.42
574.20	21624.21
574.36	21029.71
574.52	21099.93
574.68	20837.79
574.84	20758.21
575.01	21050.78
575.17	20908.01
575.33	20917.37
575.49	20514.80
575.65	20971.20
575.82	20362.66
575.98	20678.63
576.14	20566.29
576.30	20547.56
576.46	20088.82
576.62	20807.36
576.79	20512.46
576.95	20128.61
577.11	19798.59
577.27	19763.48
577.43	20011.58
577.59	19761.14
577.75	20627.14
577.92	19824.34
578.08	19484.96
578.24	19353.89
578.40	19531.77
578.56	19695.61
578.72	19711.99
578.88	20372.02
579.04	20159.03
579.21	20152.01
579.37	20180.10
579.53	19711.99
579.69	19389.00
579.85	19262.61
580.01	19297.72
580.17	19449.85
580.33	19410.06
580.49	19550.49
580.65	19634.75
580.82	19688.59
580.98	19508.37
581.14	19545.81
581.30	20372.02
581.46	19974.13
581.62	19695.61
581.78	19814.98
581.94	20315.85
582.10	20126.27
582.26	19868.81
582.42	19672.20
582.58	20854.17
582.74	20353.30
582.90	19662.84
583.06	20116.90
583.22	19932.00
583.38	20664.59
583.54	20273.72
583.70	20425.86
583.86	19798.59
584.02	19908.60
584.18	20006.90
584.34	19817.32
584.50	20739.49
584.66	20294.79
584.82	19711.99
584.98	20037.33
585.14	19278.99
585.30	18469.17
585.46	18544.06
585.62	18398.95
585.78	18679.82
585.94	18796.84
586.10	18984.09
586.26	18956.00
586.42	18927.91
586.58	19307.08
586.74	18457.46
586.90	18869.40
587.06	18534.70
587.22	18396.61
587.38	18326.39
587.54	18462.15
587.70	18469.17
587.86	18115.75
588.02	17944.89
588.18	18045.53
588.34	17355.07
588.49	17022.72
588.65	15927.35
588.81	15704.99
588.97	15658.18
589.13	15405.41
589.29	15789.25
589.45	16566.31
589.61	17104.64
589.77	17474.44
589.93	17451.03
590.08	17701.47
590.24	18274.90
590.40	17575.08
590.56	17504.87
590.72	17245.07
590.88	17149.11
591.04	17193.58
591.20	17186.55
591.35	17350.39
591.51	18090.00
591.67	17759.98
591.83	17603.17
591.99	17436.99
592.15	17458.06
592.31	17032.08
592.46	16898.67
592.62	17046.12
592.78	17556.36
592.94	16959.52
593.10	17083.57
593.26	17289.54
593.41	17397.20
593.57	17252.09
593.73	17516.57
593.89	16758.24
594.05	16322.90
594.20	15971.82
594.36	16400.13
594.52	16800.37
594.68	16886.97
594.84	16395.45
594.99	16751.21
595.15	16807.39
595.31	16791.00
595.47	16072.46
595.62	16559.29
595.78	16582.70
595.94	16795.68
596.10	16439.92
596.25	16390.77
596.41	16767.60
596.57	17071.87
596.73	16671.64
596.88	16236.30
597.04	16613.12
597.20	15686.27
597.36	15585.63
597.51	15847.77
597.67	16386.09
597.83	15653.50
597.99	16233.96
598.14	15538.82
598.30	14998.15
598.46	14712.61
598.61	15304.76
598.77	15948.41
598.93	16472.69
599.09	16276.09
599.24	16142.67
599.40	16355.66
599.56	16320.56
599.71	16540.57
599.87	15917.98
600.03	16067.78
600.18	16411.84
600.34	16643.55
600.50	16102.89
600.65	16772.28
600.81	16229.27
600.97	16325.24
601.12	15639.46
601.28	15332.85
601.44	15466.26
601.59	15215.82
601.75	15754.15
601.91	15494.35
602.06	15328.17
602.22	15550.52
602.37	15786.91
602.53	15899.26
602.69	15290.72
602.84	15569.24
603.00	15702.65
603.16	15623.08
603.31	16072.46
603.47	15243.91
603.62	15459.24
603.78	15988.20
603.94	15625.42
604.09	16163.74
604.25	16386.09
604.40	15763.51
604.56	15985.86
604.71	15826.70
604.87	15833.72
605.03	16044.37
605.18	16107.57
605.34	15323.49
605.49	15414.77
605.65	15786.91
605.80	15330.51
605.96	14963.04
606.12	14944.32
606.27	14787.50
606.43	15241.57
606.58	15211.14
606.74	15105.82
606.89	15260.29
607.05	15279.02
607.20	15222.84
607.36	15403.07
607.51	15192.42
607.67	15192.42
607.82	15234.55
607.98	15197.10
608.13	15000.49
608.29	15183.06
608.44	14930.28
608.60	14806.23
608.75	14640.05
608.91	14469.19
609.06	14562.81
609.22	14710.27
609.37	14633.03
609.53	15035.60
609.68	14174.28
609.84	14221.10
609.99	13912.14
610.15	13568.09
610.30	13987.04
610.46	13987.04
610.61	14075.98
610.76	14698.56
610.92	15272.00
611.07	15529.45
611.23	15337.53
611.38	14675.16
611.54	14609.62
611.69	13610.22
611.84	13355.10
612.00	13509.57
612.15	13441.70
612.31	14293.65
612.46	14230.46
612.62	14359.19
612.77	14033.85
612.92	14310.04
613.08	14057.26
613.23	13479.15
613.39	13053.17
613.54	13289.56
613.69	13207.64
613.85	13432.33
614.00	13383.18
614.15	13078.91
614.31	13490.85
614.46	13387.86
614.62	13380.84
614.77	13633.62
614.92	13500.21
615.08	13497.87
615.23	13603.19
615.38	13731.92
615.54	12870.61
615.69	12793.37
615.84	12126.32
616.00	12472.71
616.15	12739.54
616.30	12692.73
616.46	12283.13
616.61	12812.09
616.76	12549.95
616.92	12964.23
617.07	13146.79
617.22	13315.31
617.37	13245.09
617.53	12924.44
617.68	13004.02
617.83	12795.71
617.99	12886.99
618.14	12872.95
618.29	12908.05
618.45	12840.18
618.60	12308.88
618.75	12210.57
618.90	12655.28
619.06	12564.00
619.21	13046.15
619.36	12943.16
619.51	12989.97
619.67	13029.76
619.82	12599.10
619.97	13116.36
620.12	12692.73
620.28	12636.55
620.43	12643.57
620.58	12727.83
620.73	12718.47
620.89	12805.07
621.04	13053.17
621.19	12552.29
621.34	12468.03
621.49	12414.20
621.65	12379.09
621.80	11939.07
621.95	12255.04
622.10	12217.60
622.25	11719.06
622.41	11922.69
622.56	11896.94
622.71	12149.72
622.86	12191.85
623.01	12451.65
623.16	12313.56
623.32	12320.58
623.47	11892.26
623.62	11950.78
623.77	11798.64
623.92	11866.52
624.07	11585.65
624.23	11873.54
624.38	11623.10
624.53	11854.81
624.68	11641.82
624.83	11499.05
624.98	10883.49
625.13	11323.51
625.29	11267.34
625.44	11524.80
625.59	11293.08
625.74	11592.67
625.89	11265.00
626.04	11192.44
626.19	11274.36
626.34	11133.93
626.49	10846.04
626.65	10892.85
626.80	11236.91
626.95	11068.39
627.10	11213.51
627.25	10970.09
627.40	10483.26
627.55	10518.37
627.70	10616.67
627.85	10176.65
628.00	10775.83
628.15	10628.37
628.30	10537.09
628.45	10452.83
628.60	10359.21
628.76	10712.63
628.91	10668.16
629.06	10537.09
629.21	10527.73
629.36	10696.25
629.51	10303.04
629.66	10597.95
629.81	10719.65
629.96	10684.55
630.11	10569.86
630.26	10279.63
630.41	10420.06
630.56	10178.99
630.71	10314.74
630.86	9961.32
631.01	10092.39
631.16	10178.99
631.31	9753.01
631.46	9802.16
631.61	10195.37
631.76	10651.78
631.91	10555.82
632.06	10527.73
632.21	10434.11
632.36	11073.07
632.51	10766.46
632.66	11094.14
632.81	10696.25
632.96	10235.16
633.10	10265.59
633.25	10349.85
633.40	10738.38
633.55	10286.65
633.70	9797.48
633.85	10001.11
634.00	9949.62
634.15	9753.01
634.30	9738.97
634.45	9820.89
634.60	10279.63
634.75	10256.23
634.90	10193.03
635.05	10274.95
635.19	10047.92
635.34	10363.89
635.49	10244.52
635.64	9998.77
635.79	9689.82
635.94	9387.89
636.09	9437.04
636.24	9692.16
636.39	9549.39
636.53	9940.26
636.68	10008.13
636.83	10005.79
636.98	10193.03
637.13	9982.38
637.28	10036.22
637.43	10087.71
637.57	9942.60
637.72	9942.60
637.87	9745.99
638.02	9511.94
638.17	9797.48
638.32	10368.57
638.46	9408.95
638.61	9188.94
638.76	9444.06
638.91	9385.55
639.06	9825.57
639.20	9624.28
639.35	9687.48
639.50	9673.43
639.65	9317.67
639.80	9598.54
639.94	9329.38
640.09	9277.88
640.24	9563.43
640.39	9394.91
640.54	9659.39
640.68	9462.79
640.83	9568.11
640.98	9582.15
641.13	9114.05
641.27	9055.53
641.42	8659.98
641.57	8842.54
641.72	8896.38
641.86	8966.59
642.01	9142.13
642.16	9537.68
642.31	9284.91
642.45	9577.47
642.60	9350.44
642.75	9238.09
642.90	9226.39
643.04	9495.55
643.19	9521.30
643.34	9329.38
643.48	8730.20
643.63	8535.93
643.78	8578.06
643.93	9004.04
644.07	8697.43
644.22	8959.57
644.37	8959.57
644.51	9092.98
644.66	8634.24
644.81	8657.64
644.95	8725.52
645.10	8826.16
645.25	8716.16
645.39	8699.77
645.54	8554.66
645.69	8463.38
645.83	8322.94
645.98	8191.88
646.13	8610.83
646.27	8688.07
646.42	8650.62
646.57	8613.17
646.71	8690.41
646.86	8463.38
647.00	8203.58
647.15	8283.16
647.30	8507.85
647.44	8486.78
647.59	8346.35
647.74	7964.84
647.88	8102.93
648.03	8039.74
648.17	8009.31
648.32	8374.44
648.47	8318.26
648.61	8018.68
648.76	7597.38
648.90	7433.54
649.05	7368.01
649.20	7180.76
649.34	7234.60
649.49	7379.71
649.63	7632.49
649.78	7646.53
649.92	7955.48
650.07	8212.94
650.21	8205.92
650.36	8215.28
650.51	7894.63
650.65	8182.51
650.80	8037.40
650.94	7829.09
651.09	7641.85
651.23	7875.90
651.38	8269.11
651.52	8091.23
651.67	7817.39
651.81	7906.33
651.96	8198.90
652.10	7782.28
652.25	7847.82
652.39	7880.58
652.54	7934.42
652.68	7803.35
652.83	7852.50
652.97	8107.62
653.12	8042.08
653.26	8084.21
653.41	7812.71
653.55	7810.37
653.70	8032.72
653.84	7892.29
653.99	7875.90
654.13	8152.09
654.27	7662.91
654.42	7602.06
654.56	7349.28
654.71	7260.34
654.85	7396.09
655.00	7419.50
655.14	7375.03
655.29	7042.67
655.43	7005.22
655.57	6722.02
655.72	6211.78
655.86	5598.56
656.01	5692.18
656.15	5603.24
656.30	6377.96
656.44	6504.35
656.58	6604.99
656.73	6745.42
656.87	6897.56
657.01	6703.29
657.16	6738.40
657.30	7033.31
657.45	7190.13
657.59	7073.10
657.73	7356.30
657.88	7295.45
658.02	7442.90
658.16	7349.28
658.31	7363.33
658.45	7531.84
658.60	7407.80
658.74	7372.69
658.88	7377.37
659.03	7363.33
659.17	7396.09
659.31	7325.88
659.46	7239.28
659.60	7276.73
659.74	7417.16
659.89	7288.43
660.03	7351.62
660.17	7122.25
660.32	7145.66
660.46	7115.23
660.60	7150.34
660.74	6829.68
660.89	6911.60
661.03	6986.50
661.17	6918.62
661.32	6761.81
661.46	7070.76
661.60	6960.75
661.74	7288.43
661.89	6937.35
662.03	7021.61
662.17	6881.18
662.31	7115.23
662.46	7342.26
662.60	6829.68
662.74	6855.43
662.88	6738.40
663.03	6899.90
663.17	6965.43
663.31	6525.41
663.45	6513.71
663.60	6827.34
663.74	6462.22
663.88	6567.54
664.02	6546.48
664.17	6438.81
664.31	6375.62
664.45	6555.84
664.59	6352.21
664.73	6352.21
664.88	6408.39
665.02	6492.65
665.16	6429.45
665.30	6614.35
665.44	6516.05
665.59	6750.10
665.73	6640.10
665.87	6740.74
666.01	6628.40
666.15	6679.89
666.29	6417.75
666.44	6211.78
666.58	6368.60
666.72	6600.31
666.86	6375.62
667.00	6317.11
667.14	6544.14
667.28	6136.88
667.43	6164.97
667.57	6092.41
667.71	6169.65
667.85	6232.85
667.99	6455.20
668.13	6370.94
668.27	6319.45
668.41	5991.77
668.56	6265.61
668.70	6122.84
668.84	5942.62
668.98	5760.06
669.12	6061.99
669.26	6029.22
669.40	6129.86
669.54	5769.42
669.68	5771.76
669.82	5687.50
669.96	5762.40
670.10	5591.54
670.25	5664.10
670.39	5657.07
670.53	5589.20
670.67	5605.58
670.81	6005.81
670.95	6008.16
671.09	5858.36
671.23	5551.75
671.37	5406.64
671.51	5561.11
671.65	5703.89
671.79	5621.97
671.93	5673.46
672.07	5596.22
672.21	5661.76
672.35	5589.20
672.49	5624.31
672.63	5731.97
672.77	5612.60
672.91	5631.33
673.05	5530.69
673.19	5451.11
673.33	5444.09
673.47	5364.51
673.61	5446.43
673.75	5214.71
673.89	5268.55
674.03	5334.08
674.17	5706.23
674.31	5589.20
674.45	5584.52
674.59	5434.72
674.73	5497.92
674.87	5399.62
675.01	5254.50
675.15	5394.93
675.29	5263.86
675.43	5088.32
675.56	5128.11
675.70	5322.38
675.84	5160.88
675.98	4961.94
676.12	5018.11
676.26	5195.99
676.40	5069.60
676.54	5280.25
676.68	5090.67
676.82	4779.37
676.96	4753.63
677.10	4987.68
677.23	4887.04
677.37	5001.72
677.51	5053.22
677.65	5013.43
677.79	4933.85
677.93	5020.45
678.07	5261.52
678.21	4856.61
678.34	4954.91
678.48	4985.34
678.62	4999.38
678.76	4975.98
678.90	4793.42
679.04	4828.53
679.18	4903.42
679.31	4760.65
679.45	4798.10
679.59	4882.36
679.73	4725.54
679.87	4528.94
680.00	4428.29
680.14	4552.34
680.28	4535.96
680.42	4444.68
680.56	4315.95
680.70	4348.72
680.83	4227.01
680.97	4318.29
681.11	4315.95
681.25	4428.29
681.39	4271.48
681.52	4063.17
681.66	4100.62
681.80	4386.16
681.94	4119.34
682.07	4259.78
682.21	4252.75
682.35	4533.62
682.49	4266.80
682.62	4381.48
682.76	4409.57
682.90	4184.88
683.04	4248.07
683.17	4177.86
683.31	4018.70
683.45	4016.36
683.59	4084.23
683.72	4205.94
683.86	3929.76
684.00	3878.27
684.13	3922.74
684.27	3925.08
684.41	3955.51
684.55	3913.38
684.68	3765.92
684.82	3871.25
684.96	3679.32
685.09	3648.90
685.23	3574.00
685.37	3681.66
685.50	3758.90
685.64	3899.33
685.78	3480.38
685.91	3494.42
686.05	3588.04
686.19	3433.57
686.32	3300.16
686.46	2892.90
686.60	2523.10
686.73	2380.32
686.87	2361.60
687.01	2188.40
687.14	2298.41
687.28	2307.77
687.42	2602.68
687.55	2942.05
687.69	2871.84
687.82	2913.97
687.96	3026.31
688.10	2928.01
688.23	2953.76
688.37	2878.86
688.50	2944.39
688.64	2810.98
688.78	2654.17
688.91	2511.39
689.05	2640.12
689.18	2698.64
689.32	2567.57
689.46	2628.42
689.59	2644.81
689.73	2574.59
689.86	2558.21
690.00	2668.21
690.13	2827.37
690.27	2862.48
690.41	2815.66
690.54	2750.13
690.68	2829.71
690.81	2815.66
690.95	2839.07
691.08	2895.24
691.22	3080.14
691.35	2974.82
691.49	2906.95
691.62	2848.43
691.76	2766.51
691.89	2843.75
692.03	2939.71
692.16	2794.60
692.30	2920.99
692.43	2834.39
692.57	2574.59
692.70	2733.75
692.84	2726.72
692.97	2569.91
693.11	2626.08
693.24	2551.18
693.38	2590.97
693.51	2462.24
693.65	2562.89
693.78	2352.24
693.92	2520.76
694.05	2373.30
694.19	2396.71
694.32	2509.05
694.45	2541.82
694.59	2509.05
694.72	2520.76
694.86	2663.53
694.99	2583.95
695.13	2551.18
695.26	2689.28
695.39	2586.29
695.53	2513.74
695.66	2354.58
695.80	2296.07
695.93	2483.31
696.07	2392.03
696.20	2375.64
696.33	2387.35
696.47	2480.97
696.60	2574.59
696.73	2492.67
696.87	2567.57
697.00	2457.56
697.14	2427.14
697.27	2380.32
697.40	2267.98
697.54	2235.21
697.67	2153.29
697.80	2303.09
697.94	2244.57
698.07	2200.10
698.21	2195.42
698.34	2221.17
698.47	2108.82
698.61	2078.40
698.74	2122.87
698.87	2289.04
699.01	2314.79
699.14	2099.46
699.27	2111.16
699.40	2132.23
699.54	2094.78
699.67	2087.76
699.80	2059.67
699.94	2167.34
700.07	2064.35
700.20	2066.69
700.34	1959.03
700.47	1944.99
700.60	1989.46
700.73	1959.03
700.87	1935.62
701.00	1919.24
701.13	1792.85
701.26	1865.41
701.40	1827.96
701.53	1874.77
701.66	1886.47
701.79	1769.44
701.93	1762.42
702.06	1842.00
702.19	1797.53
702.32	1842.00
702.46	1774.13
702.59	1724.97
702.72	1708.59
702.85	1652.42
702.99	1701.57
703.12	1813.92
703.25	1834.98
703.38	1732.00
703.51	1638.38
703.65	1650.08
703.78	1769.44
703.91	1797.53
704.04	1799.87
704.17	1825.62
704.31	1675.82
704.44	1687.53
704.57	1790.51
704.70	1767.10
704.83	1654.76
704.96	1631.35
705.10	1741.36
705.23	1657.10
>>>>>End Processed Spectral Data<<<<<
