SpectraSuite Data File
++++++++++++++++++++++++++++++++++++
Date: Mon Oct 07 14:54:58 GMT-05:00 2013
User: price-jones
Dark Spectrum Present: No
Reference Spectrum Present: No
Number of Sampled Component Spectra: 1
Spectrometers: USB2+H05261
Integration Time (usec): 10000 (USB2+H05261)
Spectra Averaged: 1 (USB2+H05261)
Boxcar Smoothing: 0 (USB2+H05261)
Correct for Electrical Dark: No (USB2+H05261)
Strobe/Lamp Enabled: No (USB2+H05261)
Correct for Detector Non-linearity: No (USB2+H05261)
Correct for Stray Light: No (USB2+H05261)
Number of Pixels in Processed Spectrum: 2048
>>>>>Begin Processed Spectral Data<<<<<
365.73	0.00
365.92	0.00
366.12	0.00
366.32	0.00
366.52	0.00
366.72	0.00
366.91	0.00
367.11	0.00
367.31	0.00
367.51	0.00
367.70	0.00
367.90	0.00
368.10	0.00
368.30	0.00
368.49	0.00
368.69	0.00
368.89	0.00
369.09	0.00
369.28	0.00
369.48	0.00
369.68	0.00
369.87	0.00
370.07	0.00
370.27	0.00
370.47	133.41
370.66	1425.39
370.86	1792.85
371.06	1926.26
371.25	1891.15
371.45	1682.85
371.65	1432.41
371.84	1462.83
372.04	1572.84
372.24	1724.97
372.44	1776.47
372.63	1661.78
372.83	1530.71
373.03	1416.02
373.22	1411.34
373.42	1516.67
373.62	1682.85
373.81	1769.44
374.01	1575.18
374.21	1563.48
374.40	1439.43
374.60	1556.46
374.79	1769.44
374.99	2047.97
375.19	2218.83
375.38	2076.06
375.58	2090.10
375.78	2094.78
375.97	2108.82
376.17	2047.97
376.37	2099.46
376.56	2225.85
376.76	2335.85
376.95	2499.69
377.15	2628.42
377.35	2864.82
377.54	2834.39
377.74	3000.57
377.93	2979.50
378.13	2799.28
378.33	2630.76
378.52	2569.91
378.72	2396.71
378.91	2394.37
379.11	2207.13
379.31	2143.93
379.50	2256.28
379.70	2380.32
379.89	2708.00
380.09	2736.09
380.28	2946.73
380.48	2932.69
380.68	2736.09
380.87	2642.46
381.07	2476.29
381.26	2221.17
381.46	2113.50
381.65	2031.58
381.85	2010.52
382.04	1940.30
382.24	1818.60
382.43	1727.32
382.63	1668.80
382.83	1675.82
383.02	1671.14
383.22	1680.50
383.41	1661.78
383.61	1886.47
383.80	2176.70
384.00	2366.28
384.19	2796.94
384.39	2710.34
384.58	2928.01
384.78	2846.09
384.97	2768.85
385.17	2555.86
385.36	2525.44
385.56	2310.11
385.75	2487.99
385.95	2757.15
386.14	2981.84
386.34	2895.24
386.53	2808.64
386.72	2504.37
386.92	2733.75
387.11	2871.84
387.31	3000.57
387.50	2913.97
387.70	2825.03
387.89	2651.83
388.09	2810.98
388.28	2827.37
388.48	2937.37
388.67	3185.47
388.86	3529.53
389.06	3662.94
389.25	3838.48
389.45	3913.38
389.64	3859.54
389.84	3974.23
390.03	3719.11
390.22	3796.35
390.42	4025.72
390.61	4241.05
390.81	4327.65
391.00	4470.42
391.19	4451.70
391.39	4250.41
391.58	4035.08
391.78	3803.37
391.97	3566.98
392.16	3297.81
392.36	2904.60
392.55	2338.20
392.75	1689.87
392.94	1434.75
393.13	1659.44
393.33	1977.75
393.52	2558.21
393.71	3030.99
393.91	3550.59
394.10	3801.03
394.29	4245.73
394.49	4526.60
394.68	4819.16
394.88	4816.82
395.07	4678.73
395.26	5004.07
395.46	4566.39
395.65	4224.67
395.84	3515.48
396.04	2981.84
396.23	2263.30
396.42	2087.76
396.62	2062.01
396.81	2726.72
397.00	3393.78
397.19	4290.20
397.39	4737.24
397.58	5376.21
397.77	5806.87
397.97	5891.13
398.16	5973.05
398.35	6218.80
398.55	6499.67
398.74	6726.70
398.93	6555.84
399.12	6579.25
399.32	6518.39
399.51	6590.95
399.70	7000.54
399.90	6853.09
400.09	7002.88
400.28	6942.03
400.47	6988.84
400.67	7377.37
400.86	7459.29
401.05	7461.63
401.24	7424.18
401.44	7651.21
401.63	7747.17
401.82	7639.51
402.01	7566.95
402.21	7784.62
402.40	7646.53
402.59	7267.36
402.78	7192.47
402.97	7012.24
403.17	7480.35
403.36	7786.96
403.55	7964.84
403.74	7838.45
403.93	7328.22
404.13	7047.35
404.32	7049.69
404.51	7412.48
404.70	7971.86
404.89	7817.39
405.09	7723.77
405.28	7613.76
405.47	7482.69
405.66	7559.93
405.85	7295.45
406.05	6986.50
406.24	7101.19
406.43	7564.61
406.62	7712.07
406.81	7602.06
407.00	7492.05
407.20	7183.10
407.39	7623.12
407.58	7978.89
407.77	8339.33
407.96	8334.65
408.15	8634.24
408.34	8678.71
408.54	8851.91
408.73	8884.67
408.92	8786.37
409.11	8215.28
409.30	8023.36
409.49	7515.46
409.68	7136.29
409.87	7330.56
410.07	7747.17
410.26	8021.02
410.45	8528.91
410.64	8879.99
410.83	9191.28
411.02	9193.62
411.21	9701.52
411.40	9533.00
411.59	9523.64
411.78	9366.82
411.98	9338.74
412.17	9240.44
412.36	9193.62
412.55	9097.66
412.74	8868.29
412.93	8854.25
413.12	9074.26
413.31	9607.90
413.50	9729.61
413.69	9914.51
413.88	9467.47
414.07	9481.51
414.26	9872.38
414.45	9804.50
414.64	9657.05
414.83	9816.21
415.02	9720.24
415.22	9781.10
415.41	9954.30
415.60	10171.97
415.79	10569.86
415.98	11026.26
416.17	10513.69
416.36	10094.73
416.55	10319.42
416.74	9912.17
416.93	9650.03
417.12	10076.01
417.31	10214.10
417.50	10162.61
417.69	10272.61
417.88	10429.43
418.07	10003.45
418.26	10134.52
418.45	10443.47
418.64	10808.59
418.83	10953.71
419.02	10719.65
419.21	10504.32
419.39	10195.37
419.58	9710.88
419.77	9848.97
419.96	10340.49
420.15	10923.28
420.34	11625.44
420.53	11702.68
420.72	11971.84
420.91	11569.27
421.10	11344.58
421.29	11360.96
421.48	10986.47
421.67	11309.47
421.86	10813.28
422.05	10068.98
422.24	9261.50
422.43	9694.50
422.61	10698.59
422.80	11026.26
422.99	10754.76
423.18	10424.75
423.37	10518.37
423.56	10724.33
423.75	10956.05
423.94	11250.96
424.13	10399.00
424.32	10415.38
424.50	10413.04
424.69	10513.69
424.88	10485.60
425.07	10422.41
425.26	10324.10
425.45	10090.05
425.64	10277.29
425.83	10483.26
426.01	10988.82
426.20	10995.84
426.39	10642.42
426.58	9753.01
426.77	9249.80
426.96	9025.11
427.15	9418.32
427.33	10345.17
427.52	10267.93
427.71	10487.94
427.90	10193.03
428.09	10202.40
428.28	9891.10
428.46	9614.92
428.65	9596.20
428.84	9853.66
429.03	9991.75
429.22	9226.39
429.40	8702.11
429.59	7892.29
429.78	7070.76
429.97	7033.31
430.16	7391.41
430.34	7042.67
430.53	7293.11
430.72	7815.05
430.91	8870.63
431.10	10176.65
431.28	11693.32
431.47	12484.42
431.66	12168.45
431.85	10960.73
432.03	10127.50
432.22	10420.06
432.41	10977.11
432.60	11702.68
432.79	12109.93
432.97	12222.28
433.16	11716.72
433.35	10609.65
433.54	9521.30
433.72	9479.17
433.91	9984.73
434.10	11077.76
434.28	11688.64
434.47	12072.48
434.66	11541.18
434.85	11681.61
435.03	11765.87
435.22	11761.19
435.41	12241.00
435.59	12461.01
435.78	12833.16
435.97	12870.61
436.16	12964.23
436.34	12917.42
436.53	12456.33
436.72	12610.81
436.90	11712.04
437.09	11929.71
437.28	11796.30
437.46	12325.26
437.65	12025.67
437.84	10839.02
438.02	10396.66
438.21	10597.95
438.40	10904.56
438.58	11662.89
438.77	12067.80
438.96	12194.19
439.14	12989.97
439.33	12837.84
439.52	13242.75
439.70	12744.22
439.89	12184.83
440.08	12107.59
440.26	12315.90
440.45	13221.69
440.63	13998.74
440.82	14303.01
441.01	13848.95
441.19	13865.33
441.38	14326.42
441.57	14415.36
441.75	14527.71
441.94	15021.56
442.12	14750.06
442.31	15213.48
442.50	15356.25
442.68	14719.63
442.87	14738.35
443.05	14590.90
443.24	15037.94
443.43	15049.64
443.61	14972.41
443.80	15466.26
443.98	14949.00
444.17	15012.20
444.35	15730.74
444.54	15861.81
444.73	15845.43
444.91	14558.13
445.10	14087.68
445.28	13591.49
445.47	13570.43
445.65	13650.00
445.84	14064.28
446.02	14380.25
446.21	14736.01
446.39	14757.08
446.58	15140.93
446.77	15555.20
446.95	15627.76
447.14	15747.12
447.32	16161.40
447.51	15555.20
447.69	14682.18
447.88	15143.27
448.06	14836.66
448.25	15049.64
448.43	15187.74
448.62	14932.62
448.80	14736.01
448.99	15152.63
449.17	15513.07
449.36	15531.80
449.54	15782.23
449.73	16145.02
449.91	16236.30
450.10	16908.03
450.28	16561.63
450.46	16505.46
450.65	16652.91
450.83	16578.01
451.02	16219.91
451.20	16088.84
451.39	15822.02
451.57	15995.22
451.76	16116.93
451.94	15852.45
452.13	15660.52
452.31	14623.67
452.49	14068.96
452.68	14593.24
452.86	14485.58
453.05	14731.33
453.23	15328.17
453.42	15845.43
453.60	15796.28
453.78	16147.36
453.97	15459.24
454.15	15712.02
454.34	15445.20
454.52	15527.11
454.70	15279.02
454.89	15077.73
455.07	15314.13
455.26	15744.78
455.44	15906.28
455.62	16489.07
455.81	16673.98
455.99	16025.65
456.17	16416.52
456.36	16386.09
456.54	16961.86
456.73	16966.54
456.91	17078.89
457.09	17018.04
457.28	16781.64
457.46	16578.01
457.64	16819.09
457.83	15866.49
458.01	15730.74
458.19	16355.66
458.38	16238.64
458.56	16423.54
458.74	16666.95
458.93	16561.63
459.11	16325.24
459.29	15747.12
459.48	16418.86
459.66	15997.56
459.84	15983.52
460.03	16819.09
460.21	16470.35
460.39	16994.63
460.57	17104.64
460.76	17355.07
460.94	17116.34
461.12	17116.34
461.31	16980.59
461.49	17408.90
461.67	17308.26
461.85	17926.16
462.04	17502.53
462.22	17809.14
462.40	17762.33
462.59	17153.79
462.77	17060.16
462.95	17453.37
463.13	17703.81
463.32	17221.66
463.50	16926.75
463.68	17029.74
463.86	17001.65
464.05	17069.53
464.23	16563.97
464.41	16100.55
464.59	15997.56
464.78	16746.53
464.96	16685.68
465.14	16411.84
465.32	17411.25
465.50	17460.40
465.69	17811.48
465.87	17266.13
466.05	16554.61
466.23	16004.58
466.41	16107.57
466.60	16645.89
466.78	16664.61
466.96	16255.02
467.14	16119.27
467.32	17125.70
467.51	16713.77
467.69	15936.71
467.87	16262.04
468.05	16629.51
468.23	16662.27
468.41	16711.42
468.60	16582.70
468.78	16716.11
468.96	16776.96
469.14	17172.51
469.32	17366.78
469.50	16542.91
469.69	16582.70
469.87	15906.28
470.05	16367.37
470.23	16229.27
470.41	16980.59
470.59	16549.93
470.77	16685.68
470.95	16702.06
471.14	17081.23
471.32	17420.61
471.50	18602.58
471.68	18302.99
471.86	18583.85
472.04	17968.29
472.22	18071.28
472.40	17245.07
472.58	17661.68
472.77	17219.32
472.95	17848.93
473.13	17832.54
473.31	17434.65
473.49	17902.76
473.67	17926.16
473.85	17635.94
474.03	17675.73
474.21	18176.60
474.39	18349.80
474.57	18331.08
474.75	18640.03
474.93	18860.04
475.12	18209.37
475.30	18579.17
475.48	18115.75
475.66	18656.41
475.84	18288.95
476.02	18387.25
476.20	18038.51
476.38	18410.65
476.56	18827.27
476.74	19009.83
476.92	19358.57
477.10	19236.86
477.28	20205.84
477.46	19946.05
477.64	20156.69
477.82	20034.99
478.00	20372.02
478.18	20149.67
478.36	19880.51
478.54	19873.49
478.72	20528.84
478.90	21355.05
479.08	21039.08
479.26	21046.10
479.44	20393.09
479.62	21202.91
479.80	21539.95
479.98	21345.69
480.16	21621.87
480.34	21633.57
480.52	21392.50
480.70	21324.62
480.88	21617.19
481.06	22345.09
481.24	22735.96
481.41	23274.29
481.59	23199.39
481.77	22932.57
481.95	22225.73
482.13	23058.96
482.31	22157.85
482.49	22998.10
482.67	22309.99
482.85	22932.57
483.03	22916.19
483.21	23206.41
483.39	23414.72
483.57	23309.40
483.74	22827.24
483.92	22838.95
484.10	23538.77
484.28	23737.71
484.46	23632.39
484.64	23396.00
484.82	23138.54
485.00	23192.37
485.18	22630.64
485.35	21745.92
485.53	19197.07
485.71	18200.01
485.89	18665.77
486.07	19398.36
486.25	21319.94
486.43	22066.57
486.61	21771.66
486.78	21862.94
486.96	22644.68
487.14	23489.62
487.32	24240.93
487.50	24666.91
487.68	24140.29
487.85	25785.68
488.03	25256.72
488.21	24535.84
488.39	23789.20
488.57	24112.20
488.75	24507.75
488.92	25799.73
489.10	27435.76
489.28	27644.07
489.46	28369.63
489.64	28889.23
489.81	27950.68
489.99	27735.35
490.17	28613.05
490.35	28727.74
490.53	27777.48
490.70	27346.82
490.88	28016.21
491.06	28814.34
491.24	28531.13
491.41	26934.88
491.59	26157.83
491.77	25685.04
491.95	26525.29
492.13	27386.61
492.30	28166.01
492.48	29600.76
492.66	29996.31
492.84	28996.90
493.01	29188.82
493.19	27611.30
493.37	27475.55
493.54	27997.49
493.72	28898.59
493.90	29909.71
494.08	30312.28
494.25	31550.42
494.43	31349.14
494.61	32142.58
494.79	31864.05
494.96	31749.37
495.14	30675.06
495.32	29200.52
495.49	29448.62
495.67	30286.53
495.85	32311.10
496.02	32074.70
496.20	32240.88
496.38	31924.91
496.55	31754.05
496.73	32196.41
496.91	31700.22
497.09	32283.01
497.26	32187.05
497.44	32811.97
497.62	31508.29
497.79	30742.94
497.97	29589.05
498.14	29757.57
498.32	31138.49
498.50	31339.77
498.67	32671.54
498.85	31894.48
499.03	31498.93
499.20	32374.29
499.38	32055.98
499.56	31302.32
499.73	31463.82
499.91	30771.02
500.08	30347.39
500.26	30078.22
500.44	30801.45
500.61	31428.71
500.79	30335.68
500.97	30190.57
501.14	30115.67
501.32	29401.81
501.49	29439.26
501.67	30054.82
501.84	31803.20
502.02	31147.85
502.20	31676.81
502.37	32217.47
502.55	32287.69
502.72	32697.28
502.90	33256.67
503.07	32322.80
503.25	32451.53
503.43	31337.43
503.60	30094.61
503.78	29722.46
503.95	31012.10
504.13	31557.44
504.30	33177.09
504.48	33415.83
504.65	32807.29
504.83	32460.89
505.01	32666.86
505.18	32919.63
505.36	34380.13
505.53	34059.48
505.71	34483.11
505.88	34550.99
506.06	34213.95
506.23	33268.37
506.41	32716.01
506.58	33242.63
506.76	32636.43
506.93	33071.77
507.11	31409.99
507.28	32659.84
507.46	32165.98
507.63	31213.38
507.81	30955.93
507.98	31323.39
508.16	32657.49
508.33	33532.86
508.50	32673.88
508.68	34113.31
508.85	34483.11
509.03	34057.14
509.20	33249.65
509.38	32519.40
509.55	32163.64
509.73	33380.72
509.90	33720.10
510.08	32418.76
510.25	32236.20
510.42	32364.93
510.60	32533.45
510.77	33546.90
510.95	34375.45
511.12	32921.98
511.30	33907.34
511.47	35082.29
511.64	34110.97
511.82	34029.05
511.99	33195.82
512.17	33350.29
512.34	32491.32
512.51	32137.90
512.69	32634.09
512.86	32858.78
513.04	34045.43
513.21	33373.70
513.38	33022.62
513.56	32257.26
513.73	31412.33
513.90	30843.58
514.08	31728.30
514.25	32547.49
514.43	32992.19
514.60	32959.42
514.77	32620.05
514.95	32732.39
515.12	32603.66
515.29	33497.75
515.47	33780.95
515.64	33340.93
515.81	34195.23
515.99	32952.40
516.16	30352.07
516.33	28098.13
516.51	27087.02
516.68	26295.92
516.85	25443.96
517.03	26281.88
517.20	29008.60
517.37	31346.79
517.54	31676.81
517.72	30050.14
517.89	28570.92
518.06	27323.41
518.24	28367.29
518.41	29935.45
518.58	30588.46
518.75	30958.27
518.93	31445.10
519.10	31023.80
519.27	31452.12
519.45	32077.04
519.62	33149.01
519.79	33439.23
519.96	33259.01
520.14	32070.02
520.31	31400.63
520.48	31459.14
520.65	32002.14
520.83	32503.02
521.00	32568.55
521.17	31831.29
521.34	32032.57
521.52	32273.65
521.69	33432.21
521.86	33322.21
522.03	32161.30
522.20	31096.36
522.38	29982.26
522.55	30590.80
522.72	31527.02
522.89	30752.30
523.07	31405.31
523.24	32645.79
523.41	33399.44
523.58	33078.79
523.75	32617.71
523.92	34054.79
524.10	33762.23
524.27	33977.56
524.44	33479.02
524.61	33970.54
524.78	34061.82
524.96	33701.37
525.13	33546.90
525.30	34099.26
525.47	34644.61
525.64	34029.05
525.81	32180.03
525.98	29961.20
526.16	28713.69
526.33	28463.25
526.50	28870.51
526.67	28556.88
526.84	28685.61
527.01	30157.80
527.18	31342.11
527.36	31433.39
527.53	33404.13
527.70	32580.26
527.87	31215.72
528.04	31367.86
528.21	32259.60
528.38	33450.94
528.55	33759.89
528.72	34057.14
528.89	33441.57
529.07	34249.06
529.24	31892.14
529.41	32210.45
529.58	31679.15
529.75	32048.96
529.92	32322.80
530.09	32514.72
530.26	32711.33
530.43	31674.47
530.60	33488.38
530.77	33738.82
530.94	34541.63
531.11	33158.37
531.28	33118.58
531.46	32968.79
531.63	33713.08
531.80	33731.80
531.97	32301.73
532.14	30710.17
532.31	29003.92
532.48	28870.51
532.65	28912.64
532.82	30139.08
532.99	31426.37
533.16	32943.04
533.33	34244.38
533.50	32891.55
533.67	32491.32
533.84	32051.30
534.01	31578.51
534.18	32346.20
534.35	31882.78
534.52	32032.57
534.69	32360.25
534.86	31583.19
535.03	32692.60
535.20	33036.66
535.37	33172.41
535.54	33362.00
535.71	32582.60
535.88	32168.32
536.05	31782.13
536.22	31126.78
536.38	30944.22
536.55	31295.30
536.72	30595.48
536.89	30948.90
537.06	31431.05
537.23	32528.77
537.40	31833.63
537.57	32126.19
537.74	31412.33
537.91	31255.51
538.08	32566.21
538.25	32875.16
538.42	31737.66
538.59	31559.78
538.75	32247.90
538.92	31782.13
539.09	30515.90
539.26	29706.08
539.43	29247.33
539.60	29394.79
539.77	29930.77
539.94	29060.09
540.11	28919.66
540.28	27800.88
540.44	28978.17
540.61	28886.89
540.78	29518.84
540.95	30883.37
541.12	30017.37
541.29	31325.73
541.46	30583.78
541.62	30806.13
541.79	29935.45
541.96	29502.45
542.13	30785.07
542.30	30841.24
542.47	30661.02
542.63	30558.03
542.80	29188.82
542.97	29500.11
543.14	29387.77
543.31	29434.58
543.48	31047.21
543.64	31459.14
543.81	31997.46
543.98	30995.71
544.15	30668.04
544.32	29465.00
544.48	30731.23
544.65	29326.91
544.82	29902.68
544.99	30740.60
545.16	30139.08
545.32	30490.16
545.49	31407.65
545.66	30953.58
545.83	30824.86
546.00	30118.01
546.16	29961.20
546.33	30274.83
546.50	30335.68
546.67	30511.22
546.83	29649.91
547.00	29722.46
547.17	29228.61
547.34	29228.61
547.50	29659.27
547.67	29614.80
547.84	29696.72
548.00	30394.20
548.17	28875.19
548.34	28985.19
548.51	29355.00
548.67	30859.96
548.84	30225.68
549.01	30754.64
549.18	30546.33
549.34	31175.94
549.51	30560.37
549.68	30373.13
549.84	29720.12
550.01	29869.92
550.18	28652.84
550.34	29010.94
550.51	29039.03
550.68	28835.40
550.84	27679.18
551.01	28339.21
551.18	27756.41
551.34	28020.89
551.51	28912.64
551.68	30419.94
551.84	29118.60
552.01	29404.15
552.18	28652.84
552.34	28334.53
552.51	28694.97
552.68	29553.94
552.84	28711.35
553.01	28676.24
553.18	29729.48
553.34	29811.40
553.51	29605.44
553.67	28999.24
553.84	30387.18
554.01	30178.87
554.17	28659.86
554.34	29291.80
554.51	30536.97
554.67	30043.12
554.84	28786.25
555.00	28697.31
555.17	29039.03
555.33	28786.25
555.50	29446.28
555.67	28910.30
555.83	28982.85
556.00	28479.64
556.16	28811.99
556.33	28102.81
556.50	28294.74
556.66	27253.20
556.83	26586.15
556.99	27442.78
557.16	27782.16
557.32	28121.54
557.49	28046.64
557.65	27908.55
557.82	26721.90
557.98	27213.41
558.15	28224.52
558.32	27094.04
558.48	26195.28
558.65	25811.43
558.81	25935.48
558.98	26958.29
559.14	27068.30
559.31	27714.28
559.47	26951.27
559.64	25935.48
559.80	27791.52
559.97	26906.80
560.13	27634.71
560.30	27960.04
560.46	27908.55
560.63	28505.38
560.79	28774.55
560.96	27349.16
561.12	27094.04
561.29	26710.19
561.45	26766.37
561.61	26611.89
561.78	26450.39
561.94	26806.16
562.11	26473.80
562.27	27211.07
562.44	27367.88
562.60	26593.17
562.77	27344.48
562.93	26796.79
563.10	26670.40
563.26	26565.08
563.42	25766.96
563.59	25575.03
563.75	26881.05
563.92	26321.66
564.08	26888.07
564.24	26380.18
564.41	24940.75
564.57	25661.63
564.74	25429.92
564.90	24915.00
565.07	25268.42
565.23	24496.05
565.39	24720.74
565.56	25621.84
565.72	25053.09
565.88	25661.63
566.05	25270.76
566.21	25612.48
566.38	24868.19
566.54	24692.65
566.70	24388.38
566.87	25252.04
567.03	26787.43
567.19	27084.68
567.36	25242.68
567.52	26092.29
567.68	25263.74
567.85	25439.28
568.01	25811.43
568.17	23948.36
568.34	23414.72
568.50	24004.53
568.66	24154.33
568.83	24407.11
568.99	24994.58
569.15	24950.11
569.32	25275.45
569.48	24896.28
569.64	24629.46
569.81	23548.13
569.97	24254.97
570.13	24226.89
570.30	24283.06
570.46	23349.18
570.62	22342.75
570.78	21853.58
570.95	22368.50
571.11	23384.29
571.27	23447.49
571.43	23709.63
571.60	23913.25
571.76	23906.23
571.92	24348.59
572.09	24896.28
572.25	24875.21
572.41	25167.78
572.57	24992.24
572.74	24215.18
572.90	23983.47
573.06	24074.75
573.22	23730.69
573.38	23302.37
573.55	23075.34
573.71	23847.72
573.87	24137.94
574.03	23761.12
574.20	23943.68
574.36	23718.99
574.52	23477.91
574.68	23274.29
574.84	22916.19
575.01	23384.29
575.17	23800.91
575.33	22927.89
575.49	22658.73
575.65	23234.50
575.82	22979.38
575.98	22897.46
576.14	22675.11
576.30	22998.10
576.46	22607.23
576.62	23229.82
576.79	23047.26
576.95	22368.50
577.11	22183.60
577.27	22068.91
577.43	22178.92
577.59	22387.22
577.75	22780.43
577.92	21771.66
578.08	21968.27
578.24	21624.21
578.40	21926.14
578.56	21816.13
578.72	21781.03
578.88	23112.79
579.04	22286.58
579.21	22443.40
579.37	22202.32
579.53	22068.91
579.69	21671.02
579.85	21497.82
580.01	21720.17
580.17	21923.80
580.33	21834.86
580.49	21745.92
580.65	22001.04
580.82	21958.91
580.98	22188.28
581.14	21900.39
581.30	22625.96
581.46	22384.88
581.62	21872.31
581.78	22125.08
581.94	22628.30
582.10	22122.74
582.26	22370.84
582.42	21947.20
582.58	23297.69
582.74	22878.74
582.90	22127.42
583.06	22333.39
583.22	22419.99
583.38	22806.18
583.54	22434.03
583.70	22237.43
583.86	22214.02
584.02	22560.42
584.18	22522.98
584.34	22398.93
584.50	23147.90
584.66	22656.39
584.82	22314.67
584.98	21778.68
585.14	21369.09
585.30	21193.55
585.46	20819.07
585.62	20231.59
585.78	21163.12
585.94	21223.98
586.10	21551.65
586.26	21357.39
586.42	21336.32
586.58	21329.30
586.74	20603.74
586.90	21001.63
587.06	21048.44
587.22	20613.10
587.38	21135.04
587.54	20652.89
587.70	20657.57
587.86	20666.93
588.02	20512.46
588.18	20318.19
588.34	19372.61
588.49	19274.31
588.65	18155.54
588.81	17912.12
588.97	17441.67
589.13	17446.35
589.29	17216.98
589.45	18427.04
589.61	19433.47
589.77	19674.54
589.93	19601.99
590.08	19992.86
590.24	20114.56
590.40	19625.39
590.56	19475.60
590.72	19405.38
590.88	19403.04
591.04	19534.11
591.20	19491.98
591.35	19686.25
591.51	20159.03
591.67	20079.46
591.83	19974.13
591.99	19527.09
592.15	19580.92
592.31	19056.64
592.46	19112.81
592.62	19220.48
592.78	19548.15
592.94	18974.72
593.10	19379.64
593.26	19173.67
593.41	19398.36
593.57	19950.73
593.73	19124.52
593.89	19005.15
594.05	18707.90
594.20	18333.42
594.36	18366.18
594.52	18597.90
594.68	18647.05
594.84	18714.92
594.99	18834.29
595.15	19021.53
595.31	18948.98
595.47	18317.03
595.62	18614.28
595.78	18920.89
595.94	18757.05
596.10	18623.64
596.25	18668.11
596.41	18927.91
596.57	18958.34
596.73	18511.30
596.88	18218.73
597.04	18249.16
597.20	17673.39
597.36	17535.29
597.51	17659.34
597.67	18317.03
597.83	17458.06
597.99	17731.90
598.14	17212.30
598.30	16751.21
598.46	16673.98
598.61	17334.01
598.77	17928.50
598.93	18363.84
599.09	18483.21
599.24	18441.08
599.40	17916.80
599.56	18272.56
599.71	18223.41
599.87	18221.07
600.03	18171.92
600.18	18569.81
600.34	18527.68
600.50	18211.71
600.65	18480.87
600.81	18429.38
600.97	18080.64
601.12	17378.48
601.28	17465.08
601.44	17551.68
601.59	17221.66
601.75	17486.14
601.91	17369.12
602.06	17289.54
602.22	17675.73
602.37	17830.20
602.53	17858.29
602.69	17387.84
602.84	17156.13
603.00	17947.23
603.16	18143.83
603.31	17912.12
603.47	17689.77
603.62	17497.84
603.78	18478.53
603.94	17832.54
604.09	18401.29
604.25	18410.65
604.40	17839.56
604.56	17965.95
604.71	18396.61
604.87	18274.90
605.03	18537.04
605.18	18015.10
605.34	17401.88
605.49	17282.52
605.65	17584.44
605.80	17303.58
605.96	16936.12
606.12	16964.20
606.27	16783.98
606.43	17039.10
606.58	17053.14
606.74	17205.28
606.89	17469.76
607.05	17139.74
607.20	17350.39
607.36	17584.44
607.51	17369.12
607.67	16809.73
607.82	17195.92
607.98	16989.95
608.13	16996.97
608.29	16772.28
608.44	16755.90
608.60	16510.14
608.75	16683.34
608.91	16751.21
609.06	16322.90
609.22	16301.83
609.37	16982.93
609.53	16947.82
609.68	16367.37
609.84	15971.82
609.99	15894.58
610.15	15386.68
610.30	15915.64
610.46	15871.17
610.61	16058.42
610.76	16610.78
610.92	17132.72
611.07	17600.83
611.23	17275.49
611.38	16592.06
611.54	16170.76
611.69	15421.79
611.84	15019.22
612.00	15454.56
612.15	15234.55
612.31	16259.70
612.46	16133.31
612.62	16116.93
612.77	15941.39
612.92	16088.84
613.08	15749.46
613.23	15328.17
613.39	15009.86
613.54	14817.93
613.69	15087.09
613.85	15042.62
614.00	15037.94
614.15	14909.21
614.31	15300.08
614.46	15468.60
614.62	15527.11
614.77	15379.66
614.92	15440.51
615.08	15545.84
615.23	15384.34
615.38	15279.02
615.54	15030.92
615.69	14148.54
615.84	13802.14
616.00	14406.00
616.15	14553.45
616.30	14317.06
616.46	14071.30
616.61	14441.11
616.76	14686.86
616.92	14714.95
617.07	15115.18
617.22	15283.70
617.37	14822.61
617.53	14656.43
617.68	14892.83
617.83	14654.09
617.99	14618.99
618.14	14904.53
618.29	14794.53
618.45	14513.66
618.60	13813.84
618.75	13912.14
618.90	14146.20
619.06	14270.25
619.21	14651.75
619.36	14548.77
619.51	14757.08
619.67	14457.49
619.82	14256.20
619.97	14483.24
620.12	14349.82
620.28	14588.56
620.43	14324.08
620.58	14466.85
620.73	14494.94
620.89	14829.63
621.04	14551.11
621.19	13905.12
621.34	13963.64
621.49	13881.72
621.65	14263.22
621.80	13706.18
621.95	13963.64
622.10	14328.76
622.25	13415.95
622.41	13376.16
622.56	13369.14
622.71	13846.61
622.86	14059.60
623.01	13982.36
623.16	13774.05
623.32	13752.99
623.47	13523.62
623.62	13448.72
623.77	13523.62
623.92	13720.22
624.07	13191.26
624.23	13238.07
624.38	13043.81
624.53	13650.00
624.68	13130.41
624.83	13097.64
624.98	12189.51
625.13	13004.02
625.29	12858.90
625.44	13261.48
625.59	13102.32
625.74	13446.38
625.89	12992.31
626.04	12702.09
626.19	12610.81
626.34	12575.70
626.49	12634.21
626.65	12575.70
626.80	12477.40
626.95	12901.03
627.10	12748.90
627.25	12276.11
627.40	12084.19
627.55	11920.35
627.70	12042.06
627.85	11583.31
628.00	11875.88
628.15	12229.30
628.30	12255.04
628.45	11723.74
628.60	12229.30
628.76	12259.73
628.91	12018.65
629.06	11957.80
629.21	11791.62
629.36	11969.50
629.51	12231.64
629.66	12128.66
629.81	11733.11
629.96	12081.85
630.11	11843.11
630.26	11482.67
630.41	11447.56
630.56	11279.04
630.71	11435.86
630.86	11506.07
631.01	11499.05
631.16	11817.36
631.31	11063.71
631.46	11274.36
631.61	11508.41
631.76	11948.43
631.91	11981.20
632.06	11866.52
632.21	12430.59
632.36	12678.68
632.51	12142.70
632.66	12315.90
632.81	12166.10
632.96	11751.83
633.10	11882.90
633.25	11712.04
633.40	11903.96
633.55	11679.27
633.70	11389.05
633.85	11176.06
634.00	11246.27
634.15	10923.28
634.30	10848.38
634.45	10916.26
634.60	11655.87
634.75	11527.14
634.90	11644.17
635.05	11676.93
635.19	11468.62
635.34	11770.55
635.49	11513.10
635.64	11559.91
635.79	11199.46
635.94	10775.83
636.09	10752.42
636.24	10846.04
636.39	11042.65
636.53	11269.68
636.68	11377.34
636.83	11545.86
636.98	11424.15
637.13	11124.57
637.28	11260.32
637.43	11585.65
637.57	11358.62
637.72	11295.43
637.87	10824.98
638.02	10714.97
638.17	11733.11
638.32	11222.87
638.46	10553.48
638.61	10455.17
638.76	10726.68
638.91	10490.28
639.06	11213.51
639.20	10967.75
639.35	11190.10
639.50	10998.18
639.65	10881.15
639.80	10848.38
639.94	10633.05
640.09	10686.89
640.24	10560.50
640.39	10775.83
640.54	11021.58
640.68	10878.81
640.83	10775.83
640.98	10925.62
641.13	10239.84
641.27	10141.54
641.42	10104.09
641.57	10064.30
641.72	10040.90
641.86	10178.99
642.01	10607.31
642.16	10775.83
642.31	10391.98
642.45	10731.36
642.60	10780.51
642.75	10630.71
642.90	10789.87
643.04	10801.57
643.19	10771.15
643.34	10356.87
643.48	9816.21
643.63	9783.44
643.78	9685.14
643.93	10113.45
644.07	10003.45
644.22	10251.55
644.37	10389.64
644.51	10307.72
644.66	9902.81
644.81	9554.07
644.95	10141.54
645.10	10094.73
645.25	10047.92
645.39	9935.57
645.54	9589.17
645.69	9371.50
645.83	9327.03
645.98	9249.80
646.13	9809.19
646.27	9851.31
646.42	9841.95
646.57	9781.10
646.71	9951.96
646.86	9722.59
647.00	9596.20
647.15	9371.50
647.30	9675.77
647.44	9848.97
647.59	9584.49
647.74	9280.22
647.88	9266.18
648.03	9179.58
648.17	9240.44
648.32	9437.04
648.47	9186.60
648.61	9008.72
648.76	8872.97
648.90	8439.97
649.05	8112.30
649.20	8250.39
649.34	8444.65
649.49	8283.16
649.63	8564.02
649.78	8847.22
649.92	9022.77
650.07	9334.06
650.21	9165.54
650.36	9107.02
650.51	8922.12
650.65	9202.99
650.80	9104.68
650.94	8842.54
651.09	8875.31
651.23	8767.65
651.38	9254.48
651.52	9109.36
651.67	8896.38
651.81	9415.98
651.96	9240.44
652.10	9128.09
652.25	8746.58
652.39	8961.91
652.54	8908.08
652.68	9069.58
652.83	9210.01
652.97	9221.71
653.12	9088.30
653.26	8994.68
653.41	8802.75
653.55	8912.76
653.70	8753.60
653.84	9104.68
653.99	9158.52
654.13	9104.68
654.27	8674.03
654.42	8482.10
654.56	8196.56
654.71	8297.20
654.85	8446.99
655.00	8496.14
655.14	8365.07
655.29	8030.38
655.43	8100.59
655.57	7630.15
655.72	7248.64
655.86	6291.36
656.01	6434.13
656.15	6424.77
656.30	7208.85
656.44	7410.14
656.58	7857.18
656.73	7878.24
656.87	7950.80
657.01	7864.20
657.16	7843.14
657.30	7864.20
657.45	8025.70
657.59	8297.20
657.73	8454.02
657.88	8446.99
658.02	8243.37
658.16	8243.37
658.31	8418.91
658.45	8683.39
658.60	8379.12
658.74	8379.12
658.88	8229.32
659.03	8367.42
659.17	8124.00
659.31	8149.75
659.46	8187.19
659.60	8454.02
659.74	8276.13
659.89	8241.03
660.03	8140.38
660.17	8234.00
660.32	8372.10
660.46	8095.91
660.60	7939.10
660.74	7887.61
660.89	8184.85
661.03	8025.70
661.17	7887.61
661.32	7985.91
661.46	8037.40
661.60	8234.00
661.74	8189.53
661.89	8210.60
662.03	7941.44
662.17	7978.89
662.31	8257.41
662.46	8292.52
662.60	8004.63
662.74	7779.94
662.88	7660.57
663.03	7857.18
663.17	7920.37
663.31	7810.37
663.45	7356.30
663.60	7571.63
663.74	7461.63
663.88	7400.77
664.02	7178.42
664.17	7372.69
664.31	7112.89
664.45	7456.95
664.59	7267.36
664.73	7496.74
664.88	7396.09
665.02	7463.97
665.16	7435.88
665.30	7293.11
665.44	7473.33
665.59	7644.19
665.73	7562.27
665.87	7552.91
666.01	7672.28
666.15	7630.15
666.29	7253.32
666.44	7197.15
666.58	7169.06
666.72	7258.00
666.86	7225.23
667.00	7190.13
667.14	7253.32
667.28	7026.29
667.43	6963.09
667.57	7138.63
667.71	7087.14
667.85	6979.48
667.99	7250.98
668.13	7206.51
668.27	6986.50
668.41	6890.54
668.56	6787.55
668.70	6967.77
668.84	6794.58
668.98	6761.81
669.12	6778.19
669.26	7080.12
669.40	6965.43
669.54	6684.57
669.68	6443.49
669.82	6518.39
669.96	6487.96
670.10	6429.45
670.25	6354.55
670.39	6637.76
670.53	6450.52
670.67	6539.46
670.81	6794.58
670.95	6829.68
671.09	6679.89
671.23	6326.47
671.37	6305.40
671.51	6389.66
671.65	6808.62
671.79	6513.71
671.93	6427.11
672.07	6574.56
672.21	6462.22
672.35	6459.88
672.49	6640.10
672.63	6607.33
672.77	6764.15
672.91	6436.47
673.05	6373.28
673.19	6319.45
673.33	6125.18
673.47	6239.87
673.61	6382.64
673.75	5954.32
673.89	6010.50
674.03	5888.79
674.17	6331.15
674.31	6452.86
674.45	6377.96
674.59	6066.67
674.73	6193.06
674.87	6101.78
675.01	5987.09
675.15	6153.27
675.29	5966.03
675.43	5671.12
675.56	5795.17
675.70	5881.77
675.84	5694.52
675.98	5612.60
676.12	5900.49
676.26	5764.74
676.40	5839.64
676.54	6143.91
676.68	5575.16
676.82	5418.34
676.96	5369.19
677.10	5556.43
677.23	5853.68
677.37	5692.18
677.51	5860.70
677.65	5715.59
677.79	5556.43
677.93	5643.03
678.07	5942.62
678.21	5710.91
678.34	5755.38
678.48	5703.89
678.62	5830.27
678.76	5783.46
678.90	5584.52
679.04	5596.22
679.18	5666.44
679.31	5430.04
679.45	5495.58
679.59	5432.38
679.73	5322.38
679.87	4943.21
680.00	5039.17
680.14	5364.51
680.28	5210.03
680.42	4915.12
680.56	5195.99
680.70	5008.75
680.83	4936.19
680.97	4819.16
681.11	4891.72
681.25	5001.72
681.39	4681.07
681.52	4753.63
681.66	4903.42
681.80	5022.79
681.94	4667.03
682.07	4882.36
682.21	5071.94
682.35	5064.92
682.49	4793.42
682.62	5069.60
682.76	4947.89
682.90	4873.00
683.04	4880.02
683.17	4699.80
683.31	4617.88
683.45	4599.15
683.59	4674.05
683.72	4704.48
683.86	4519.57
684.00	4550.00
684.13	4582.77
684.27	4428.29
684.41	4582.77
684.55	4407.23
684.68	4329.99
684.82	4447.02
684.96	4248.07
685.09	4250.41
685.23	4273.82
685.37	4231.69
685.50	4437.66
685.64	4411.91
685.78	4205.94
685.91	4147.43
686.05	4126.36
686.19	3779.97
686.32	3705.07
686.46	3417.18
686.60	3014.61
686.73	2663.53
686.87	2623.74
687.01	2576.93
687.14	2656.51
687.28	2729.06
687.42	2913.97
687.55	3241.64
687.69	3323.56
687.82	3428.88
687.96	3473.36
688.10	3384.41
688.23	3307.18
688.37	3403.14
688.50	3225.26
688.64	3258.03
688.78	3026.31
688.91	3047.38
689.05	3019.29
689.18	3159.72
689.32	3059.08
689.46	3094.19
689.59	2979.50
689.73	2925.67
689.86	2949.08
690.00	3073.12
690.13	3176.11
690.27	3279.09
690.41	3227.60
690.54	3222.92
690.68	3281.43
690.81	3265.05
690.95	3068.44
691.08	3246.32
691.22	3227.60
691.35	3314.20
691.49	3583.36
691.62	3222.92
691.76	3171.43
691.89	3206.53
692.03	3269.73
692.16	3361.01
692.30	3274.41
692.43	3206.53
692.57	3204.19
692.70	3162.06
692.84	3033.33
692.97	2956.10
693.11	3045.04
693.24	2878.86
693.38	2953.76
693.51	2888.22
693.65	2778.22
693.78	2745.45
693.92	2752.47
694.05	2883.54
694.19	2850.77
694.32	2789.92
694.45	2918.65
694.59	2942.05
694.72	3009.93
694.86	3016.95
694.99	3014.61
695.13	2967.80
695.26	3082.49
695.39	2951.42
695.53	2850.77
695.66	2827.37
695.80	2710.34
695.93	2813.32
696.07	2710.34
696.20	2810.98
696.33	2775.88
696.47	2850.77
696.60	2906.95
696.73	2899.92
696.87	2876.52
697.00	2888.22
697.14	2677.57
697.27	2576.93
697.40	2658.85
697.54	2520.76
697.67	2612.04
697.80	2583.95
697.94	2588.63
698.07	2532.46
698.21	2541.82
698.34	2693.96
698.47	2576.93
698.61	2394.37
698.74	2513.74
698.87	2588.63
699.01	2497.35
699.14	2377.98
699.27	2413.09
699.40	2342.88
699.54	2478.63
699.67	2413.09
699.80	2532.46
699.94	2401.39
700.07	2312.45
700.20	2356.92
700.34	2228.19
700.47	2237.55
700.60	2195.42
700.73	2282.02
700.87	2176.70
701.00	2277.34
701.13	2122.87
701.26	2169.68
701.40	2122.87
701.53	2160.31
701.66	2270.32
701.79	2064.35
701.93	2062.01
702.06	2097.12
702.19	2127.55
702.32	1991.80
702.46	2036.27
702.59	2022.22
702.72	2026.90
702.85	2038.61
702.99	2078.40
703.12	2218.83
703.25	2029.24
703.38	1914.56
703.51	1961.37
703.65	1947.33
703.78	1973.07
703.91	2022.22
704.04	2036.27
704.17	2207.13
704.31	2045.63
704.44	1973.07
704.57	2069.03
704.70	1942.64
704.83	1881.79
704.96	1928.60
705.10	1961.37
705.23	2010.52
>>>>>End Processed Spectral Data<<<<<
