SpectraSuite Data File
++++++++++++++++++++++++++++++++++++
Date: Mon Oct 07 14:54:55 GMT-05:00 2013
User: price-jones
Dark Spectrum Present: No
Reference Spectrum Present: No
Number of Sampled Component Spectra: 1
Spectrometers: USB2+H05261
Integration Time (usec): 10000 (USB2+H05261)
Spectra Averaged: 1 (USB2+H05261)
Boxcar Smoothing: 0 (USB2+H05261)
Correct for Electrical Dark: No (USB2+H05261)
Strobe/Lamp Enabled: No (USB2+H05261)
Correct for Detector Non-linearity: No (USB2+H05261)
Correct for Stray Light: No (USB2+H05261)
Number of Pixels in Processed Spectrum: 2048
>>>>>Begin Processed Spectral Data<<<<<
365.73	0.00
365.92	0.00
366.12	0.00
366.32	0.00
366.52	0.00
366.72	0.00
366.91	0.00
367.11	0.00
367.31	0.00
367.51	0.00
367.70	0.00
367.90	0.00
368.10	0.00
368.30	0.00
368.49	0.00
368.69	0.00
368.89	0.00
369.09	0.00
369.28	0.00
369.48	0.00
369.68	0.00
369.87	0.00
370.07	0.00
370.27	0.00
370.47	0.00
370.66	0.00
370.86	0.00
371.06	0.00
371.25	7.02
371.45	0.00
371.65	7.02
371.84	0.00
372.04	0.00
372.24	18.72
372.44	44.47
372.63	37.45
372.83	0.00
373.03	32.77
373.22	0.00
373.42	9.36
373.62	60.85
373.81	35.11
374.01	72.56
374.21	102.98
374.40	46.81
374.60	91.28
374.79	30.43
374.99	79.58
375.19	84.26
375.38	117.03
375.58	32.77
375.78	131.07
375.97	37.45
376.17	53.83
376.37	140.43
376.56	156.82
376.76	112.35
376.95	161.50
377.15	175.54
377.35	252.78
377.54	248.10
377.74	149.79
377.93	168.52
378.13	196.60
378.33	196.60
378.52	154.48
378.72	140.43
378.91	105.32
379.11	93.62
379.31	14.04
379.50	86.60
379.70	177.88
379.89	58.51
380.09	191.92
380.28	245.76
380.48	161.50
380.68	124.05
380.87	159.16
381.07	159.16
381.26	67.88
381.46	149.79
381.65	95.96
381.85	35.11
382.04	28.09
382.24	7.02
382.43	21.06
382.63	32.77
382.83	74.90
383.02	0.00
383.22	0.00
383.41	79.58
383.61	51.49
383.80	74.90
384.00	79.58
384.19	142.77
384.39	177.88
384.58	250.44
384.78	201.29
384.97	149.79
385.17	133.41
385.36	112.35
385.56	149.79
385.75	196.60
385.95	147.45
386.14	191.92
386.34	177.88
386.53	180.22
386.72	128.73
386.92	224.69
387.11	189.58
387.31	257.46
387.50	222.35
387.70	215.33
387.89	229.37
388.09	170.86
388.28	184.90
388.48	142.77
388.67	205.97
388.86	276.18
389.06	224.69
389.25	339.38
389.45	353.42
389.64	320.65
389.84	308.95
390.03	297.25
390.22	327.68
390.42	383.85
390.61	355.76
390.81	425.98
391.00	327.68
391.19	472.79
391.39	442.36
391.58	346.40
391.78	360.44
391.97	297.25
392.16	278.52
392.36	222.35
392.55	60.85
392.75	65.54
392.94	39.79
393.13	0.00
393.33	77.24
393.52	147.45
393.71	217.67
393.91	241.08
394.10	400.23
394.29	285.55
394.49	290.23
394.68	465.77
394.88	498.53
395.07	475.13
395.26	393.21
395.46	491.51
395.65	477.47
395.84	301.93
396.04	220.01
396.23	147.45
396.42	74.90
396.62	9.36
396.81	154.48
397.00	177.88
397.19	397.89
397.39	423.64
397.58	510.24
397.77	498.53
397.97	547.69
398.16	587.47
398.35	608.54
398.55	657.69
398.74	699.82
398.93	716.20
399.12	683.44
399.32	573.43
399.51	767.70
399.70	744.29
399.90	779.40
400.09	709.18
400.28	739.61
400.47	793.44
400.67	772.38
400.86	835.57
401.05	828.55
401.24	877.70
401.44	847.27
401.63	875.36
401.82	755.99
402.01	826.21
402.21	823.87
402.40	917.49
402.59	851.96
402.78	809.83
402.97	744.29
403.17	830.89
403.36	873.02
403.55	802.80
403.74	889.40
403.93	929.19
404.13	786.42
404.32	830.89
404.51	856.64
404.70	926.85
404.89	830.89
405.09	889.40
405.28	793.44
405.47	908.13
405.66	889.40
405.85	858.98
406.05	753.65
406.24	791.10
406.43	851.96
406.62	884.72
406.81	894.08
407.00	856.64
407.20	795.78
407.39	858.98
407.58	816.85
407.77	903.45
407.96	931.53
408.15	973.66
408.34	1025.15
408.54	1086.01
408.73	1011.11
408.92	950.26
409.11	929.19
409.30	884.72
409.49	816.85
409.68	767.70
409.87	704.50
410.07	854.30
410.26	763.01
410.45	903.45
410.64	1071.97
410.83	1020.47
411.02	1046.22
411.21	1020.47
411.40	1078.99
411.59	1086.01
411.78	971.32
411.98	1086.01
412.17	1123.46
412.36	1043.88
412.55	1041.54
412.74	1001.75
412.93	929.19
413.12	1078.99
413.31	1102.39
413.50	1071.97
413.69	1217.08
413.88	1151.54
414.07	1043.88
414.26	1132.82
414.45	1076.65
414.64	1121.12
414.83	1188.99
415.02	1100.05
415.22	1137.50
415.41	1100.05
415.60	1193.67
415.79	1205.38
415.98	1277.93
416.17	1362.19
416.36	1240.48
416.55	1191.33
416.74	1191.33
416.93	1121.12
417.12	1069.62
417.31	1064.94
417.50	1116.44
417.69	1172.61
417.88	1160.91
418.07	1188.99
418.26	1146.86
418.45	1160.91
418.64	1268.57
418.83	1280.27
419.02	1259.21
419.21	1242.82
419.39	1177.29
419.58	1100.05
419.77	1078.99
419.96	1130.48
420.15	1249.85
420.34	1336.45
420.53	1385.60
420.72	1427.73
420.91	1338.79
421.10	1263.89
421.29	1301.34
421.48	1331.76
421.67	1376.24
421.86	1329.42
422.05	1207.72
422.24	1128.14
422.43	1025.15
422.61	1219.42
422.80	1338.79
422.99	1284.95
423.18	1282.61
423.37	1179.63
423.56	1315.38
423.75	1245.16
423.94	1235.80
424.13	1167.93
424.32	1254.53
424.50	1114.10
424.69	1198.35
424.88	1156.22
425.07	1125.80
425.26	1088.35
425.45	1135.16
425.64	1179.63
425.83	1210.06
426.01	1212.40
426.20	1280.27
426.39	1277.93
426.58	1198.35
426.77	1149.20
426.96	1050.90
427.15	1132.82
427.33	1165.59
427.52	1174.95
427.71	1226.44
427.90	1130.48
428.09	1156.22
428.28	1137.50
428.46	1081.33
428.65	950.26
428.84	1057.92
429.03	1221.76
429.22	1128.14
429.40	959.62
429.59	884.72
429.78	720.88
429.97	758.33
430.16	781.74
430.34	798.12
430.53	767.70
430.72	718.54
430.91	954.94
431.10	1203.04
431.28	1308.36
431.47	1348.15
431.66	1488.58
431.85	1401.98
432.03	1252.19
432.22	1254.53
432.41	1205.38
432.60	1336.45
432.79	1425.39
432.97	1394.96
433.16	1420.71
433.35	1270.91
433.54	978.34
433.72	933.87
433.91	1046.22
434.10	1221.76
434.28	1376.24
434.47	1411.34
434.66	1366.87
434.85	1357.51
435.03	1186.65
435.22	1359.85
435.41	1434.75
435.59	1460.49
435.78	1486.24
435.97	1511.99
436.16	1556.46
436.34	1563.48
436.53	1593.90
436.72	1502.62
436.90	1392.62
437.09	1380.92
437.28	1275.59
437.46	1376.24
437.65	1423.05
437.84	1331.76
438.02	1196.01
438.21	1235.80
438.40	1273.25
438.58	1275.59
438.77	1376.24
438.96	1444.11
439.14	1460.49
439.33	1528.37
439.52	1577.52
439.70	1577.52
439.89	1507.30
440.08	1425.39
440.26	1469.86
440.45	1411.34
440.63	1556.46
440.82	1685.19
441.01	1593.90
441.19	1586.88
441.38	1703.91
441.57	1682.85
441.75	1785.83
441.94	1696.89
442.12	1708.59
442.31	1788.17
442.50	1729.66
442.68	1710.93
442.87	1645.40
443.05	1722.63
443.24	1750.72
443.43	1596.25
443.61	1755.40
443.80	1820.94
443.98	1771.79
444.17	1680.50
444.35	1816.26
444.54	1877.11
444.73	1844.34
444.91	1767.10
445.10	1748.38
445.28	1540.07
445.47	1614.97
445.65	1579.86
445.84	1636.03
446.02	1621.99
446.21	1673.48
446.39	1729.66
446.58	1654.76
446.77	1774.13
446.95	1762.42
447.14	1888.81
447.32	1839.66
447.51	1902.86
447.69	1736.68
447.88	1694.55
448.06	1671.14
448.25	1743.70
448.43	1729.66
448.62	1750.72
448.80	1668.80
448.99	1813.92
449.17	1827.96
449.36	1734.34
449.54	1785.83
449.73	1928.60
449.91	1987.11
450.10	1947.33
450.28	2064.35
450.46	1994.14
450.65	2026.90
450.83	1942.64
451.02	1952.01
451.20	1879.45
451.39	1935.62
451.57	1900.52
451.76	1926.26
451.94	1849.02
452.13	1713.27
452.31	1762.42
452.49	1624.33
452.68	1703.91
452.86	1633.69
453.05	1858.39
453.23	1739.02
453.42	1811.57
453.60	1860.73
453.78	1825.62
453.97	1783.49
454.15	1980.09
454.34	1767.10
454.52	1713.27
454.70	1797.53
454.89	1743.70
455.07	1799.87
455.26	1888.81
455.44	1790.51
455.62	1851.36
455.81	1956.69
455.99	1970.73
456.17	1818.60
456.36	1891.15
456.54	2026.90
456.73	1860.73
456.91	2022.22
457.09	2113.50
457.28	2031.58
457.46	1942.64
457.64	1975.41
457.83	1909.88
458.01	1788.17
458.19	1851.36
458.38	1895.83
458.56	1973.07
458.74	2047.97
458.93	1942.64
459.11	1933.28
459.29	1872.43
459.48	1935.62
459.66	1935.62
459.84	1860.73
460.03	2019.88
460.21	1909.88
460.39	1996.48
460.57	2001.16
460.76	1963.71
460.94	2069.03
461.12	1900.52
461.31	1860.73
461.49	2097.12
461.67	2026.90
461.85	1998.82
462.04	2080.74
462.22	2052.65
462.40	2085.42
462.59	2078.40
462.77	2029.24
462.95	2062.01
463.13	1994.14
463.32	1970.73
463.50	1900.52
463.68	1963.71
463.86	2043.29
464.05	1952.01
464.23	1970.73
464.41	1879.45
464.59	1842.00
464.78	1959.03
464.96	1996.48
465.14	1881.79
465.32	1968.39
465.50	2026.90
465.69	2083.08
465.87	2099.46
466.05	1912.22
466.23	1788.17
466.41	1837.32
466.60	1851.36
466.78	1846.68
466.96	1860.73
467.14	2031.58
467.32	1930.94
467.51	2052.65
467.69	1844.34
467.87	1991.80
468.05	1921.58
468.23	1898.17
468.41	2008.18
468.60	1959.03
468.78	1984.77
468.96	1959.03
469.14	2029.24
469.32	2017.54
469.50	1881.79
469.69	1914.56
469.87	1851.36
470.05	1776.47
470.23	1708.59
470.41	1823.28
470.59	1809.23
470.77	1970.73
470.95	1956.69
471.14	1952.01
471.32	2139.25
471.50	2080.74
471.68	2127.55
471.86	2136.91
472.04	2120.53
472.22	2050.31
472.40	1989.46
472.58	2043.29
472.77	2064.35
472.95	2026.90
473.13	2071.37
473.31	2085.42
473.49	1994.14
473.67	2076.06
473.85	2054.99
474.03	2066.69
474.21	2200.10
474.39	2361.60
474.57	2160.31
474.75	2167.34
474.93	2094.78
475.12	2118.18
475.30	2139.25
475.48	2155.63
475.66	2242.23
475.84	2174.36
476.02	2054.99
476.20	1944.99
476.38	1996.48
476.56	2157.97
476.74	2331.17
476.92	2317.13
477.10	2303.09
477.28	2382.67
477.46	2370.96
477.64	2382.67
477.82	2375.64
478.00	2370.96
478.18	2394.37
478.36	2214.15
478.54	2349.90
478.72	2356.92
478.90	2382.67
479.08	2513.74
479.26	2520.76
479.44	2478.63
479.62	2499.69
479.80	2513.74
479.98	2509.05
480.16	2541.82
480.34	2579.27
480.52	2480.97
480.70	2565.23
480.88	2605.02
481.06	2583.95
481.24	2654.17
481.41	2708.00
481.59	2677.57
481.77	2705.66
481.95	2670.55
482.13	2609.70
482.31	2569.91
482.49	2537.14
482.67	2595.65
482.85	2754.81
483.03	2656.51
483.21	2752.47
483.39	2832.05
483.57	2689.28
483.74	2658.85
483.92	2771.19
484.10	2712.68
484.28	2780.56
484.46	2747.79
484.64	2846.09
484.82	2820.35
485.00	2846.09
485.18	2651.83
485.35	2462.24
485.53	2347.56
485.71	2200.10
485.89	2097.12
486.07	2202.44
486.25	2328.83
486.43	2581.61
486.61	2619.06
486.78	2698.64
486.96	2626.08
487.14	2813.32
487.32	2860.13
487.50	2930.35
487.68	2991.20
487.85	3183.13
488.03	3089.51
488.21	3016.95
488.39	2832.05
488.57	2920.99
488.75	2710.34
488.92	3042.70
489.10	3192.49
489.28	3288.45
489.46	3295.47
489.64	3365.69
489.81	3421.86
489.99	3236.96
490.17	3461.65
490.35	3461.65
490.53	3382.07
490.70	3335.26
490.88	3211.22
491.06	3351.65
491.24	3386.76
491.41	3225.26
491.59	3082.49
491.77	2995.89
491.95	3084.83
492.13	3096.53
492.30	3276.75
492.48	3426.54
492.66	3480.38
492.84	3424.20
493.01	3370.37
493.19	3499.10
493.37	3456.97
493.54	3225.26
493.72	3517.83
493.90	3550.59
494.08	3751.88
494.25	3590.38
494.43	3772.94
494.61	3878.27
494.79	3709.75
494.96	3889.97
495.14	3667.62
495.32	3709.75
495.49	3433.57
495.67	3506.12
495.85	3658.26
496.02	3932.10
496.20	3782.31
496.38	3693.37
496.55	3606.77
496.73	3805.71
496.91	3824.44
497.09	4028.06
497.26	3854.86
497.44	3784.65
497.62	3744.86
497.79	3646.55
497.97	3346.97
498.14	3515.48
498.32	3679.32
498.50	3782.31
498.67	3880.61
498.85	3775.28
499.03	3988.27
499.20	4117.00
499.38	3941.46
499.56	3803.37
499.73	3803.37
499.91	3679.32
500.08	3686.34
500.26	3632.51
500.44	3641.87
500.61	3695.71
500.79	3590.38
500.97	3789.33
501.14	3613.79
501.32	3616.13
501.49	3625.49
501.67	3473.36
501.84	3625.49
502.02	3723.79
502.20	3786.99
502.37	3906.35
502.55	3700.39
502.72	3819.75
502.90	3990.61
503.07	3906.35
503.25	3660.60
503.43	3815.07
503.60	3590.38
503.78	3548.25
503.95	3555.27
504.13	3686.34
504.30	3901.67
504.48	3815.07
504.65	3892.31
504.83	3974.23
505.01	3955.51
505.18	4042.11
505.36	4100.62
505.53	3990.61
505.71	4187.22
505.88	4119.34
506.06	3974.23
506.23	3962.53
506.41	3899.33
506.58	4030.40
506.76	3948.48
506.93	4098.28
507.11	3758.90
507.28	3932.10
507.46	3758.90
507.63	3733.15
507.81	3702.73
507.98	3618.47
508.16	3859.54
508.33	3955.51
508.50	3967.21
508.68	4074.87
508.85	4203.60
509.03	4124.02
509.20	3960.19
509.38	3999.98
509.55	3911.04
509.73	3733.15
509.90	3957.85
510.08	3988.27
510.25	3964.87
510.42	3932.10
510.60	4046.79
510.77	3985.93
510.95	3932.10
511.12	4145.09
511.30	4131.05
511.47	4091.26
511.64	4177.86
511.82	4154.45
511.99	3906.35
512.17	3822.09
512.34	3939.12
512.51	3967.21
512.69	4058.49
512.86	3983.59
513.04	3894.65
513.21	3889.97
513.38	3971.89
513.56	3819.75
513.73	3691.02
513.90	3831.46
514.08	3866.56
514.25	3847.84
514.43	3885.29
514.60	4035.08
514.77	3950.82
514.95	3925.08
515.12	3885.29
515.29	4032.74
515.47	3915.72
515.64	4014.02
515.81	3999.98
515.99	3784.65
516.16	3695.71
516.33	3325.90
516.51	3346.97
516.68	3124.62
516.85	3192.49
517.03	3166.74
517.20	3440.59
517.37	3726.13
517.54	3950.82
517.72	3754.22
517.89	3545.91
518.06	3145.68
518.24	3351.65
518.41	3599.74
518.58	3765.92
518.75	3691.02
518.93	3698.05
519.10	3758.90
519.27	3831.46
519.45	3901.67
519.62	3932.10
519.79	3957.85
519.96	3955.51
520.14	3765.92
520.31	3676.98
520.48	3810.39
520.65	3772.94
520.83	4018.70
521.00	3983.59
521.17	3990.61
521.34	3833.80
521.52	3885.29
521.69	4063.17
521.86	4112.32
522.03	4170.83
522.20	3838.48
522.38	3707.41
522.55	3707.41
522.72	3843.16
522.89	3782.31
523.07	3777.62
523.24	3749.54
523.41	4084.23
523.58	4217.65
523.75	4044.45
523.92	4119.34
524.10	4133.39
524.27	4131.05
524.44	4173.18
524.61	3995.29
524.78	4133.39
524.96	4086.58
525.13	3896.99
525.30	4072.53
525.47	4245.73
525.64	4044.45
525.81	3936.78
525.98	3730.81
526.16	3606.77
526.33	3405.48
526.50	3335.26
526.67	3421.86
526.84	3389.10
527.01	3524.85
527.18	3665.28
527.36	3768.26
527.53	3946.14
527.70	3983.59
527.87	3971.89
528.04	3957.85
528.21	3840.82
528.38	4014.02
528.55	4269.14
528.72	4175.52
528.89	4238.71
529.07	4124.02
529.24	4084.23
529.41	3974.23
529.58	3920.40
529.75	3896.99
529.92	3964.87
530.09	4025.72
530.26	4018.70
530.43	4161.47
530.60	4170.83
530.77	4287.86
530.94	4126.36
531.11	4152.11
531.28	3971.89
531.46	3962.53
531.63	4091.26
531.80	4049.13
531.97	3833.80
532.14	3808.05
532.31	3705.07
532.48	3559.95
532.65	3784.65
532.82	3655.92
532.99	4028.06
533.16	3925.08
533.33	3913.38
533.50	3906.35
533.67	3957.85
533.84	3805.71
534.01	3873.59
534.18	4011.68
534.35	4018.70
534.52	3889.97
534.69	3918.06
534.86	3887.63
535.03	4044.45
535.20	4060.83
535.37	4208.28
535.54	4128.70
535.71	4170.83
535.88	4060.83
536.05	3889.97
536.22	3840.82
536.38	3904.01
536.55	3754.22
536.72	3613.79
536.89	3548.25
537.06	3658.26
537.23	3840.82
537.40	3868.91
537.57	3880.61
537.74	3885.29
537.91	3901.67
538.08	3950.82
538.25	3948.48
538.42	3901.67
538.59	3904.01
538.75	3824.44
538.92	3730.81
539.09	3672.30
539.26	3733.15
539.43	3559.95
539.60	3552.93
539.77	3908.69
539.94	3791.67
540.11	3513.14
540.28	3463.99
540.44	3524.85
540.61	3646.55
540.78	3552.93
540.95	3730.81
541.12	3768.26
541.29	3686.34
541.46	3751.88
541.62	3829.12
541.79	3943.80
541.96	3653.58
542.13	3742.52
542.30	3714.43
542.47	3705.07
542.63	3737.84
542.80	3641.87
542.97	3623.15
543.14	3646.55
543.31	3712.09
543.48	3808.05
543.64	4002.32
543.81	3836.14
543.98	4042.11
544.15	3847.84
544.32	3761.24
544.48	3737.84
544.65	3887.63
544.82	3892.31
544.99	3747.20
545.16	3693.37
545.32	3559.95
545.49	3831.46
545.66	3988.27
545.83	3950.82
546.00	3754.22
546.16	3751.88
546.33	3714.43
546.50	3726.13
546.67	3658.26
546.83	3770.60
547.00	3698.05
547.17	3653.58
547.34	3506.12
547.50	3520.17
547.67	3658.26
547.84	3639.53
548.00	3676.98
548.17	3698.05
548.34	3641.87
548.51	3840.82
548.67	3693.37
548.84	3597.40
549.01	3733.15
549.18	3756.56
549.34	3597.40
549.51	3639.53
549.68	3630.17
549.84	3632.51
550.01	3674.64
550.18	3667.62
550.34	3480.38
550.51	3541.23
550.68	3754.22
550.84	3609.11
551.01	3562.30
551.18	3407.82
551.34	3658.26
551.51	3620.81
551.68	3602.08
551.84	3644.21
552.01	3733.15
552.18	3506.12
552.34	3583.36
552.51	3440.59
552.68	3438.25
552.84	3583.36
553.01	3562.30
553.18	3627.83
553.34	3559.95
553.51	3616.13
553.67	3688.68
553.84	3611.45
554.01	3695.71
554.17	3613.79
554.34	3665.28
554.51	3655.92
554.67	3679.32
554.84	3719.11
555.00	3566.98
555.17	3562.30
555.33	3620.81
555.50	3548.25
555.67	3485.06
555.83	3478.04
556.00	3496.76
556.16	3459.31
556.33	3438.25
556.50	3386.76
556.66	3283.77
556.83	3258.03
556.99	3559.95
557.16	3468.67
557.32	3559.95
557.49	3459.31
557.65	3449.95
557.82	3452.29
557.98	3379.73
558.15	3459.31
558.32	3297.81
558.48	3229.94
558.65	3236.96
558.81	3274.41
558.98	3300.16
559.14	3414.84
559.31	3318.88
559.47	3328.24
559.64	3276.75
559.80	3236.96
559.97	3194.83
560.13	3316.54
560.30	3412.50
560.46	3562.30
560.63	3449.95
560.79	3538.89
560.96	3482.72
561.12	3487.40
561.29	3185.47
561.45	3297.81
561.61	3124.62
561.78	3232.28
561.94	3482.72
562.11	3260.37
562.27	3267.39
562.44	3428.88
562.60	3318.88
562.77	3363.35
562.93	3382.07
563.10	3356.33
563.26	3253.34
563.42	3225.26
563.59	3204.19
563.75	3248.66
563.92	3307.18
564.08	3375.05
564.24	3173.77
564.41	3194.83
564.57	3300.16
564.74	3323.56
564.90	3248.66
565.07	3290.79
565.23	3248.66
565.39	2993.55
565.56	3136.32
565.72	3141.00
565.88	2993.55
566.05	3110.57
566.21	3171.43
566.38	3258.03
566.54	3002.91
566.70	3222.92
566.87	3262.71
567.03	3129.30
567.19	3258.03
567.36	3297.81
567.52	3215.90
567.68	3183.13
567.85	3122.27
568.01	3000.57
568.17	3077.80
568.34	3042.70
568.50	2963.12
568.66	3068.44
568.83	3080.14
568.99	3070.78
569.15	3218.24
569.32	3197.17
569.48	3028.65
569.64	3059.08
569.81	2890.56
569.97	3019.29
570.13	3002.91
570.30	2869.50
570.46	2909.29
570.62	2902.26
570.78	2935.03
570.95	2890.56
571.11	2923.33
571.27	3019.29
571.43	2916.31
571.60	3119.93
571.76	3009.93
571.92	3115.25
572.09	3091.85
572.25	2935.03
572.41	3007.59
572.57	3157.38
572.74	3028.65
572.90	3040.36
573.06	2909.29
573.22	2995.89
573.38	2944.39
573.55	2974.82
573.71	3105.89
573.87	3045.04
574.03	2991.20
574.20	2974.82
574.36	2899.92
574.52	2944.39
574.68	2981.84
574.84	2810.98
575.01	2799.28
575.17	2703.32
575.33	2855.45
575.49	2841.41
575.65	2778.22
575.82	2937.37
575.98	2834.39
576.14	2979.50
576.30	2895.24
576.46	2958.44
576.62	2911.63
576.79	2979.50
576.95	2799.28
577.11	2789.92
577.27	2768.85
577.43	2918.65
577.59	2874.18
577.75	2930.35
577.92	2736.09
578.08	2759.49
578.24	2722.04
578.40	2810.98
578.56	2656.51
578.72	2841.41
578.88	2789.92
579.04	2768.85
579.21	2827.37
579.37	2890.56
579.53	2815.66
579.69	2827.37
579.85	2738.43
580.01	2813.32
580.17	2796.94
580.33	2796.94
580.49	2920.99
580.65	2836.73
580.82	2796.94
580.98	2895.24
581.14	2862.48
581.30	2808.64
581.46	2766.51
581.62	2881.20
581.78	2862.48
581.94	2829.71
582.10	2998.23
582.26	2827.37
582.42	2876.52
582.58	2705.66
582.74	2860.13
582.90	2785.24
583.06	3012.27
583.22	2855.45
583.38	2766.51
583.54	2853.11
583.70	2906.95
583.86	2832.05
584.02	2799.28
584.18	2801.62
584.34	2899.92
584.50	2719.70
584.66	2785.24
584.82	2682.25
584.98	2602.68
585.14	2649.49
585.30	2712.68
585.46	2583.95
585.62	2583.95
585.78	2569.91
585.94	2600.34
586.10	2700.98
586.26	2605.02
586.42	2722.04
586.58	2747.79
586.74	2761.83
586.90	2796.94
587.06	2719.70
587.22	2593.31
587.38	2693.96
587.54	2640.12
587.70	2665.87
587.86	2569.91
588.02	2595.65
588.18	2422.45
588.34	2464.58
588.49	2380.32
588.65	2153.29
588.81	2256.28
588.97	2148.61
589.13	2148.61
589.29	2221.17
589.45	2207.13
589.61	2293.72
589.77	2368.62
589.93	2530.12
590.08	2473.95
590.24	2511.39
590.40	2525.44
590.56	2532.46
590.72	2583.95
590.88	2380.32
591.04	2417.77
591.20	2445.86
591.35	2509.05
591.51	2499.69
591.67	2415.43
591.83	2366.28
591.99	2583.95
592.15	2509.05
592.31	2469.27
592.46	2532.46
592.62	2483.31
592.78	2401.39
592.94	2544.16
593.10	2387.35
593.26	2504.37
593.41	2356.92
593.57	2483.31
593.73	2497.35
593.89	2361.60
594.05	2415.43
594.20	2368.62
594.36	2328.83
594.52	2352.24
594.68	2359.26
594.84	2359.26
594.99	2427.14
595.15	2408.41
595.31	2349.90
595.47	2349.90
595.62	2450.54
595.78	2450.54
595.94	2303.09
596.10	2523.10
596.25	2401.39
596.41	2476.29
596.57	2293.72
596.73	2424.80
596.88	2396.71
597.04	2502.03
597.20	2403.73
597.36	2265.64
597.51	2434.16
597.67	2361.60
597.83	2305.43
597.99	2499.69
598.14	2368.62
598.30	2211.81
598.46	2286.70
598.61	2270.32
598.77	2380.32
598.93	2307.77
599.09	2375.64
599.24	2359.26
599.40	2349.90
599.56	2363.94
599.71	2459.90
599.87	2242.23
600.03	2382.67
600.18	2214.15
600.34	2314.79
600.50	2321.81
600.65	2214.15
600.81	2230.53
600.97	2342.88
601.12	2242.23
601.28	2230.53
601.44	2317.13
601.59	2223.51
601.75	2317.13
601.91	2291.38
602.06	2286.70
602.22	2284.36
602.37	2256.28
602.53	2204.78
602.69	2263.30
602.84	2284.36
603.00	2279.68
603.16	2394.37
603.31	2251.60
603.47	2408.41
603.62	2228.19
603.78	2356.92
603.94	2251.60
604.09	2293.72
604.25	2183.72
604.40	2223.51
604.56	2303.09
604.71	2340.54
604.87	2307.77
605.03	2284.36
605.18	2209.47
605.34	2150.95
605.49	2174.36
605.65	2162.66
605.80	2188.40
605.96	2340.54
606.12	2174.36
606.27	2150.95
606.43	2282.02
606.58	2256.28
606.74	2139.25
606.89	2265.64
607.05	2401.39
607.20	2239.89
607.36	2186.06
607.51	2242.23
607.67	2275.00
607.82	2179.04
607.98	2104.14
608.13	2132.23
608.29	2118.18
608.44	2012.86
608.60	2256.28
608.75	2066.69
608.91	2146.27
609.06	2148.61
609.22	2228.19
609.37	2139.25
609.53	2188.40
609.68	2125.21
609.84	2059.67
609.99	2073.71
610.15	2066.69
610.30	2097.12
610.46	2099.46
610.61	2106.48
610.76	2122.87
610.92	2200.10
611.07	2169.68
611.23	2106.48
611.38	2211.81
611.54	2225.85
611.69	2010.52
611.84	2129.89
612.00	2010.52
612.15	1907.54
612.31	2029.24
612.46	2076.06
612.62	1998.82
612.77	2036.27
612.92	2122.87
613.08	2197.76
613.23	1930.94
613.39	1888.81
613.54	1949.67
613.69	1949.67
613.85	1975.41
614.00	1898.17
614.15	1912.22
614.31	1919.24
614.46	1923.92
614.62	1860.73
614.77	1963.71
614.92	2036.27
615.08	2036.27
615.23	1977.75
615.38	1888.81
615.54	2015.20
615.69	1783.49
615.84	1748.38
616.00	1767.10
616.15	1795.19
616.30	1930.94
616.46	1811.57
616.61	1849.02
616.76	1881.79
616.92	1853.70
617.07	1944.99
617.22	1921.58
617.37	1898.17
617.53	1879.45
617.68	1877.11
617.83	1902.86
617.99	1989.46
618.14	1937.96
618.29	1933.28
618.45	1942.64
618.60	1947.33
618.75	1778.81
618.90	1846.68
619.06	1856.04
619.21	1858.39
619.36	1909.88
619.51	1867.75
619.67	1767.10
619.82	1912.22
619.97	1825.62
620.12	1867.75
620.28	1914.56
620.43	1825.62
620.58	1996.48
620.73	1933.28
620.89	1806.89
621.04	1795.19
621.19	1729.66
621.34	1760.08
621.49	1748.38
621.65	1776.47
621.80	1893.49
621.95	1741.36
622.10	1839.66
622.25	1863.07
622.41	1741.36
622.56	1743.70
622.71	1717.95
622.86	1778.81
623.01	1717.95
623.16	1748.38
623.32	1713.27
623.47	1652.42
623.62	1710.93
623.77	1748.38
623.92	1680.50
624.07	1680.50
624.23	1764.76
624.38	1617.31
624.53	1753.06
624.68	1701.57
624.83	1640.72
624.98	1692.21
625.13	1600.93
625.29	1631.35
625.44	1703.91
625.59	1607.95
625.74	1589.22
625.89	1680.50
626.04	1664.12
626.19	1640.72
626.34	1633.69
626.49	1682.85
626.65	1680.50
626.80	1652.42
626.95	1584.54
627.10	1530.71
627.25	1497.94
627.40	1584.54
627.55	1579.86
627.70	1537.73
627.85	1432.41
628.00	1600.93
628.15	1540.07
628.30	1528.37
628.45	1610.29
628.60	1516.67
628.76	1441.77
628.91	1554.12
629.06	1551.78
629.21	1579.86
629.36	1542.41
629.51	1568.16
629.66	1547.09
629.81	1437.09
629.96	1439.43
630.11	1462.83
630.26	1570.50
630.41	1645.40
630.56	1511.99
630.71	1540.07
630.86	1568.16
631.01	1423.05
631.16	1427.73
631.31	1556.46
631.46	1451.13
631.61	1614.97
631.76	1432.41
631.91	1621.99
632.06	1537.73
632.21	1610.29
632.36	1577.52
632.51	1488.58
632.66	1556.46
632.81	1551.78
632.96	1420.71
633.10	1437.09
633.25	1446.45
633.40	1469.86
633.55	1465.18
633.70	1427.73
633.85	1441.77
634.00	1418.36
634.15	1458.15
634.30	1497.94
634.45	1540.07
634.60	1451.13
634.75	1556.46
634.90	1547.09
635.05	1521.35
635.19	1490.92
635.34	1479.22
635.49	1437.09
635.64	1345.81
635.79	1458.15
635.94	1378.58
636.09	1479.22
636.24	1425.39
636.39	1519.01
636.53	1479.22
636.68	1416.02
636.83	1437.09
636.98	1439.43
637.13	1533.05
637.28	1511.99
637.43	1441.77
637.57	1561.14
637.72	1406.66
637.87	1563.48
638.02	1495.60
638.17	1507.30
638.32	1467.52
638.46	1495.60
638.61	1519.01
638.76	1270.91
638.91	1334.11
639.06	1406.66
639.20	1357.51
639.35	1401.98
639.50	1266.23
639.65	1331.76
639.80	1242.82
639.94	1371.55
640.09	1383.26
640.24	1439.43
640.39	1394.96
640.54	1301.34
640.68	1486.24
640.83	1249.85
640.98	1284.95
641.13	1306.02
641.27	1357.51
641.42	1343.47
641.57	1343.47
641.72	1324.74
641.86	1266.23
642.01	1327.08
642.16	1425.39
642.31	1263.89
642.45	1313.04
642.60	1359.85
642.75	1334.11
642.90	1373.89
643.04	1373.89
643.19	1343.47
643.34	1383.26
643.48	1273.25
643.63	1299.00
643.78	1320.06
643.93	1308.36
644.07	1224.10
644.22	1284.95
644.37	1324.74
644.51	1343.47
644.66	1378.58
644.81	1277.93
644.95	1322.40
645.10	1280.27
645.25	1268.57
645.39	1291.98
645.54	1315.38
645.69	1224.10
645.83	1196.01
645.98	1245.16
646.13	1299.00
646.27	1188.99
646.42	1263.89
646.57	1324.74
646.71	1196.01
646.86	1191.33
647.00	1224.10
647.15	1252.19
647.30	1135.16
647.44	1242.82
647.59	1254.53
647.74	1172.61
647.88	1039.20
648.03	1261.55
648.17	1247.51
648.32	1135.16
648.47	1123.46
648.61	1163.25
648.76	1196.01
648.90	1076.65
649.05	1118.78
649.20	1008.77
649.34	1104.73
649.49	1097.71
649.63	1076.65
649.78	1097.71
649.92	1240.48
650.07	1252.19
650.21	1153.88
650.36	1256.87
650.51	1219.42
650.65	1217.08
650.80	1156.22
650.94	1282.61
651.09	1160.91
651.23	1125.80
651.38	1142.18
651.52	1156.22
651.67	1146.86
651.81	1114.10
651.96	1196.01
652.10	1149.20
652.25	1116.44
652.39	1203.04
652.54	1158.57
652.68	1125.80
652.83	1083.67
652.97	1191.33
653.12	1074.31
653.26	1109.41
653.41	1090.69
653.55	1025.15
653.70	1125.80
653.84	1252.19
653.99	1123.46
654.13	1074.31
654.27	1102.39
654.42	1048.56
654.56	1039.20
654.71	999.41
654.85	1001.75
655.00	1055.58
655.14	987.71
655.29	926.85
655.43	976.00
655.57	1060.26
655.72	887.06
655.86	767.70
656.01	802.80
656.15	671.73
656.30	875.36
656.44	873.02
656.58	880.04
656.73	1001.75
656.87	973.66
657.01	1069.62
657.16	1039.20
657.30	1093.03
657.45	1062.60
657.59	1039.20
657.73	1029.84
657.88	1043.88
658.02	1071.97
658.16	1081.33
658.31	1029.84
658.45	987.71
658.60	1029.84
658.74	973.66
658.88	978.34
659.03	1067.28
659.17	973.66
659.31	1015.79
659.46	1053.24
659.60	1121.12
659.74	997.07
659.89	1053.24
660.03	1057.92
660.17	964.30
660.32	1027.50
660.46	929.19
660.60	983.02
660.74	1043.88
660.89	961.96
661.03	1008.77
661.17	1076.65
661.32	966.64
661.46	1043.88
661.60	973.66
661.74	943.24
661.89	971.32
662.03	987.71
662.17	992.39
662.31	1006.43
662.46	1107.07
662.60	985.37
662.74	1057.92
662.88	1034.52
663.03	968.98
663.17	894.08
663.31	854.30
663.45	952.60
663.60	931.53
663.74	1008.77
663.88	994.73
664.02	880.04
664.17	884.72
664.31	990.05
664.45	983.02
664.59	997.07
664.73	1043.88
664.88	976.00
665.02	922.17
665.16	903.45
665.30	931.53
665.44	917.49
665.59	851.96
665.73	1008.77
665.87	1020.47
666.01	875.36
666.15	887.06
666.29	978.34
666.44	837.91
666.58	875.36
666.72	931.53
666.86	877.70
667.00	1015.79
667.14	861.32
667.28	938.55
667.43	912.81
667.57	889.40
667.71	1001.75
667.85	847.27
667.99	973.66
668.13	924.51
668.27	870.68
668.41	887.06
668.56	915.15
668.70	950.26
668.84	858.98
668.98	812.17
669.12	875.36
669.26	915.15
669.40	858.98
669.54	765.36
669.68	931.53
669.82	840.25
669.96	835.57
670.10	791.10
670.25	784.08
670.39	830.89
670.53	809.83
670.67	767.70
670.81	779.40
670.95	814.51
671.09	770.04
671.23	772.38
671.37	744.29
671.51	800.46
671.65	763.01
671.79	844.93
671.93	826.21
672.07	744.29
672.21	690.46
672.35	755.99
672.49	781.74
672.63	851.96
672.77	725.57
672.91	718.54
673.05	791.10
673.19	849.61
673.33	805.14
673.47	800.46
673.61	718.54
673.75	753.65
673.89	802.80
674.03	849.61
674.17	718.54
674.31	779.40
674.45	748.97
674.59	793.44
674.73	772.38
674.87	713.86
675.01	725.57
675.15	760.67
675.29	751.31
675.43	643.65
675.56	688.12
675.70	734.93
675.84	716.20
675.98	664.71
676.12	784.08
676.26	791.10
676.40	692.80
676.54	692.80
676.68	674.07
676.82	662.37
676.96	732.59
677.10	631.94
677.23	716.20
677.37	795.78
677.51	653.01
677.65	676.41
677.79	559.39
677.93	624.92
678.07	727.91
678.21	690.46
678.34	650.67
678.48	655.35
678.62	674.07
678.76	641.31
678.90	645.99
679.04	723.23
679.18	653.01
679.31	627.26
679.45	606.20
679.59	627.26
679.73	545.34
679.87	655.35
680.00	669.39
680.14	622.58
680.28	594.50
680.42	538.32
680.56	528.96
680.70	587.47
680.83	533.64
680.97	554.71
681.11	573.43
681.25	543.00
681.39	571.09
681.52	573.43
681.66	601.52
681.80	526.62
681.94	531.30
682.07	582.79
682.21	599.18
682.35	641.31
682.49	561.73
682.62	568.75
682.76	449.38
682.90	496.19
683.04	582.79
683.17	634.29
683.31	568.75
683.45	557.05
683.59	533.64
683.72	489.17
683.86	456.40
684.00	486.83
684.13	430.66
684.27	416.62
684.41	496.19
684.55	493.85
684.68	554.71
684.82	564.07
684.96	482.15
685.09	582.79
685.23	475.13
685.37	468.11
685.50	468.11
685.64	543.00
685.78	479.81
685.91	461.09
686.05	496.19
686.19	505.56
686.32	407.25
686.46	308.95
686.60	297.25
686.73	222.35
686.87	198.95
687.01	215.33
687.14	229.37
687.28	201.29
687.42	271.50
687.55	264.48
687.69	283.20
687.82	330.02
687.96	262.14
688.10	327.68
688.23	339.38
688.37	334.70
688.50	297.25
688.64	294.91
688.78	283.20
688.91	257.46
689.05	271.50
689.18	327.68
689.32	299.59
689.46	287.89
689.59	283.20
689.73	301.93
689.86	259.80
690.00	304.27
690.13	283.20
690.27	348.74
690.41	283.20
690.54	355.76
690.68	250.44
690.81	322.99
690.95	299.59
691.08	264.48
691.22	290.23
691.35	264.48
691.49	280.86
691.62	236.39
691.76	283.20
691.89	362.78
692.03	334.70
692.16	292.57
692.30	348.74
692.43	294.91
692.57	294.91
692.70	388.53
692.84	322.99
692.97	294.91
693.11	299.59
693.24	294.91
693.38	271.50
693.51	255.12
693.65	229.37
693.78	215.33
693.92	243.42
694.05	222.35
694.19	248.10
694.32	255.12
694.45	292.57
694.59	208.31
694.72	177.88
694.86	306.61
694.99	269.16
695.13	238.73
695.26	269.16
695.39	287.89
695.53	241.08
695.66	229.37
695.80	208.31
695.93	287.89
696.07	255.12
696.20	241.08
696.33	243.42
696.47	212.99
696.60	245.76
696.73	276.18
696.87	269.16
697.00	339.38
697.14	220.01
697.27	208.31
697.40	236.39
697.54	198.95
697.67	163.84
697.80	215.33
697.94	208.31
698.07	262.14
698.21	220.01
698.34	196.60
698.47	138.09
698.61	259.80
698.74	208.31
698.87	224.69
699.01	198.95
699.14	252.78
699.27	100.64
699.40	227.03
699.54	161.50
699.67	217.67
699.80	133.41
699.94	124.05
700.07	201.29
700.20	145.11
700.34	196.60
700.47	93.62
700.60	161.50
700.73	147.45
700.87	131.07
701.00	180.22
701.13	163.84
701.26	121.71
701.40	201.29
701.53	128.73
701.66	77.24
701.79	142.77
701.93	196.60
702.06	126.39
702.19	44.47
702.32	184.90
702.46	140.43
702.59	63.19
702.72	86.60
702.85	184.90
702.99	114.69
703.12	131.07
703.25	212.99
703.38	124.05
703.51	70.22
703.65	156.82
703.78	152.13
703.91	117.03
704.04	114.69
704.17	135.75
704.31	107.66
704.44	159.16
704.57	161.50
704.70	142.77
704.83	58.51
704.96	110.01
705.10	201.29
705.23	208.31
>>>>>End Processed Spectral Data<<<<<
