SpectraSuite Data File
++++++++++++++++++++++++++++++++++++
Date: Mon Oct 07 14:53:39 GMT-05:00 2013
User: price-jones
Dark Spectrum Present: No
Reference Spectrum Present: No
Number of Sampled Component Spectra: 1
Spectrometers: USB2+H05261
Integration Time (usec): 100000 (USB2+H05261)
Spectra Averaged: 1 (USB2+H05261)
Boxcar Smoothing: 0 (USB2+H05261)
Correct for Electrical Dark: No (USB2+H05261)
Strobe/Lamp Enabled: No (USB2+H05261)
Correct for Detector Non-linearity: No (USB2+H05261)
Correct for Stray Light: No (USB2+H05261)
Number of Pixels in Processed Spectrum: 2048
>>>>>Begin Processed Spectral Data<<<<<
365.73	0.00
365.92	0.00
366.12	0.00
366.32	0.00
366.52	0.00
366.72	0.00
366.91	0.00
367.11	0.00
367.31	0.00
367.51	0.00
367.70	0.00
367.90	0.00
368.10	0.00
368.30	0.00
368.49	0.00
368.69	0.00
368.89	0.00
369.09	0.00
369.28	0.00
369.48	0.00
369.68	0.00
369.87	0.00
370.07	0.00
370.27	0.00
370.47	70.22
370.66	1181.97
370.86	1500.28
371.06	1610.29
371.25	1610.29
371.45	1366.87
371.65	1324.74
371.84	1249.85
372.04	1306.02
372.24	1404.32
372.44	1530.71
372.63	1591.56
372.83	1425.39
373.03	1142.18
373.22	1095.37
373.42	1221.76
373.62	1343.47
373.81	1607.95
374.01	1507.30
374.21	1371.55
374.40	1221.76
374.60	1254.53
374.79	1409.00
374.99	1830.30
375.19	1872.43
375.38	1837.32
375.58	1699.23
375.78	1701.57
375.97	1732.00
376.17	1940.30
376.37	1811.57
376.56	1799.87
376.76	1954.35
376.95	2062.01
377.15	2260.96
377.35	2298.41
377.54	2399.05
377.74	2443.52
377.93	2445.86
378.13	2347.56
378.33	2265.64
378.52	2165.00
378.72	2230.53
378.91	2038.61
379.11	1994.14
379.31	1865.41
379.50	1926.26
379.70	2015.20
379.89	2331.17
380.09	2396.71
380.28	2518.42
380.48	2497.35
380.68	2368.62
380.87	2291.38
381.07	2113.50
381.26	1940.30
381.46	1834.98
381.65	1947.33
381.85	1769.44
382.04	1652.42
382.24	1521.35
382.43	1430.07
382.63	1423.05
382.83	1418.36
383.02	1448.79
383.22	1390.28
383.41	1425.39
383.61	1636.03
383.80	1736.68
384.00	2118.18
384.19	2375.64
384.39	2544.16
384.58	2434.16
384.78	2331.17
384.97	2267.98
385.17	2314.79
385.36	2183.72
385.56	2031.58
385.75	1984.77
385.95	2270.32
386.14	2483.31
386.34	2504.37
386.53	2523.10
386.72	2188.40
386.92	2300.75
387.11	2331.17
387.31	2466.92
387.50	2331.17
387.70	2352.24
387.89	2221.17
388.09	2293.72
388.28	2466.92
388.48	2382.67
388.67	2693.96
388.86	2827.37
389.06	3014.61
389.25	3311.86
389.45	3243.98
389.64	3176.11
389.84	3279.09
390.03	3262.71
390.22	3262.71
390.42	3229.94
390.61	3531.87
390.81	3880.61
391.00	3941.46
391.19	3747.20
391.39	3763.58
391.58	3442.93
391.78	3173.77
391.97	3133.98
392.16	2857.79
392.36	2595.65
392.55	2054.99
392.75	1619.65
392.94	1317.72
393.13	1359.85
393.33	1561.14
393.52	2026.90
393.71	2588.63
393.91	2818.00
394.10	3162.06
394.29	3435.91
394.49	3597.40
394.68	4100.62
394.88	3901.67
395.07	4049.13
395.26	4004.66
395.46	3995.29
395.65	3801.03
395.84	3246.32
396.04	2939.71
396.23	2342.88
396.42	1902.86
396.62	1844.34
396.81	2005.84
397.00	2644.81
397.19	3478.04
397.39	3964.87
397.58	4709.16
397.77	4699.80
397.97	4971.30
398.16	5224.08
398.35	5458.13
398.55	5479.19
398.74	5605.58
398.93	5820.91
399.12	5612.60
399.32	5579.84
399.51	5645.37
399.70	6193.06
399.90	5874.74
400.09	6008.16
400.28	5961.34
400.47	5956.66
400.67	6223.48
400.86	6366.26
401.05	6258.59
401.24	6368.60
401.44	6621.38
401.63	6471.58
401.82	6497.33
402.01	6574.56
402.21	6684.57
402.40	6726.70
402.59	6480.94
402.78	6136.88
402.97	6038.58
403.17	6258.59
403.36	6602.65
403.55	6764.15
403.74	6972.46
403.93	6637.76
404.13	6296.04
404.32	6148.59
404.51	6408.39
404.70	6822.66
404.89	6822.66
405.09	6883.52
405.28	6504.35
405.47	6553.50
405.66	6420.09
405.85	6333.49
406.05	6169.65
406.24	6291.36
406.43	6478.60
406.62	6946.71
406.81	6862.45
407.00	6600.31
407.20	6347.53
407.39	6333.49
407.58	6829.68
407.77	6974.80
407.96	7265.02
408.15	7384.39
408.34	7279.07
408.54	7698.02
408.73	7868.88
408.92	7583.34
409.11	7508.44
409.30	7103.53
409.49	6448.18
409.68	6195.40
409.87	5982.41
410.07	6347.53
410.26	6883.52
410.45	7632.49
410.64	7573.97
410.83	7719.09
411.02	7957.82
411.21	8201.24
411.40	8177.83
411.59	8299.54
411.78	8191.88
411.98	8093.57
412.17	8238.69
412.36	7992.93
412.55	8152.09
412.74	7719.09
412.93	7796.32
413.12	7709.72
413.31	8416.57
413.50	8659.98
413.69	8624.87
413.88	8688.07
414.07	8126.34
414.26	8290.18
414.45	8545.30
414.64	8664.66
414.83	8613.17
415.02	8744.24
415.22	8409.54
415.41	8627.21
415.60	8861.27
415.79	9308.31
415.98	9401.93
416.17	9657.05
416.36	9233.41
416.55	9046.17
416.74	8772.33
416.93	8582.74
417.12	8528.91
417.31	8669.34
417.50	8898.72
417.69	9053.19
417.88	9069.58
418.07	8978.30
418.26	8924.46
418.45	8872.97
418.64	9310.65
418.83	9748.33
419.02	9589.17
419.21	9495.55
419.39	8933.82
419.58	8561.68
419.77	8571.04
419.96	9006.38
420.15	9432.36
420.34	9682.80
420.53	9949.62
420.72	10162.61
420.91	10008.13
421.10	9898.13
421.29	9722.59
421.48	9706.20
421.67	10068.98
421.86	9916.85
422.05	9071.92
422.24	8126.34
422.43	8121.66
422.61	9008.72
422.80	9762.37
422.99	9659.39
423.18	9329.38
423.37	9228.73
423.56	9312.99
423.75	9497.89
423.94	9537.68
424.13	9123.41
424.32	9170.22
424.50	9289.59
424.69	9123.41
424.88	9249.80
425.07	9245.12
425.26	9172.56
425.45	9011.06
425.64	8788.71
425.83	8767.65
426.01	9312.99
426.20	9558.75
426.39	9394.91
426.58	8807.44
426.77	8257.41
426.96	7976.55
427.15	8163.79
427.33	8823.82
427.52	8954.89
427.71	9277.88
427.90	9125.75
428.09	8910.42
428.28	8706.79
428.46	8437.63
428.65	8276.13
428.84	8561.68
429.03	8819.14
429.22	8458.70
429.40	7801.01
429.59	7066.08
429.78	6567.54
429.97	6455.20
430.16	6534.78
430.34	6539.46
430.53	6408.39
430.72	6654.14
430.91	7325.88
431.10	8659.98
431.28	10073.67
431.47	10757.10
431.66	10881.15
431.85	10033.88
432.03	9362.14
432.22	8994.68
432.41	9511.94
432.60	10401.34
432.79	10611.99
432.97	10986.47
433.16	10602.63
433.35	9647.69
433.54	8762.97
433.72	8245.71
433.91	8571.04
434.10	9516.62
434.28	10073.67
434.47	10675.18
434.66	10431.77
434.85	10134.52
435.03	10239.84
435.22	10377.94
435.41	11314.15
435.59	11419.47
435.78	11218.19
435.97	11442.88
436.16	11660.55
436.34	11438.20
436.53	11178.40
436.72	11260.32
436.90	10747.74
437.09	10501.98
437.28	10312.40
437.46	10670.50
437.65	10670.50
437.84	10010.47
438.02	9184.26
438.21	9167.88
438.40	9563.43
438.58	10750.08
438.77	10916.26
438.96	10841.36
439.14	11279.04
439.33	11683.95
439.52	11772.89
439.70	11520.12
439.89	11435.86
440.08	10878.81
440.26	10981.79
440.45	11318.83
440.63	12102.91
440.82	12716.13
441.01	12243.34
441.19	12229.30
441.38	12795.71
441.57	13048.49
441.75	13130.41
441.94	13153.81
442.12	13280.20
442.31	13528.30
442.50	13472.12
442.68	13392.55
442.87	13149.13
443.05	12931.46
443.24	13151.47
443.43	13383.18
443.61	13664.05
443.80	13867.67
443.98	13057.85
444.17	12961.89
444.35	13703.84
444.54	13937.89
444.73	13879.38
444.91	13385.52
445.10	12578.04
445.28	12269.09
445.47	12128.66
445.65	11950.78
445.84	12243.34
446.02	13074.23
446.21	13107.00
446.39	13268.50
446.58	13371.48
446.77	13390.20
446.95	13355.10
447.14	13891.08
447.32	14452.81
447.51	13750.65
447.69	13334.03
447.88	13156.15
448.06	13561.06
448.25	13540.00
448.43	13738.94
448.62	13713.20
448.80	13394.89
448.99	13420.63
449.17	13537.66
449.36	13741.29
449.54	14298.33
449.73	14501.96
449.91	14651.75
450.10	15040.28
450.28	15178.37
450.46	15325.83
450.65	14995.81
450.83	15012.20
451.02	14883.47
451.20	14658.78
451.39	14618.99
451.57	14417.70
451.76	14527.71
451.94	14366.21
452.13	13909.80
452.31	13420.63
452.49	12987.63
452.68	12732.51
452.86	13263.82
453.05	13308.29
453.23	13668.73
453.42	13879.38
453.60	14291.31
453.78	14291.31
453.97	14361.53
454.15	14054.92
454.34	13846.61
454.52	14040.87
454.70	13788.10
454.89	13813.84
455.07	13951.93
455.26	14164.92
455.44	14721.97
455.62	14860.06
455.81	14923.26
455.99	15080.07
456.17	14984.11
456.36	14913.89
456.54	15164.33
456.73	15119.86
456.91	15543.50
457.09	15704.99
457.28	16170.76
457.46	15082.41
457.64	15307.10
457.83	14869.42
458.01	14544.09
458.19	14754.74
458.38	15000.49
458.56	15447.54
458.74	15304.76
458.93	14677.50
459.11	14836.66
459.29	14984.11
459.48	14937.30
459.66	14977.09
459.84	15009.86
460.03	15147.95
460.21	15073.05
460.39	15349.23
460.57	15630.10
460.76	15772.87
460.94	15683.93
461.12	15779.89
461.31	15962.45
461.49	15800.96
461.67	15639.46
461.85	16049.05
462.04	16053.73
462.22	16699.72
462.40	16210.55
462.59	16042.03
462.77	16060.76
462.95	16093.52
463.13	15913.30
463.32	15454.56
463.50	15772.87
463.68	15365.62
463.86	15578.61
464.05	15300.08
464.23	15161.99
464.41	15119.86
464.59	14853.04
464.78	15576.27
464.96	15733.08
465.14	15234.55
465.32	15634.78
465.50	16013.95
465.69	16559.29
465.87	15683.93
466.05	15648.82
466.23	14834.32
466.41	14553.45
466.60	14965.39
466.78	14981.77
466.96	15178.37
467.14	15290.72
467.32	15765.85
467.51	15597.33
467.69	15063.69
467.87	15183.06
468.05	15470.94
468.23	15578.61
468.41	15499.03
468.60	15470.94
468.78	15815.00
468.96	15384.34
469.14	15817.34
469.32	15894.58
469.50	15150.29
469.69	15204.12
469.87	15145.61
470.05	14878.79
470.23	15089.43
470.41	15220.50
470.59	15199.44
470.77	15328.17
470.95	15520.09
471.14	15812.66
471.32	16030.33
471.50	16959.52
471.68	16896.33
471.86	16886.97
472.04	17076.55
472.22	16938.46
472.40	16149.70
472.58	15978.84
472.77	16011.60
472.95	16332.26
473.13	16877.60
473.31	16093.52
473.49	16114.59
473.67	16676.32
473.85	17008.67
474.03	17214.64
474.21	17202.94
474.39	17284.86
474.57	17329.33
474.75	17275.49
474.93	17275.49
475.12	16723.13
475.30	17160.81
475.48	17085.91
475.66	17163.15
475.84	17160.81
476.02	16669.30
476.20	16566.31
476.38	17109.32
476.56	17767.01
476.74	17706.15
476.92	17865.31
477.10	18190.64
477.28	18560.45
477.46	18703.22
477.64	19082.39
477.82	18890.46
478.00	18909.19
478.18	19066.00
478.36	18719.60
478.54	18820.25
478.72	18593.22
478.90	19473.26
479.08	19791.57
479.26	20063.07
479.44	19810.29
479.62	19805.61
479.80	19889.87
479.98	19721.35
480.16	20407.13
480.34	19974.13
480.52	20088.82
480.70	20184.78
480.88	20388.41
481.06	20622.46
481.24	20776.94
481.41	21371.43
481.59	21591.44
481.77	21359.73
481.95	21149.08
482.13	20973.54
482.31	21137.38
482.49	21404.20
482.67	21394.84
482.85	21516.54
483.03	21666.34
483.21	22314.67
483.39	22157.85
483.57	21628.89
483.74	21514.20
483.92	21582.08
484.10	21577.40
484.28	22490.21
484.46	22852.99
484.64	22852.99
484.82	22178.92
485.00	21965.93
485.18	21624.21
485.35	20608.42
485.53	19264.95
485.71	17591.47
485.89	17053.14
486.07	18314.69
486.25	19803.27
486.43	21345.69
486.61	21399.52
486.78	21357.39
486.96	21582.08
487.14	22375.52
487.32	22871.72
487.50	23700.26
487.68	24240.93
487.85	24315.83
488.03	24484.34
488.21	24266.67
488.39	23964.75
488.57	23129.17
488.75	23108.11
488.92	24407.11
489.10	25495.46
489.28	26352.09
489.46	26815.52
489.64	26869.35
489.81	27285.97
489.99	26679.77
490.17	26689.13
490.35	27110.43
490.53	26867.01
490.70	26536.99
490.88	26480.82
491.06	27040.21
491.24	27185.32
491.41	26178.89
491.59	24985.22
491.77	24608.39
491.95	25500.14
492.13	26164.85
492.30	27400.65
492.48	28135.58
492.66	28243.24
492.84	28472.62
493.01	28231.54
493.19	28004.51
493.37	26988.72
493.54	27145.53
493.72	27637.05
493.90	28542.83
494.08	29528.20
494.25	29923.75
494.43	30242.06
494.61	30293.55
494.79	30419.94
494.96	30625.91
495.14	29708.42
495.32	28849.44
495.49	28245.58
495.67	29074.13
495.85	30504.20
496.02	31161.89
496.20	31012.10
496.38	30309.94
496.55	30366.11
496.73	30642.29
496.91	31058.91
497.09	31173.60
497.26	31667.45
497.44	31096.36
497.62	30485.48
497.79	29659.27
497.97	28404.74
498.14	28521.77
498.32	30052.48
498.50	30911.46
498.67	31108.06
498.85	30904.43
499.03	31796.18
499.20	31613.62
499.38	31906.18
499.56	31508.29
499.73	30752.30
499.91	30335.68
500.08	30141.42
500.26	29249.67
500.44	30089.93
500.61	30473.78
500.79	30497.18
500.97	29776.30
501.14	29914.39
501.32	29645.23
501.49	29750.55
501.67	30099.29
501.84	30515.90
502.02	30597.82
502.20	30773.36
502.37	31318.71
502.55	31417.01
502.72	31842.99
502.90	32528.77
503.07	31803.20
503.25	31613.62
503.43	30735.92
503.60	30541.65
503.78	29228.61
503.95	29785.66
504.13	31267.22
504.30	32339.18
504.48	31999.80
504.65	32011.51
504.83	31489.57
505.01	32751.12
505.18	32503.02
505.36	33493.07
505.53	33715.42
505.71	33668.61
505.88	34181.18
506.06	32882.19
506.23	32547.49
506.41	31747.03
506.58	32624.73
506.76	32493.66
506.93	32598.98
507.11	31859.37
507.28	32250.24
507.46	31709.58
507.63	31124.44
507.81	30904.43
507.98	31421.69
508.16	32219.81
508.33	33013.26
508.50	33364.34
508.68	33757.55
508.85	34171.82
509.03	34171.82
509.20	33787.97
509.38	32706.65
509.55	31955.33
509.73	32350.88
509.90	33074.11
510.08	32905.59
510.25	33153.69
510.42	32992.19
510.60	32566.21
510.77	33378.38
510.95	33965.85
511.12	34328.64
511.30	34391.83
511.47	34944.20
511.64	34754.61
511.82	34312.25
511.99	33015.60
512.17	32659.84
512.34	32198.75
512.51	32486.64
512.69	32332.16
512.86	33242.63
513.04	33116.24
513.21	33429.87
513.38	32858.78
513.56	32390.67
513.73	31590.21
513.90	31924.91
514.08	31981.08
514.25	31658.09
514.43	32369.61
514.60	32299.39
514.77	32940.70
514.95	32936.02
515.12	32533.45
515.29	33394.76
515.47	33797.34
515.64	34424.60
515.81	33439.23
515.99	32835.38
516.16	31173.60
516.33	28339.21
516.51	27381.93
516.68	26253.79
516.85	26431.67
517.03	26176.55
517.20	28943.06
517.37	31833.63
517.54	33113.90
517.72	32259.60
517.89	29326.91
518.06	27330.44
518.24	27597.26
518.41	29930.77
518.58	31328.07
518.75	31321.05
518.93	31550.42
519.10	31442.76
519.27	31906.18
519.45	32341.52
519.62	33362.00
519.79	33390.08
519.96	33228.59
520.14	32357.91
520.31	31730.64
520.48	31737.66
520.65	32177.68
520.83	33413.49
521.00	34000.96
521.17	33593.71
521.34	33184.12
521.52	33266.03
521.69	34316.93
521.86	34485.45
522.03	34213.95
522.20	32533.45
522.38	31225.09
522.55	31517.65
522.72	32226.84
522.89	32472.59
523.07	32723.03
523.24	33369.02
523.41	34146.08
523.58	34586.10
523.75	34885.68
523.92	35124.42
524.10	34827.17
524.27	34918.45
524.44	34609.50
524.61	34391.83
524.78	33897.98
524.96	34197.57
525.13	34375.45
525.30	34300.55
525.47	35040.16
525.64	34848.24
525.81	33809.04
525.98	32201.09
526.16	30504.20
526.33	29771.61
526.50	29350.32
526.67	28828.38
526.84	29792.68
527.01	30756.98
527.18	32142.58
527.36	33017.94
527.53	33806.70
527.70	34206.93
527.87	33202.84
528.04	33085.81
528.21	33670.95
528.38	34211.61
528.55	35419.33
528.72	35852.33
528.89	36023.19
529.07	35349.11
529.24	34574.39
529.41	33802.02
529.58	32971.13
529.75	33167.73
529.92	33631.16
530.09	34330.98
530.26	34904.41
530.43	35180.59
530.60	35096.33
530.77	35545.72
530.94	35761.05
531.11	35002.71
531.28	34316.93
531.46	33780.95
531.63	34560.35
531.80	34382.47
531.97	33954.15
532.14	33167.73
532.31	31714.26
532.48	31072.95
532.65	31077.63
532.82	32238.54
532.99	33390.08
533.16	33666.27
533.33	34742.91
533.50	34197.57
533.67	33158.37
533.84	33369.02
534.01	33275.40
534.18	33305.82
534.35	33902.66
534.52	33472.00
534.69	33628.82
534.86	34249.06
535.03	34277.15
535.20	35358.47
535.37	35508.27
535.54	35529.33
535.71	35424.01
535.88	35096.33
536.05	33397.10
536.22	33558.60
536.38	32793.25
536.55	32568.55
536.72	31868.73
536.89	32133.21
537.06	32701.96
537.23	33811.38
537.40	34253.74
537.57	34227.99
537.74	34094.58
537.91	33916.70
538.08	34043.09
538.25	33816.06
538.42	34026.71
538.59	33778.61
538.75	32739.41
538.92	32634.09
539.09	32407.06
539.26	32748.78
539.43	32563.87
539.60	32140.24
539.77	32645.79
539.94	32304.07
540.11	31438.08
540.28	31204.02
540.44	30991.03
540.61	31229.77
540.78	31777.45
540.95	32400.04
541.12	32629.41
541.29	33172.41
541.46	33390.08
541.62	33046.02
541.79	33076.45
541.96	32250.24
542.13	31901.50
542.30	32966.45
542.47	33254.33
542.63	32914.95
542.80	32608.34
542.97	32622.39
543.14	32566.21
543.31	32524.08
543.48	32898.57
543.64	34462.05
543.81	34117.99
543.98	34497.16
544.15	32943.04
544.32	32753.46
544.48	32697.28
544.65	33109.22
544.82	33589.03
544.99	33350.29
545.16	32545.15
545.32	32491.32
545.49	33813.72
545.66	34033.73
545.83	33954.15
546.00	33319.87
546.16	32741.75
546.33	32409.40
546.50	32989.85
546.67	33324.55
546.83	32886.87
547.00	32400.04
547.17	31681.49
547.34	31129.12
547.50	31185.30
547.67	31707.24
547.84	31838.31
548.00	32121.51
548.17	32666.86
548.34	32503.02
548.51	32781.54
548.67	33067.09
548.84	32804.95
549.01	32961.76
549.18	32622.39
549.34	32589.62
549.51	32826.01
549.68	32463.23
549.84	32357.91
550.01	32409.40
550.18	32247.90
550.34	31810.22
550.51	32250.24
550.68	32217.47
550.84	31211.04
551.01	32041.93
551.18	31662.77
551.34	31971.72
551.51	32222.16
551.68	32940.70
551.84	32664.52
552.01	32465.57
552.18	32142.58
552.34	31585.53
552.51	31007.42
552.68	31281.26
552.84	31681.49
553.01	31459.14
553.18	31828.95
553.34	31412.33
553.51	31887.46
553.67	31889.80
553.84	32671.54
554.01	31929.59
554.17	32325.14
554.34	32142.58
554.51	32430.46
554.67	32144.92
554.84	32723.03
555.00	31758.73
555.17	31742.35
555.33	31592.55
555.50	31519.99
555.67	31648.72
555.83	31672.13
556.00	31267.22
556.16	31274.24
556.33	30836.56
556.50	30185.89
556.66	30541.65
556.83	30433.99
556.99	30658.68
557.16	30742.94
557.32	30876.35
557.49	31019.12
557.65	30820.17
557.82	31318.71
557.98	30553.35
558.15	30199.93
558.32	29420.53
558.48	28994.56
558.65	29315.21
558.81	29214.57
558.98	29460.32
559.14	30113.33
559.31	30113.33
559.47	30089.93
559.64	29312.87
559.80	29142.01
559.97	29116.26
560.13	29394.79
560.30	30766.34
560.46	31248.49
560.63	31510.63
560.79	31281.26
560.96	31129.12
561.12	30136.74
561.29	28933.70
561.45	29071.79
561.61	29685.01
561.78	30082.91
561.94	30059.50
562.11	29745.87
562.27	29551.60
562.44	30143.76
562.60	30274.83
562.77	30419.94
562.93	30387.18
563.10	30618.89
563.26	29380.74
563.42	29893.32
563.59	29802.04
563.75	29673.31
563.92	29532.88
564.08	29450.96
564.24	30022.05
564.41	29900.34
564.57	29612.46
564.74	29820.77
564.90	29326.91
565.07	29319.89
565.23	29111.58
565.39	28444.53
565.56	28121.54
565.72	27920.25
565.88	28456.23
566.05	28187.07
566.21	28732.42
566.38	28320.48
566.54	29015.62
566.70	29401.81
566.87	29621.82
567.03	29523.52
567.19	29668.63
567.36	29350.32
567.52	29284.78
567.68	29001.58
567.85	28329.84
568.01	27948.34
568.17	27655.77
568.34	27637.05
568.50	27821.95
568.66	27903.87
568.83	28402.40
568.99	28023.23
569.15	28814.34
569.32	28332.18
569.48	27847.69
569.64	28285.37
569.81	27644.07
569.97	27627.68
570.13	27669.81
570.30	27082.34
570.46	26513.59
570.62	26192.94
570.78	26005.69
570.95	26529.97
571.11	27112.77
571.27	27576.19
571.43	27358.52
571.60	27639.39
571.76	27974.08
571.92	28105.15
572.09	28617.73
572.25	28184.73
572.41	28156.64
572.57	28252.61
572.74	28053.66
572.90	27545.76
573.06	27880.46
573.22	27913.23
573.38	27466.19
573.55	27885.14
573.71	28201.11
573.87	28180.05
574.03	27229.79
574.20	27388.95
574.36	27278.94
574.52	27358.52
574.68	26806.16
574.84	26778.07
575.01	26366.13
575.17	26347.41
575.33	26480.82
575.49	26782.75
575.65	26836.58
575.82	26707.85
575.98	26780.41
576.14	26862.33
576.30	27101.06
576.46	27087.02
576.62	26960.63
576.79	26979.36
576.95	26513.59
577.11	26597.85
577.27	27096.38
577.43	26724.24
577.59	26728.92
577.75	26228.04
577.92	25432.26
578.08	25296.51
578.24	25345.66
578.40	25652.27
578.56	26202.30
578.72	25968.24
578.88	26237.41
579.04	26209.32
579.21	26448.05
579.37	26309.96
579.53	26431.67
579.69	26321.66
579.85	26780.41
580.01	26473.80
580.17	26426.99
580.33	26157.83
580.49	26141.44
580.65	26450.39
580.82	26405.92
580.98	26562.74
581.14	26515.93
581.30	26663.38
581.46	26134.42
581.62	26405.92
581.78	26206.98
581.94	26909.14
582.10	26654.02
582.26	26794.45
582.42	26443.37
582.58	26717.22
582.74	26253.79
582.90	26829.56
583.06	26775.73
583.22	26321.66
583.38	26560.40
583.54	26401.24
583.70	26120.38
583.86	26150.81
584.02	26314.64
584.18	26434.01
584.34	25820.79
584.50	25881.64
584.66	25912.07
584.82	25685.04
584.98	25343.32
585.14	25228.63
585.30	24711.38
585.46	24879.89
585.62	24484.34
585.78	24884.58
585.94	24760.53
586.10	25261.40
586.26	25207.57
586.42	25497.80
586.58	25467.37
586.74	25406.52
586.90	25556.31
587.06	25324.60
587.22	25490.77
587.38	25130.33
587.54	24599.03
587.70	24769.89
587.86	24790.95
588.02	24329.87
588.18	24285.40
588.34	23613.66
588.49	22209.34
588.65	21137.38
588.81	20900.98
588.97	21085.89
589.13	20783.96
589.29	21078.86
589.45	21408.88
589.61	21921.46
589.77	22705.54
589.93	23475.57
590.08	24070.07
590.24	23744.73
590.40	24259.65
590.56	23871.12
590.72	24222.20
590.88	23218.11
591.04	23077.68
591.20	23082.36
591.35	23676.86
591.51	23915.59
591.67	23721.33
591.83	23304.71
591.99	23257.90
592.15	23440.47
592.31	23939.00
592.46	23690.90
592.62	23393.65
592.78	23400.68
592.94	23281.31
593.10	23419.40
593.26	23627.71
593.41	23688.56
593.57	23669.84
593.73	23220.45
593.89	23101.09
594.05	23159.60
594.20	22775.75
594.36	22417.65
594.52	22515.95
594.68	22462.12
594.84	22740.64
594.99	22881.08
595.15	23002.78
595.31	23351.52
595.47	22916.19
595.62	23119.81
595.78	23110.45
595.94	23522.38
596.10	23360.89
596.25	22941.93
596.41	23211.09
596.57	23143.22
596.73	23136.20
596.88	23042.57
597.04	23342.16
597.20	22604.89
597.36	22654.05
597.51	22843.63
597.67	22967.68
597.83	22909.16
597.99	22422.33
598.14	22354.46
598.30	22405.95
598.46	22288.92
598.61	22553.40
598.77	22223.39
598.93	22782.77
599.09	22628.30
599.24	22771.07
599.40	22717.24
599.56	22576.81
599.71	22555.74
599.87	22738.30
600.03	22773.41
600.18	22403.61
600.34	21851.24
600.50	22054.87
600.65	22150.83
600.81	22197.64
600.97	22003.38
601.12	21671.02
601.28	22129.77
601.44	22195.30
601.59	21621.87
601.75	21844.22
601.91	21511.86
602.06	21785.71
602.22	21930.82
602.37	21659.32
602.53	21923.80
602.69	22022.10
602.84	22539.36
603.00	22267.86
603.16	22122.74
603.31	22265.52
603.47	22462.12
603.62	22192.96
603.78	22190.62
603.94	22267.86
604.09	21881.67
604.25	21872.31
604.40	21874.65
604.56	22113.38
604.71	21926.14
604.87	21820.81
605.03	21884.01
605.18	21738.90
605.34	21996.35
605.49	21774.00
605.65	21802.09
605.80	21664.00
605.96	21729.53
606.12	21010.99
606.27	21149.08
606.43	21109.29
606.58	21249.72
606.74	21717.83
606.89	21645.27
607.05	21495.48
607.20	21535.27
607.36	21254.40
607.51	21008.65
607.67	21057.80
607.82	21174.83
607.98	21022.69
608.13	20957.16
608.29	20959.50
608.44	20767.57
608.60	20753.53
608.75	20713.74
608.91	20807.36
609.06	20933.75
609.22	20805.02
609.37	21039.08
609.53	20971.20
609.68	20561.61
609.84	20053.71
609.99	20189.46
610.15	20645.87
610.30	20697.36
610.46	20549.90
610.61	21282.49
610.76	21191.21
610.92	21165.46
611.07	21350.37
611.23	21544.63
611.38	21399.52
611.54	21015.67
611.69	20512.46
611.84	20308.83
612.00	20065.41
612.15	19513.05
612.31	20339.26
612.46	20046.69
612.62	19864.13
612.77	20053.71
612.92	20332.23
613.08	20013.92
613.23	19393.68
613.39	19232.18
613.54	19058.98
613.69	19524.75
613.85	19101.11
614.00	19618.37
614.15	19742.42
614.31	19784.55
614.46	19910.94
614.62	19646.46
614.77	19789.23
614.92	19454.53
615.08	19421.77
615.23	19681.56
615.38	19365.59
615.54	18948.98
615.69	18422.36
615.84	17898.08
616.00	17802.11
616.15	18080.64
616.30	18675.13
616.46	18553.43
616.61	18558.11
616.76	18677.48
616.92	18558.11
617.07	18719.60
617.22	18668.11
617.37	18970.04
617.53	18836.63
617.68	18979.40
617.83	19157.28
617.99	19019.19
618.14	18869.40
618.29	19199.41
618.45	18494.91
618.60	18700.88
618.75	18429.38
618.90	18352.14
619.06	18455.12
619.21	18459.81
619.36	18843.65
619.51	18895.14
619.67	18438.74
619.82	18604.92
619.97	18815.57
620.12	18457.46
620.28	18478.53
620.43	18497.25
620.58	18588.53
620.73	18719.60
620.89	18349.80
621.04	18288.95
621.19	18366.18
621.34	17823.18
621.49	17998.72
621.65	17874.67
621.80	18267.88
621.95	17783.39
622.10	18026.81
622.25	17949.57
622.41	18134.47
622.56	17717.86
622.71	17380.82
622.86	17490.82
623.01	17406.56
623.16	17659.34
623.32	17689.77
623.47	17748.28
623.62	17404.22
623.77	17284.86
623.92	17432.31
624.07	17198.26
624.23	16774.62
624.38	16725.47
624.53	17085.91
624.68	17081.23
624.83	17069.53
624.98	16802.71
625.13	16652.91
625.29	16634.19
625.44	16547.59
625.59	16739.51
625.74	16599.08
625.89	16741.85
626.04	16802.71
626.19	16814.41
626.34	17102.29
626.49	16952.50
626.65	16505.46
626.80	16786.32
626.95	16587.38
627.10	16765.26
627.25	16250.34
627.40	15927.35
627.55	15466.26
627.70	15536.48
627.85	15543.50
628.00	15683.93
628.15	15978.84
628.30	16046.71
628.45	15779.89
628.60	16142.67
628.76	16070.12
628.91	16133.31
629.06	15887.56
629.21	15929.69
629.36	15843.09
629.51	15634.78
629.66	15501.37
629.81	15108.16
629.96	15316.47
630.11	15218.16
630.26	15845.43
630.41	15997.56
630.56	16161.40
630.71	15829.04
630.86	15847.77
631.01	15597.33
631.16	15279.02
631.31	15194.76
631.46	14972.41
631.61	15276.68
631.76	15550.52
631.91	15541.16
632.06	15592.65
632.21	15779.89
632.36	15688.61
632.51	15508.39
632.66	15447.54
632.81	15569.24
632.96	15597.33
633.10	15215.82
633.25	15087.09
633.40	15215.82
633.55	15316.47
633.70	15094.11
633.85	15267.31
634.00	15349.23
634.15	14953.68
634.30	15510.73
634.45	14930.28
634.60	15066.03
634.75	15140.93
634.90	15255.61
635.05	15253.27
635.19	15246.25
635.34	15021.56
635.49	15199.44
635.64	14789.85
635.79	14656.43
635.94	14906.87
636.09	14831.97
636.24	14850.70
636.39	15096.46
636.53	15297.74
636.68	15047.30
636.83	14820.27
636.98	15098.80
637.13	14658.78
637.28	14759.42
637.43	14881.13
637.57	15201.78
637.72	14984.11
637.87	15218.16
638.02	14679.84
638.17	15042.62
638.32	15073.05
638.46	14700.90
638.61	15112.84
638.76	14839.00
638.91	14544.09
639.06	14328.76
639.20	14541.75
639.35	14658.78
639.50	14303.01
639.65	14429.40
639.80	14005.77
639.94	14106.41
640.09	14445.79
640.24	14445.79
640.39	14202.37
640.54	14141.52
640.68	14001.08
640.83	13984.70
640.98	13937.89
641.13	13657.03
641.27	14097.05
641.42	14010.45
641.57	14242.16
641.72	13881.72
641.86	13762.35
642.01	14068.96
642.16	14288.97
642.31	14118.11
642.45	14265.57
642.60	14139.18
642.75	14068.96
642.90	14047.90
643.04	14031.51
643.19	13973.00
643.34	13853.63
643.48	13570.43
643.63	13888.74
643.78	13743.63
643.93	13886.40
644.07	14015.13
644.22	14031.51
644.37	13755.33
644.51	13764.69
644.66	13741.29
644.81	13558.72
644.95	13877.04
645.10	13577.45
645.25	13434.68
645.39	13345.73
645.54	13479.15
645.69	13334.03
645.83	13041.46
645.98	12898.69
646.13	13008.70
646.27	13366.80
646.42	12875.29
646.57	13067.21
646.71	13036.78
646.86	12767.62
647.00	12886.99
647.15	13048.49
647.30	12957.21
647.44	12758.26
647.59	12840.18
647.74	12849.54
647.88	12540.59
648.03	12496.12
648.17	12823.80
648.32	12943.16
648.47	12919.76
648.61	12606.13
648.76	12814.43
648.90	12404.84
649.05	11847.79
649.20	11866.52
649.34	11967.16
649.49	11995.25
649.63	12018.65
649.78	12376.75
649.92	12318.24
650.07	12678.68
650.21	12638.89
650.36	12765.28
650.51	12830.82
650.65	12842.52
650.80	12996.99
650.94	12823.80
651.09	12292.49
651.23	12498.46
651.38	12414.20
651.52	12093.55
651.67	12177.81
651.81	12547.61
651.96	12259.73
652.10	12231.64
652.25	12322.92
652.39	12437.61
652.54	12648.26
652.68	12409.52
652.83	12343.99
652.97	12250.36
653.12	12362.71
653.26	12393.14
653.41	12355.69
653.55	12280.79
653.70	12322.92
653.84	12280.79
653.99	12180.15
654.13	11707.36
654.27	11733.11
654.42	11847.79
654.56	11770.55
654.71	11789.28
654.85	11576.29
655.00	11552.88
655.14	11307.13
655.29	11047.33
655.43	11157.33
655.57	10621.35
655.72	9858.34
655.86	9064.89
656.01	8631.90
656.15	8706.79
656.30	9373.85
656.44	9877.06
656.58	10157.92
656.73	10583.90
656.87	10916.26
657.01	10871.79
657.16	11232.23
657.30	11239.25
657.45	11459.26
657.59	11522.46
657.73	11339.90
657.88	11597.35
658.02	11529.48
658.16	11590.33
658.31	11524.80
658.45	11492.03
658.60	11508.41
658.74	11293.08
658.88	11311.81
659.03	10862.43
659.17	11059.03
659.31	11307.13
659.46	11096.48
659.60	11337.56
659.74	11398.41
659.89	11419.47
660.03	11375.00
660.17	11456.92
660.32	11232.23
660.46	11178.40
660.60	11082.44
660.74	11276.70
660.89	11297.77
661.03	11049.67
661.17	11000.52
661.32	11063.71
661.46	11063.71
661.60	11049.67
661.74	11290.74
661.89	11389.05
662.03	10965.41
662.17	11183.08
662.31	11096.48
662.46	11145.63
662.60	11098.82
662.74	10649.44
662.88	10675.18
663.03	10607.31
663.17	10429.43
663.31	10422.41
663.45	10644.76
663.60	10401.34
663.74	10626.03
663.88	10633.05
664.02	10574.54
664.17	10607.31
664.31	10464.54
664.45	10588.58
664.59	10656.46
664.73	10562.84
664.88	10824.98
665.02	10356.87
665.16	10567.52
665.30	10413.04
665.44	10546.45
665.59	10338.15
665.73	10324.10
665.87	10284.31
666.01	10246.87
666.15	9966.00
666.29	9935.57
666.44	9980.04
666.58	10244.52
666.72	10286.65
666.86	10188.35
667.00	10300.70
667.14	10040.90
667.28	10040.90
667.43	10024.51
667.57	10090.05
667.71	10143.88
667.85	10068.98
667.99	9886.42
668.13	10038.56
668.27	10015.15
668.41	10314.74
668.56	9886.42
668.70	9919.19
668.84	9750.67
668.98	9811.53
669.12	9954.30
669.26	9973.02
669.40	9970.68
669.54	9647.69
669.68	9738.97
669.82	9827.91
669.96	9827.91
670.10	9462.79
670.25	9514.28
670.39	9420.66
670.53	9373.85
670.67	9638.33
670.81	9540.02
670.95	9441.72
671.09	9324.69
671.23	9282.56
671.37	9252.14
671.51	9338.74
671.65	9310.65
671.79	9207.67
671.93	9163.20
672.07	9088.30
672.21	9390.23
672.35	9184.26
672.49	9247.46
672.63	9261.50
672.77	9238.09
672.91	9055.53
673.05	9015.74
673.19	8992.34
673.33	9046.17
673.47	9046.17
673.61	8964.25
673.75	8898.72
673.89	8978.30
674.03	8865.95
674.17	8910.42
674.31	8798.07
674.45	8865.95
674.59	8830.84
674.73	8638.92
674.87	8805.10
675.01	8870.63
675.15	8826.16
675.29	8798.07
675.43	8475.08
675.56	8622.53
675.70	8645.94
675.84	8585.08
675.98	8198.90
676.12	8606.15
676.26	8676.37
676.40	8582.74
676.54	8578.06
676.68	8423.59
676.82	8280.82
676.96	8386.14
677.10	8500.83
677.23	8264.43
677.37	8184.85
677.51	8519.55
677.65	8262.09
677.79	8369.76
677.93	8180.17
678.07	7997.61
678.21	8002.29
678.34	7864.20
678.48	7929.74
678.62	8042.08
678.76	8166.13
678.90	7857.18
679.04	8025.70
679.18	7744.83
679.31	7836.11
679.45	7929.74
679.59	7719.09
679.73	7887.61
679.87	7733.13
680.00	7625.47
680.14	7644.19
680.28	7634.83
680.42	7595.04
680.56	7599.72
680.70	7358.64
680.83	7508.44
680.97	7485.03
681.11	7485.03
681.25	7407.80
681.39	7433.54
681.52	7515.46
681.66	7566.95
681.80	7330.56
681.94	7248.64
682.07	7389.07
682.21	7267.36
682.35	7243.96
682.49	7129.27
682.62	7187.79
682.76	7080.12
682.90	7126.93
683.04	6923.30
683.17	6932.67
683.31	6967.77
683.45	6923.30
683.59	6885.86
683.72	6836.70
683.86	6471.58
684.00	6773.51
684.13	6616.69
684.27	6759.47
684.41	6574.56
684.55	6633.08
684.68	6616.69
684.82	6698.61
684.96	6822.66
685.09	6525.41
685.23	6457.54
685.37	6473.92
685.50	6375.62
685.64	6485.62
685.78	6249.23
685.91	6373.28
686.05	6296.04
686.19	6188.38
686.32	5795.17
686.46	5193.65
686.60	4486.81
686.73	4320.63
686.87	4084.23
687.01	3939.12
687.14	4131.05
687.28	4002.32
687.42	4332.33
687.55	4580.43
687.69	4873.00
687.82	4887.04
687.96	5219.39
688.10	5273.23
688.23	5320.04
688.37	5046.20
688.50	4894.06
688.64	4887.04
688.78	4812.14
688.91	4847.25
689.05	4755.97
689.18	4844.91
689.32	4755.97
689.46	4648.30
689.59	4695.11
689.73	4823.84
689.86	4929.17
690.00	4861.29
690.13	4823.84
690.27	4830.87
690.41	4938.53
690.54	4746.61
690.68	4938.53
690.81	4985.34
690.95	5020.45
691.08	4992.36
691.22	4905.76
691.35	4877.68
691.49	4929.17
691.62	4971.30
691.76	4973.64
691.89	5004.07
692.03	4842.57
692.16	4812.14
692.30	4727.88
692.43	4788.74
692.57	4638.94
692.70	4739.58
692.84	4725.54
692.97	4709.16
693.11	4554.68
693.24	4580.43
693.38	4538.30
693.51	4681.07
693.65	4648.30
693.78	4477.44
693.92	4472.76
694.05	4451.70
694.19	4414.25
694.32	4428.29
694.45	4432.97
694.59	4294.88
694.72	4496.17
694.86	4402.55
694.99	4475.10
695.13	4271.48
695.26	4397.87
695.39	4297.22
695.53	4217.65
695.66	4329.99
695.80	4264.46
695.93	4100.62
696.07	4329.99
696.20	4484.47
696.33	4255.09
696.47	4402.55
696.60	4355.74
696.73	4430.63
696.87	4451.70
697.00	4550.00
697.14	4355.74
697.27	4374.46
697.40	4161.47
697.54	4049.13
697.67	4077.21
697.80	4196.58
697.94	4159.13
698.07	4028.06
698.21	3983.59
698.34	4091.26
698.47	3950.82
698.61	3896.99
698.74	3709.75
698.87	4002.32
699.01	3854.86
699.14	3983.59
699.27	3976.57
699.40	4004.66
699.54	3831.46
699.67	3786.99
699.80	3810.39
699.94	3672.30
700.07	3653.58
700.20	3723.79
700.34	3485.06
700.47	3538.89
700.60	3325.90
700.73	3698.05
700.87	3543.57
701.00	3616.13
701.13	3363.35
701.26	3489.74
701.40	3328.24
701.53	3463.99
701.66	3438.25
701.79	3473.36
701.93	3398.46
702.06	3389.10
702.19	3375.05
702.32	3234.62
702.46	3349.31
702.59	3311.86
702.72	3384.41
702.85	3325.90
702.99	3412.50
703.12	3321.22
703.25	3283.77
703.38	3290.79
703.51	3356.33
703.65	3199.51
703.78	3213.56
703.91	3283.77
704.04	3368.03
704.17	3279.09
704.31	3236.96
704.44	3138.66
704.57	3281.43
704.70	3286.11
704.83	3225.26
704.96	3096.53
705.10	3124.62
705.23	3063.76
>>>>>End Processed Spectral Data<<<<<
