SpectraSuite Data File
++++++++++++++++++++++++++++++++++++
Date: Mon Oct 07 14:54:58 GMT-05:00 2013
User: price-jones
Dark Spectrum Present: No
Reference Spectrum Present: No
Number of Sampled Component Spectra: 1
Spectrometers: USB2+H05261
Integration Time (usec): 10000 (USB2+H05261)
Spectra Averaged: 1 (USB2+H05261)
Boxcar Smoothing: 0 (USB2+H05261)
Correct for Electrical Dark: No (USB2+H05261)
Strobe/Lamp Enabled: No (USB2+H05261)
Correct for Detector Non-linearity: No (USB2+H05261)
Correct for Stray Light: No (USB2+H05261)
Number of Pixels in Processed Spectrum: 2048
>>>>>Begin Processed Spectral Data<<<<<
365.73	0.00
365.92	0.00
366.12	0.00
366.32	0.00
366.52	0.00
366.72	0.00
366.91	0.00
367.11	0.00
367.31	0.00
367.51	0.00
367.70	0.00
367.90	0.00
368.10	0.00
368.30	0.00
368.49	0.00
368.69	0.00
368.89	0.00
369.09	0.00
369.28	0.00
369.48	0.00
369.68	0.00
369.87	0.00
370.07	0.00
370.27	0.00
370.47	182.56
370.66	1504.96
370.86	1783.49
371.06	1872.43
371.25	1750.72
371.45	1603.27
371.65	1430.07
371.84	1430.07
372.04	1572.84
372.24	1774.13
372.44	1820.94
372.63	1788.17
372.83	1474.54
373.03	1455.81
373.22	1231.12
373.42	1542.41
373.62	1675.82
373.81	1769.44
374.01	1673.48
374.21	1516.67
374.40	1507.30
374.60	1603.27
374.79	1769.44
374.99	2054.99
375.19	2216.49
375.38	2087.76
375.58	2040.95
375.78	2031.58
375.97	2003.50
376.17	2010.52
376.37	2033.93
376.56	2155.63
376.76	2370.96
376.95	2499.69
377.15	2684.59
377.35	2876.52
377.54	2864.82
377.74	3059.08
377.93	2988.86
378.13	2761.83
378.33	2609.70
378.52	2464.58
378.72	2249.25
378.91	2090.10
379.11	2413.09
379.31	2134.57
379.50	2150.95
379.70	2413.09
379.89	2693.96
380.09	2848.43
380.28	2836.73
380.48	2939.71
380.68	3028.65
380.87	2621.40
381.07	2487.99
381.26	2242.23
381.46	2071.37
381.65	2104.14
381.85	1944.99
382.04	1870.09
382.24	1760.08
382.43	1771.79
382.63	1591.56
382.83	1701.57
383.02	1720.29
383.22	1598.59
383.41	1607.95
383.61	1877.11
383.80	2157.97
384.00	2523.10
384.19	2722.04
384.39	2890.56
384.58	2785.24
384.78	2897.58
384.97	2843.75
385.17	2602.68
385.36	2300.75
385.56	2275.00
385.75	2457.56
385.95	2715.02
386.14	2958.44
386.34	2848.43
386.53	2771.19
386.72	2679.91
386.92	2663.53
387.11	2913.97
387.31	2902.26
387.50	2871.84
387.70	2918.65
387.89	2705.66
388.09	2789.92
388.28	2745.45
388.48	2888.22
388.67	3192.49
388.86	3515.48
389.06	3557.61
389.25	3817.41
389.45	3929.76
389.64	3660.60
389.84	3763.58
390.03	3789.33
390.22	3794.01
390.42	3906.35
390.61	4318.29
390.81	4388.50
391.00	4491.49
391.19	4416.59
391.39	4074.87
391.58	3985.93
391.78	3747.20
391.97	3653.58
392.16	3267.39
392.36	2778.22
392.55	2223.51
392.75	1739.02
392.94	1528.37
393.13	1624.33
393.33	2033.93
393.52	2628.42
393.71	3108.23
393.91	3405.48
394.10	3786.99
394.29	4210.62
394.49	4402.55
394.68	4613.20
394.88	4730.22
395.07	4868.31
395.26	4713.84
395.46	4447.02
395.65	4194.24
395.84	3611.45
396.04	3056.74
396.23	2539.48
396.42	1987.11
396.62	2172.02
396.81	2600.34
397.00	3463.99
397.19	4194.24
397.39	4896.40
397.58	5308.34
397.77	5680.48
397.97	5813.89
398.16	5781.12
398.35	6094.76
398.55	6476.26
398.74	6654.14
398.93	6637.76
399.12	6647.12
399.32	6342.85
399.51	6600.31
399.70	7084.80
399.90	6747.76
400.09	6923.30
400.28	7133.95
400.47	7073.10
400.67	7283.75
400.86	7382.05
401.05	7438.22
401.24	7452.27
401.44	7660.57
401.63	7578.65
401.82	7616.10
402.01	7590.36
402.21	7590.36
402.40	7765.90
402.59	7414.82
402.78	7016.93
402.97	6939.69
403.17	7281.41
403.36	7655.89
403.55	7882.92
403.74	7639.51
403.93	7412.48
404.13	6883.52
404.32	7002.88
404.51	7499.08
404.70	7681.64
404.89	7836.11
405.09	7590.36
405.28	7328.22
405.47	7669.94
405.66	7515.46
405.85	7131.61
406.05	6956.07
406.24	7281.41
406.43	7314.17
406.62	7646.53
406.81	7740.15
407.00	7555.25
407.20	7192.47
407.39	7358.64
407.58	7946.12
407.77	8135.70
407.96	8287.84
408.15	8362.73
408.34	8631.90
408.54	8999.36
408.73	8931.48
408.92	8767.65
409.11	8276.13
409.30	8091.23
409.49	7360.98
409.68	7150.34
409.87	7026.29
410.07	7791.64
410.26	8116.98
410.45	8479.76
410.64	8697.43
410.83	9095.32
411.02	9408.95
411.21	9427.68
411.40	9542.36
411.59	9441.72
411.78	9390.23
411.98	9151.49
412.17	9334.06
412.36	9193.62
412.55	9284.91
412.74	8917.44
412.93	8887.01
413.12	9193.62
413.31	9771.74
413.50	9844.29
413.69	9785.78
413.88	9275.54
414.07	9446.40
414.26	9680.46
414.45	9839.61
414.64	9912.17
414.83	9942.60
415.02	9844.29
415.22	9645.35
415.41	9795.14
415.60	10289.00
415.79	10473.90
415.98	10796.89
416.17	10539.43
416.36	10420.06
416.55	10478.58
416.74	10071.33
416.93	9666.41
417.12	9930.89
417.31	9753.01
417.50	9844.29
417.69	10242.18
417.88	10352.19
418.07	10092.39
418.26	10038.56
418.45	10427.09
418.64	10789.87
418.83	11047.33
419.02	10677.52
419.21	10410.70
419.39	9928.55
419.58	9659.39
419.77	9802.16
419.96	10253.89
420.15	10895.19
420.34	11234.57
420.53	11812.68
420.72	11676.93
420.91	11438.20
421.10	11211.17
421.29	11262.66
421.48	11094.14
421.67	11328.19
421.86	10665.82
422.05	9790.46
422.24	9228.73
422.43	9525.98
422.61	10487.94
422.80	11007.54
422.99	10892.85
423.18	10602.63
423.37	10483.26
423.56	10874.13
423.75	10801.57
423.94	10890.51
424.13	10415.38
424.32	10064.30
424.50	9902.81
424.69	10307.72
424.88	10420.06
425.07	10218.78
425.26	10258.57
425.45	9982.38
425.64	10274.95
425.83	10127.50
426.01	10799.23
426.20	11059.03
426.39	10700.93
426.58	9710.88
426.77	9252.14
426.96	8877.65
427.15	9554.07
427.33	9970.68
427.52	10197.71
427.71	10431.77
427.90	9973.02
428.09	9877.06
428.28	9944.94
428.46	9666.41
428.65	9757.69
428.84	9973.02
429.03	9825.57
429.22	9055.53
429.40	8671.68
429.59	7822.07
429.78	7225.23
429.97	7274.38
430.16	7239.28
430.34	7084.80
430.53	7236.94
430.72	7686.32
430.91	8564.02
431.10	10127.50
431.28	11485.01
431.47	12318.24
431.66	12271.43
431.85	10977.11
432.03	9961.32
432.22	10366.23
432.41	10593.26
432.60	11660.55
432.79	11845.45
432.97	12262.07
433.16	11758.85
433.35	10590.92
433.54	9713.22
433.72	9247.46
433.91	9898.13
434.10	10895.19
434.28	11698.00
434.47	11985.88
434.66	11548.20
434.85	11447.56
435.03	11761.19
435.22	12035.03
435.41	12159.08
435.59	12416.54
435.78	12182.49
435.97	12648.26
436.16	13034.44
436.34	13099.98
436.53	12306.54
436.72	12468.03
436.90	11602.04
437.09	11796.30
437.28	11775.24
437.46	12215.26
437.65	11716.72
437.84	10764.12
438.02	10335.81
438.21	10633.05
438.40	11014.56
438.58	11358.62
438.77	12039.72
438.96	12278.45
439.14	12589.74
439.33	12681.02
439.52	12837.84
439.70	12872.95
439.89	12348.67
440.08	11854.81
440.26	12142.70
440.45	12659.96
440.63	13762.35
440.82	14366.21
441.01	13654.69
441.19	13823.20
441.38	14160.24
441.57	14380.25
441.75	14284.29
441.94	14703.25
442.12	14492.60
442.31	14984.11
442.50	15192.42
442.68	14747.72
442.87	14504.30
443.05	14188.33
443.24	14787.50
443.43	14778.14
443.61	15059.01
443.80	15339.87
443.98	14389.61
444.17	14771.12
444.35	15557.54
444.54	15735.42
444.73	15517.75
444.91	14590.90
445.10	13951.93
445.28	13476.80
445.47	13481.49
445.65	13540.00
445.84	14047.90
446.02	14314.72
446.21	14618.99
446.39	14567.49
446.58	14864.74
446.77	15391.36
446.95	15473.28
447.14	15400.72
447.32	15571.58
447.51	15108.16
447.69	14602.60
447.88	14572.18
448.06	14867.08
448.25	15288.38
448.43	15269.66
448.62	14761.76
448.80	14649.41
448.99	15026.24
449.17	15283.70
449.36	15279.02
449.54	15623.08
449.73	15857.13
449.91	16042.03
450.10	16641.21
450.28	16650.57
450.46	16482.05
450.65	16058.42
450.83	16166.08
451.02	16472.69
451.20	15798.62
451.39	15960.11
451.57	15819.68
451.76	16058.42
451.94	15445.20
452.13	15316.47
452.31	14520.68
452.49	14256.20
452.68	14621.33
452.86	14611.96
453.05	14677.50
453.23	15325.83
453.42	15365.62
453.60	15709.68
453.78	15859.47
453.97	15438.17
454.15	15433.49
454.34	15276.68
454.52	15272.00
454.70	14918.57
454.89	15164.33
455.07	15424.13
455.26	15531.80
455.44	15875.85
455.62	16484.39
455.81	16594.40
455.99	16161.40
456.17	16119.27
456.36	16400.13
456.54	16919.73
456.73	16648.23
456.91	16940.80
457.09	17186.55
457.28	17252.09
457.46	16182.46
457.64	16350.98
457.83	15690.95
458.01	15433.49
458.19	16152.04
458.38	15990.54
458.56	16418.86
458.74	16648.23
458.93	16098.20
459.11	15985.86
459.29	15786.91
459.48	16184.80
459.66	15784.57
459.84	16121.61
460.03	16805.05
460.21	16620.14
460.39	16870.58
460.57	16964.20
460.76	17273.15
460.94	16901.01
461.12	16769.94
461.31	17036.76
461.49	17191.23
461.67	16833.13
461.85	17481.46
462.04	17067.19
462.22	17252.09
462.40	17628.92
462.59	17128.04
462.77	17029.74
462.95	17514.23
463.13	17621.89
463.32	17146.76
463.50	16891.65
463.68	16821.43
463.86	17032.08
464.05	16622.48
464.23	16411.84
464.41	16093.52
464.59	16123.95
464.78	16336.94
464.96	16585.04
465.14	16343.96
465.32	17069.53
465.50	17378.48
465.69	17074.21
465.87	16737.17
466.05	16655.25
466.23	15981.18
466.41	15906.28
466.60	16617.80
466.78	16088.84
466.96	15878.19
467.14	16145.02
467.32	16877.60
467.51	16767.60
467.69	16149.70
467.87	16248.00
468.05	16622.48
468.23	16844.84
468.41	16690.36
468.60	16517.16
468.78	16568.65
468.96	16631.85
469.14	16760.58
469.32	17282.52
469.50	16446.94
469.69	16313.53
469.87	15878.19
470.05	15976.50
470.23	16175.44
470.41	16411.84
470.59	16215.23
470.77	16519.50
470.95	16669.30
471.14	17022.72
471.32	17348.05
471.50	18097.02
471.68	18162.56
471.86	17954.25
472.04	17879.35
472.22	17989.36
472.40	17345.71
472.58	17472.10
472.77	16835.47
472.95	17554.02
473.13	17706.15
473.31	17158.47
473.49	17685.09
473.67	17809.14
473.85	17467.42
474.03	17905.10
474.21	17994.04
474.39	18113.41
474.57	18197.67
474.75	18457.46
474.93	18436.40
475.12	18078.30
475.30	18340.44
475.48	18153.20
475.66	18307.67
475.84	18174.26
476.02	18054.89
476.20	17961.27
476.38	18541.72
476.56	18661.09
476.74	18895.14
476.92	19108.13
477.10	19639.44
477.28	19946.05
477.46	19955.41
477.64	19791.57
477.82	20102.86
478.00	19920.30
478.18	19906.26
478.36	19527.09
478.54	19805.61
478.72	20475.01
478.90	21032.05
479.08	20765.23
479.26	20924.39
479.44	20657.57
479.62	20828.43
479.80	20971.20
479.98	21270.79
480.16	21343.35
480.34	21296.53
480.52	21205.25
480.70	21247.38
480.88	21565.70
481.06	22171.89
481.24	22012.74
481.41	23140.88
481.59	22960.66
481.77	22370.84
481.95	22230.41
482.13	22525.32
482.31	21692.08
482.49	22724.26
482.67	22298.28
482.85	22244.45
483.03	22787.46
483.21	22794.48
483.39	23187.69
483.57	22904.48
483.74	22572.13
483.92	22225.73
484.10	23403.02
484.28	23227.48
484.46	23466.21
484.64	22888.10
484.82	23414.72
485.00	23009.81
485.18	22068.91
485.35	21642.93
485.53	18951.32
485.71	18017.44
485.89	18394.27
486.07	19580.92
486.25	21013.33
486.43	21572.72
486.61	21315.26
486.78	21731.87
486.96	22216.36
487.14	23239.18
487.32	23688.56
487.50	24229.23
487.68	23943.68
487.85	24882.24
488.03	24889.26
488.21	24353.27
488.39	23583.24
488.57	24030.28
488.75	24575.62
488.92	25394.81
489.10	27161.92
489.28	27440.44
489.46	27882.80
489.64	28496.02
489.81	27466.19
489.99	27323.41
490.17	27995.15
490.35	28718.37
490.53	27222.77
490.70	27124.47
490.88	26986.38
491.06	28276.01
491.24	28364.95
491.41	26590.83
491.59	26103.99
491.77	25081.18
491.95	26286.56
492.13	27065.96
492.30	27639.39
492.48	28914.98
492.66	29228.61
492.84	28613.05
493.01	28402.40
493.19	27410.01
493.37	27428.74
493.54	27777.48
493.72	28570.92
493.90	29352.66
494.08	30373.13
494.25	30988.69
494.43	30827.20
494.61	31529.36
494.79	31269.56
494.96	31440.42
495.14	30373.13
495.32	29106.90
495.49	28809.65
495.67	29790.34
495.85	31707.24
496.02	32039.59
496.20	31718.94
496.38	31772.77
496.55	31388.92
496.73	31552.76
496.91	31159.55
497.09	31850.01
497.26	31718.94
497.44	32184.71
497.62	31555.10
497.79	30661.02
497.97	29092.86
498.14	29771.61
498.32	30644.63
498.50	31264.88
498.67	32285.35
498.85	31494.25
499.03	31164.23
499.20	31632.34
499.38	31367.86
499.56	31117.42
499.73	31171.25
499.91	30607.19
500.08	29722.46
500.26	29266.06
500.44	30272.49
500.61	31166.57
500.79	29958.86
500.97	29668.63
501.14	29757.57
501.32	29369.04
501.49	28854.12
501.67	29703.74
501.84	30813.15
502.02	30796.77
502.20	31175.94
502.37	31608.93
502.55	31756.39
502.72	32079.38
502.90	32570.90
503.07	31740.00
503.25	32044.27
503.43	31051.89
503.60	29752.89
503.78	29593.73
503.95	30548.67
504.13	30778.04
504.30	32311.10
504.48	32924.32
504.65	31960.02
504.83	31903.84
505.01	31852.35
505.18	32617.71
505.36	34012.66
505.53	33172.41
505.71	33998.62
505.88	33771.59
506.06	33373.70
506.23	33036.66
506.41	32439.82
506.58	32692.60
506.76	32369.61
506.93	32755.80
507.11	30834.22
507.28	31910.86
507.46	31782.13
507.63	30923.16
507.81	30639.95
507.98	31115.08
508.16	32151.94
508.33	33399.44
508.50	32355.57
508.68	33755.21
508.85	34239.70
509.03	33303.48
509.20	32088.74
509.38	32163.64
509.55	31955.33
509.73	32758.14
509.90	33387.74
510.08	32196.41
510.25	31915.54
510.42	32187.05
510.60	32287.69
510.77	33109.22
510.95	33516.47
511.12	32818.99
511.30	33652.22
511.47	34490.13
511.64	33230.93
511.82	33916.70
511.99	33132.62
512.17	32692.60
512.34	32285.35
512.51	31861.71
512.69	32336.84
512.86	32723.03
513.04	33230.93
513.21	32842.40
513.38	32407.06
513.56	31538.72
513.73	30810.81
513.90	30438.67
514.08	31187.64
514.25	31978.74
514.43	32383.65
514.60	32720.69
514.77	32343.86
514.95	32205.77
515.12	32430.46
515.29	33118.58
515.47	33102.20
515.64	32811.97
515.81	33149.01
515.99	32453.87
516.16	29640.54
516.33	27805.56
516.51	27016.80
516.68	25504.82
516.85	24964.15
517.03	26115.70
517.20	28594.32
517.37	31466.16
517.54	31026.14
517.72	29710.76
517.89	27807.90
518.06	27068.30
518.24	27885.14
518.41	29413.51
518.58	30199.93
518.75	31019.12
518.93	30787.41
519.10	30745.28
519.27	31260.20
519.45	31569.15
519.62	32210.45
519.79	32872.82
519.96	32381.31
520.14	31438.08
520.31	31110.40
520.48	30553.35
520.65	31299.98
520.83	32376.63
521.00	32044.27
521.17	31608.93
521.34	30976.99
521.52	31374.88
521.69	32704.31
521.86	32961.76
522.03	32032.57
522.20	30923.16
522.38	29848.85
522.55	29813.74
522.72	31026.14
522.89	30419.94
523.07	30913.80
523.24	32184.71
523.41	32512.38
523.58	32294.71
523.75	32189.39
523.92	33816.06
524.10	32961.76
524.27	33308.16
524.44	33081.13
524.61	33369.02
524.78	33205.18
524.96	32790.91
525.13	33322.21
525.30	33680.31
525.47	34117.99
525.64	33259.01
525.81	31161.89
525.98	29677.99
526.16	28184.73
526.33	28395.38
526.50	28641.14
526.67	28114.52
526.84	28547.51
527.01	29448.62
527.18	30820.17
527.36	31206.36
527.53	32687.92
527.70	32102.79
527.87	30675.06
528.04	30803.79
528.21	31894.48
528.38	32863.46
528.55	33570.30
528.72	33432.21
528.89	33123.26
529.07	33565.62
529.24	31620.64
529.41	32198.75
529.58	31751.71
529.75	31302.32
529.92	31651.06
530.09	31515.31
530.26	32215.13
530.43	31159.55
530.60	33015.60
530.77	33369.02
530.94	34307.57
531.11	32409.40
531.28	32411.74
531.46	32531.11
531.63	33046.02
531.80	32814.31
531.97	31929.59
532.14	30019.71
532.31	28973.49
532.48	28414.10
532.65	28779.23
532.82	29827.79
532.99	31377.22
533.16	32467.91
533.33	33322.21
533.50	32196.41
533.67	31098.70
533.84	31435.74
534.01	31440.42
534.18	31557.44
534.35	30995.71
534.52	31641.70
534.69	31587.87
534.86	31442.76
535.03	32072.36
535.20	32835.38
535.37	32704.31
535.54	33020.28
535.71	32173.00
535.88	32173.00
536.05	30925.50
536.22	30487.82
536.38	30052.48
536.55	30787.41
536.72	30148.44
536.89	30242.06
537.06	31487.23
537.23	31491.91
537.40	31082.31
537.57	30962.95
537.74	30604.84
537.91	30506.54
538.08	31983.42
538.25	32222.16
538.42	31147.85
538.59	31641.70
538.75	31484.89
538.92	31110.40
539.09	29984.60
539.26	29186.48
539.43	28491.34
539.60	29235.63
539.77	29076.48
539.94	28512.41
540.11	27817.27
540.28	27508.32
540.44	28409.42
540.61	28332.18
540.78	28816.68
540.95	30600.16
541.12	29544.58
541.29	30576.76
541.46	30155.46
541.62	29958.86
541.79	29472.03
541.96	29326.91
542.13	30125.04
542.30	30026.73
542.47	29968.22
542.63	29462.66
542.80	28992.22
542.97	29132.65
543.14	28561.56
543.31	28774.55
543.48	30497.18
543.64	30785.07
543.81	31367.86
543.98	30452.71
544.15	29811.40
544.32	28907.96
544.48	30267.81
544.65	28823.70
544.82	29362.02
544.99	29788.00
545.16	29390.11
545.32	30312.28
545.49	30841.24
545.66	30274.83
545.83	30103.97
546.00	29858.21
546.16	29546.92
546.33	29518.84
546.50	29942.47
546.67	29591.39
546.83	29331.59
547.00	28903.28
547.17	28783.91
547.34	28978.17
547.50	28830.72
547.67	29139.67
547.84	29153.71
548.00	29563.31
548.17	28556.88
548.34	28716.03
548.51	28624.75
548.67	30073.54
548.84	29329.25
549.01	30356.75
549.18	29834.81
549.34	30682.08
549.51	30239.72
549.68	30045.46
549.84	28945.41
550.01	29301.17
550.18	28425.81
550.34	28730.08
550.51	28397.72
550.68	27903.87
550.84	27058.93
551.01	27274.26
551.18	27367.88
551.34	27335.12
551.51	28379.00
551.68	29525.86
551.84	28343.89
552.01	28608.37
552.18	28484.32
552.34	28257.29
552.51	28208.14
552.68	28989.88
552.84	28018.55
553.01	28449.21
553.18	29511.81
553.34	29116.26
553.51	28900.94
553.67	28514.75
553.84	29649.91
554.01	29453.30
554.17	28130.90
554.34	28905.62
554.51	29310.53
554.67	29228.61
554.84	28100.47
555.00	28205.80
555.17	28561.56
555.33	28030.26
555.50	28762.84
555.67	28720.71
555.83	28835.40
556.00	28451.55
556.16	28210.48
556.33	27906.21
556.50	27606.62
556.66	27101.06
556.83	26639.98
556.99	27019.14
557.16	27215.75
557.32	27534.06
557.49	27569.17
557.65	27747.05
557.82	26136.76
557.98	27190.00
558.15	27410.01
558.32	26548.70
558.48	25546.95
558.65	25207.57
558.81	25432.26
558.98	26026.76
559.14	26363.79
559.31	27175.96
559.47	26459.76
559.64	25912.07
559.80	27185.32
559.97	26806.16
560.13	27070.64
560.30	27023.83
560.46	27199.37
560.63	27496.61
560.79	28112.17
560.96	26946.59
561.12	26759.34
561.29	26305.28
561.45	25912.07
561.61	25841.85
561.78	26309.96
561.94	26279.54
562.11	26377.84
562.27	26258.47
562.44	26637.64
562.60	26363.79
562.77	26698.49
562.93	26286.56
563.10	26225.70
563.26	25886.32
563.42	25256.72
563.59	25565.67
563.75	26202.30
563.92	25898.03
564.08	26115.70
564.24	26089.95
564.41	24636.48
564.57	25326.94
564.74	24936.07
564.90	24643.50
565.07	24645.84
565.23	24046.66
565.39	23765.80
565.56	25118.63
565.72	24905.64
565.88	25448.64
566.05	24821.38
566.21	24858.83
566.38	24301.78
566.54	24566.26
566.70	24187.10
566.87	24648.18
567.03	26136.76
567.19	26771.05
567.36	24680.95
567.52	25352.68
567.68	24482.00
567.85	25125.65
568.01	24936.07
568.17	23763.46
568.34	23175.98
568.50	23449.83
568.66	23936.66
568.83	23660.48
568.99	24458.60
569.15	24510.09
569.32	24723.08
569.48	24542.86
569.64	23917.93
569.81	22974.70
569.97	23735.37
570.13	23997.51
570.30	23541.11
570.46	23000.44
570.62	22040.82
570.78	21467.39
570.95	22143.81
571.11	22948.95
571.27	23101.09
571.43	23101.09
571.60	23461.53
571.76	23796.23
571.92	23557.49
572.09	24058.37
572.25	24018.58
572.41	24584.99
572.57	24645.84
572.74	23571.54
572.90	23421.74
573.06	23452.17
573.22	23344.50
573.38	23068.32
573.55	22522.98
573.71	23220.45
573.87	23496.64
574.03	23410.04
574.20	23323.44
574.36	23058.96
574.52	22913.84
574.68	22759.37
574.84	22637.66
575.01	23021.51
575.17	23211.09
575.33	22775.75
575.49	22204.66
575.65	22841.29
575.82	22583.83
575.98	22331.05
576.14	22848.31
576.30	22295.94
576.46	21909.75
576.62	22504.25
576.79	22511.27
576.95	21820.81
577.11	21729.53
577.27	21771.66
577.43	21923.80
577.59	21612.51
577.75	22611.92
577.92	21291.85
578.08	21165.46
578.24	21415.90
578.40	21509.52
578.56	21387.82
578.72	21678.04
578.88	22129.77
579.04	22113.38
579.21	21607.83
579.37	21909.75
579.53	21687.40
579.69	20964.18
579.85	21135.04
580.01	21158.44
580.17	21132.70
580.33	21610.17
580.49	21523.57
580.65	21642.93
580.82	21596.12
580.98	21612.51
581.14	21188.87
581.30	22593.19
581.46	21998.70
581.62	21102.27
581.78	21713.15
581.94	22281.90
582.10	21638.25
582.26	21708.47
582.42	22331.05
582.58	22742.99
582.74	22223.39
582.90	21586.76
583.06	21907.41
583.22	21926.14
583.38	22239.77
583.54	22080.61
583.70	22176.58
583.86	21729.53
584.02	22061.89
584.18	21853.58
584.34	22136.79
584.50	22504.25
584.66	22284.24
584.82	21359.73
584.98	21668.68
585.14	21373.77
585.30	20395.43
585.46	20250.32
585.62	19620.71
585.78	20393.09
585.94	20365.00
586.10	21483.78
586.26	21137.38
586.42	20865.88
586.58	21032.05
586.74	20388.41
586.90	20397.77
587.06	20566.29
587.22	20334.57
587.38	20526.50
587.54	20439.90
587.70	20367.34
587.86	20051.37
588.02	19843.06
588.18	19367.93
588.34	18775.78
588.49	18728.97
588.65	17420.61
588.81	17504.87
588.97	17305.92
589.13	16994.63
589.29	16945.48
589.45	18022.12
589.61	18677.48
589.77	19309.42
589.93	19255.59
590.08	19414.74
590.24	20107.54
590.40	19058.98
590.56	19365.59
590.72	18853.02
590.88	19023.87
591.04	18923.23
591.20	19068.34
591.35	19243.88
591.51	20020.94
591.67	19777.53
591.83	19566.88
591.99	19115.16
592.15	19204.10
592.31	18869.40
592.46	18347.46
592.62	18871.74
592.78	18979.40
592.94	18682.16
593.10	18934.93
593.26	18787.48
593.41	19309.42
593.57	19194.73
593.73	18953.66
593.89	18394.27
594.05	18181.28
594.20	17867.65
594.36	18019.78
594.52	18602.58
594.68	18401.29
594.84	17949.57
594.99	18396.61
595.15	18377.89
595.31	18525.34
595.47	18104.04
595.62	18377.89
595.78	18267.88
595.94	18508.96
596.10	17872.33
596.25	18010.42
596.41	18633.00
596.57	18508.96
596.73	18012.76
596.88	18221.07
597.04	17940.21
597.20	17259.11
597.36	17104.64
597.51	17444.01
597.67	17811.48
597.83	17572.74
597.99	17516.57
598.14	16863.56
598.30	16297.15
598.46	16304.17
598.61	17181.87
598.77	17703.81
598.93	18314.69
599.09	18094.68
599.24	17671.04
599.40	17893.40
599.56	17825.52
599.71	18057.23
599.87	17593.81
600.03	17902.76
600.18	18106.38
600.34	18363.84
600.50	17626.57
600.65	18466.83
600.81	18202.35
600.97	17504.87
601.12	17511.89
601.28	16975.91
601.44	16908.03
601.59	16596.74
601.75	16886.97
601.91	17039.10
602.06	16713.77
602.22	17224.00
602.37	17458.06
602.53	17455.72
602.69	17280.18
602.84	16924.41
603.00	17434.65
603.16	17462.74
603.31	17472.10
603.47	17003.99
603.62	16779.30
603.78	18143.83
603.94	17380.82
604.09	17837.22
604.25	17888.71
604.40	17642.96
604.56	17614.87
604.71	17722.54
604.87	17614.87
605.03	18239.79
605.18	17444.01
605.34	16992.29
605.49	17018.04
605.65	17305.92
605.80	16599.08
605.96	16493.76
606.12	16456.31
606.27	16383.75
606.43	16568.65
606.58	16697.38
606.74	16648.23
606.89	17193.58
607.05	16748.87
607.20	16702.06
607.36	16901.01
607.51	17146.76
607.67	16407.16
607.82	16905.69
607.98	16421.20
608.13	16645.89
608.29	16610.78
608.44	16465.67
608.60	15971.82
608.75	16126.29
608.91	16182.46
609.06	15988.20
609.22	16133.31
609.37	16673.98
609.53	16472.69
609.68	16224.59
609.84	15702.65
609.99	15356.25
610.15	14883.47
610.30	15522.43
610.46	15550.52
610.61	15520.09
610.76	16299.49
610.92	16573.33
611.07	17207.62
611.23	16947.82
611.38	16231.62
611.54	15482.64
611.69	14991.13
611.84	14869.42
612.00	15145.61
612.15	15126.88
612.31	15822.02
612.46	15576.27
612.62	15637.12
612.77	15548.18
612.92	15496.69
613.08	15220.50
613.23	14927.94
613.39	14579.20
613.54	14445.79
613.69	14555.79
613.85	14944.32
614.00	14686.86
614.15	14574.52
614.31	14895.17
614.46	14864.74
614.62	14864.74
614.77	15007.52
614.92	14897.51
615.08	14946.66
615.23	14925.60
615.38	14904.53
615.54	14539.41
615.69	13982.36
615.84	13263.82
616.00	13888.74
616.15	14197.69
616.30	13956.61
616.46	13731.92
616.61	14225.78
616.76	14286.63
616.92	14228.12
617.07	14530.05
617.22	15082.41
617.37	14618.99
617.53	14389.61
617.68	14590.90
617.83	14359.19
617.99	14363.87
618.14	14387.27
618.29	14312.38
618.45	14202.37
618.60	13479.15
618.75	13715.54
618.90	13809.16
619.06	13839.59
619.21	14338.12
619.36	14113.43
619.51	14223.44
619.67	14305.35
619.82	13947.25
619.97	14104.07
620.12	14071.30
620.28	14406.00
620.43	13947.25
620.58	14246.84
620.73	14415.36
620.89	14511.32
621.04	14193.01
621.19	13694.47
621.34	13755.33
621.49	13345.73
621.65	13750.65
621.80	13268.50
621.95	13266.16
622.10	13834.91
622.25	12996.99
622.41	12896.35
622.56	13097.64
622.71	13568.09
622.86	13764.69
623.01	13687.45
623.16	13570.43
623.32	13748.31
623.47	13209.98
623.62	13195.94
623.77	13081.25
623.92	13083.59
624.07	12882.31
624.23	12767.62
624.38	12858.90
624.53	13242.75
624.68	12507.82
624.83	12683.36
624.98	11990.56
625.13	12755.92
625.29	12624.85
625.44	12582.72
625.59	12545.27
625.74	12954.87
625.89	12552.29
626.04	12346.33
626.19	12217.60
626.34	12294.83
626.49	12224.62
626.65	11854.81
626.80	12477.40
626.95	12582.72
627.10	12507.82
627.25	12058.44
627.40	11658.21
627.55	11587.99
627.70	11676.93
627.85	11447.56
628.00	11639.48
628.15	11995.25
628.30	11660.55
628.45	11669.91
628.60	11602.04
628.76	11918.01
628.91	11534.16
629.06	11702.68
629.21	11578.63
629.36	11641.82
629.51	11709.70
629.66	11957.80
629.81	11756.51
629.96	11456.92
630.11	11871.20
630.26	11208.83
630.41	11705.02
630.56	11281.38
630.71	11379.68
630.86	11140.95
631.01	11389.05
631.16	11183.08
631.31	10539.43
631.46	10663.48
631.61	11042.65
631.76	11740.13
631.91	11625.44
632.06	11719.06
632.21	12037.38
632.36	12084.19
632.51	11969.50
632.66	12070.14
632.81	11800.98
632.96	11513.10
633.10	11391.39
633.25	11726.08
633.40	11672.25
633.55	11543.52
633.70	10829.66
633.85	10820.30
634.00	11047.33
634.15	10581.56
634.30	10602.63
634.45	10939.66
634.60	11218.19
634.75	11360.96
634.90	11279.04
635.05	11042.65
635.19	11117.54
635.34	11503.73
635.49	11124.57
635.64	11281.38
635.79	10719.65
635.94	10391.98
636.09	10518.37
636.24	10824.98
636.39	10651.78
636.53	10876.47
636.68	11166.70
636.83	11337.56
636.98	11283.72
637.13	11164.36
637.28	11070.73
637.43	11304.79
637.57	11012.22
637.72	11019.24
637.87	10714.97
638.02	10406.02
638.17	11229.89
638.32	11154.99
638.46	10244.52
638.61	10153.24
638.76	10342.83
638.91	10450.49
639.06	10721.99
639.20	10696.25
639.35	10911.58
639.50	10640.08
639.65	10525.39
639.80	10644.76
639.94	10347.51
640.09	10333.47
640.24	10422.41
640.39	10410.70
640.54	10754.76
640.68	10450.49
640.83	10611.99
640.98	10539.43
641.13	10333.47
641.27	9991.75
641.42	9715.56
641.57	9685.14
641.72	9879.40
641.86	9870.04
642.01	10258.57
642.16	10569.86
642.31	10298.36
642.45	10382.62
642.60	10485.60
642.75	10466.88
642.90	10139.20
643.04	10422.41
643.19	10569.86
643.34	10111.11
643.48	9701.52
643.63	9451.08
643.78	9820.89
643.93	9916.85
644.07	9551.73
644.22	10242.18
644.37	10010.47
644.51	10157.92
644.66	9717.90
644.81	9327.03
644.95	9699.18
645.10	9589.17
645.25	9734.29
645.39	9797.48
645.54	9465.13
645.69	9385.55
645.83	9170.22
645.98	8987.66
646.13	9493.21
646.27	9558.75
646.42	9558.75
646.57	9696.84
646.71	9525.98
646.86	9212.35
647.00	9266.18
647.15	8926.80
647.30	9455.76
647.44	9418.32
647.59	9383.21
647.74	8990.00
647.88	8919.78
648.03	8842.54
648.17	9011.06
648.32	9018.08
648.47	9188.94
648.61	8521.89
648.76	8655.30
648.90	8145.06
649.05	7829.09
649.20	7826.75
649.34	8238.69
649.49	8060.80
649.63	8627.21
649.78	8503.17
649.92	8858.93
650.07	9207.67
650.21	8973.61
650.36	8856.59
650.51	8627.21
650.65	8903.40
650.80	8917.44
650.94	8601.47
651.09	8695.09
651.23	8765.31
651.38	8908.08
651.52	9027.45
651.67	8882.33
651.81	8812.12
651.96	8688.07
652.10	8833.18
652.25	8784.03
652.39	8772.33
652.54	8697.43
652.68	8627.21
652.83	8889.35
652.97	8844.88
653.12	8901.06
653.26	8751.26
653.41	8594.45
653.55	8594.45
653.70	8727.86
653.84	8847.22
653.99	9025.11
654.13	8905.74
654.27	8641.26
654.42	8449.33
654.56	8077.19
654.71	8196.56
654.85	8234.00
655.00	8128.68
655.14	8257.41
655.29	7882.92
655.43	7936.76
655.57	7559.93
655.72	6703.29
655.86	6305.40
656.01	6300.72
656.15	6272.64
656.30	6946.71
656.44	7246.30
656.58	7442.90
656.73	7552.91
656.87	7658.23
657.01	7599.72
657.16	7637.17
657.30	7733.13
657.45	7775.26
657.59	8009.31
657.73	8032.72
657.88	8091.23
658.02	8131.02
658.16	7875.90
658.31	8187.19
658.45	8498.49
658.60	8255.07
658.74	8226.98
658.88	8259.75
659.03	8081.87
659.17	8098.25
659.31	8063.15
659.46	7964.84
659.60	8037.40
659.74	8095.91
659.89	7955.48
660.03	8276.13
660.17	7953.14
660.32	8173.15
660.46	7873.56
660.60	7723.77
660.74	7393.75
660.89	7882.92
661.03	7763.56
661.17	7735.47
661.32	8030.38
661.46	7726.11
661.60	8163.79
661.74	8219.96
661.89	8100.59
662.03	7688.66
662.17	7754.19
662.31	7962.50
662.46	7969.52
662.60	7850.16
662.74	7531.84
662.88	7489.71
663.03	7543.55
663.17	7686.32
663.31	7410.14
663.45	7265.02
663.60	7246.30
663.74	7485.03
663.88	7368.01
664.02	7019.27
664.17	7103.53
664.31	6890.54
664.45	7206.51
664.59	7290.77
664.73	7241.62
664.88	7227.57
665.02	7222.89
665.16	7054.37
665.30	7117.57
665.44	7302.47
665.59	7461.63
665.73	7368.01
665.87	7316.51
666.01	7566.95
666.15	7290.77
666.29	6993.52
666.44	7023.95
666.58	7248.64
666.72	7180.76
666.86	7084.80
667.00	6965.43
667.14	6958.41
667.28	6906.92
667.43	7021.61
667.57	6916.28
667.71	6895.22
667.85	6977.14
667.99	7241.62
668.13	7176.08
668.27	6888.20
668.41	6782.87
668.56	6850.75
668.70	6843.73
668.84	6675.21
668.98	6436.47
669.12	6801.60
669.26	6644.78
669.40	6612.01
669.54	6492.65
669.68	6085.39
669.82	6352.21
669.96	6368.60
670.10	6232.85
670.25	6417.75
670.39	6513.71
670.53	6377.96
670.67	6183.70
670.81	6532.44
670.95	6612.01
671.09	6654.14
671.23	6326.47
671.37	6010.50
671.51	6230.51
671.65	6438.81
671.79	6392.00
671.93	6403.71
672.07	6345.19
672.21	6211.78
672.35	6136.88
672.49	6401.37
672.63	6523.07
672.77	6352.21
672.91	6321.79
673.05	6104.12
673.19	6251.57
673.33	6097.10
673.47	6005.81
673.61	5905.17
673.75	5694.52
673.89	5771.76
674.03	5640.69
674.17	6092.41
674.31	6340.51
674.45	6366.26
674.59	6043.26
674.73	5930.92
674.87	5902.83
675.01	5994.11
675.15	6099.44
675.29	5816.23
675.43	5444.09
675.56	5715.59
675.70	5701.54
675.84	5661.76
675.98	5692.18
676.12	5769.42
676.26	5460.47
676.40	5654.73
676.54	5846.66
676.68	5600.90
676.82	5430.04
676.96	5352.81
677.10	5408.98
677.23	5558.77
677.37	5657.07
677.51	5593.88
677.65	5680.48
677.79	5425.36
677.93	5558.77
678.07	5724.95
678.21	5724.95
678.34	5504.94
678.48	5434.72
678.62	5687.50
678.76	5778.78
678.90	5479.19
679.04	5556.43
679.18	5607.92
679.31	5357.49
679.45	5291.95
679.59	5280.25
679.73	5186.63
679.87	5090.67
680.00	4802.78
680.14	5090.67
680.28	5132.79
680.42	5114.07
680.56	4718.52
680.70	4865.97
680.83	4828.53
680.97	4762.99
681.11	4697.46
681.25	4800.44
681.39	4718.52
681.52	4814.48
681.66	4669.37
681.80	4823.84
681.94	4704.48
682.07	4877.68
682.21	4910.44
682.35	5151.52
682.49	4936.19
682.62	4891.72
682.76	4746.61
682.90	4554.68
683.04	4608.51
683.17	4641.28
683.31	4533.62
683.45	4362.76
683.59	4503.19
683.72	4706.82
683.86	4566.39
684.00	4348.72
684.13	4547.66
684.27	4475.10
684.41	4435.32
684.55	4482.13
684.68	4393.19
684.82	4156.79
684.96	4063.17
685.09	4077.21
685.23	4126.36
685.37	4147.43
685.50	4187.22
685.64	4212.96
685.78	4231.69
685.91	3896.99
686.05	3824.44
686.19	3798.69
686.32	3712.09
686.46	3307.18
686.60	2736.09
686.73	2658.85
686.87	2569.91
687.01	2539.48
687.14	2590.97
687.28	2703.32
687.42	2988.86
687.55	3220.58
687.69	3222.92
687.82	3368.03
687.96	3297.81
688.10	3211.22
688.23	3363.35
688.37	3302.50
688.50	3119.93
688.64	3211.22
688.78	2876.52
688.91	2911.63
689.05	2965.46
689.18	3122.27
689.32	3136.32
689.46	3054.40
689.59	2956.10
689.73	2857.79
689.86	2860.13
690.00	2986.52
690.13	3110.57
690.27	3112.91
690.41	3038.02
690.54	3108.23
690.68	3096.53
690.81	3023.97
690.95	3087.17
691.08	3159.72
691.22	3323.56
691.35	3206.53
691.49	3337.60
691.62	3309.52
691.76	3103.55
691.89	3229.94
692.03	3152.70
692.16	3414.84
692.30	3197.17
692.43	3192.49
692.57	3061.42
692.70	3133.98
692.84	3035.67
692.97	2995.89
693.11	2953.76
693.24	2895.24
693.38	2963.12
693.51	2897.58
693.65	2691.62
693.78	2583.95
693.92	2752.47
694.05	2818.00
694.19	2813.32
694.32	2855.45
694.45	2885.88
694.59	2860.13
694.72	2930.35
694.86	2981.84
694.99	3073.12
695.13	2895.24
695.26	3016.95
695.39	2909.29
695.53	2869.50
695.66	2750.13
695.80	2513.74
695.93	2672.89
696.07	2602.68
696.20	2656.51
696.33	2799.28
696.47	2794.60
696.60	2855.45
696.73	2689.28
696.87	2729.06
697.00	2878.86
697.14	2736.09
697.27	2581.61
697.40	2590.97
697.54	2413.09
697.67	2434.16
697.80	2469.27
697.94	2441.18
698.07	2410.75
698.21	2513.74
698.34	2473.95
698.47	2410.75
698.61	2431.82
698.74	2396.71
698.87	2513.74
699.01	2562.89
699.14	2272.66
699.27	2251.60
699.40	2368.62
699.54	2284.36
699.67	2413.09
699.80	2420.11
699.94	2408.41
700.07	2352.24
700.20	2235.21
700.34	2314.79
700.47	2139.25
700.60	2165.00
700.73	2141.59
700.87	2239.89
701.00	2272.66
701.13	2232.87
701.26	2024.56
701.40	2165.00
701.53	2080.74
701.66	2197.76
701.79	2176.70
701.93	1912.22
702.06	1989.46
702.19	1994.14
702.32	2047.97
702.46	2008.18
702.59	1914.56
702.72	1949.67
702.85	1970.73
702.99	2017.54
703.12	2221.17
703.25	2174.36
703.38	1966.05
703.51	1919.24
703.65	1970.73
703.78	1914.56
703.91	1968.39
704.04	1963.71
704.17	1982.43
704.31	1968.39
704.44	1853.70
704.57	1900.52
704.70	1895.83
704.83	1778.81
704.96	1785.83
705.10	1806.89
705.23	1870.09
>>>>>End Processed Spectral Data<<<<<
