SpectraSuite Data File
++++++++++++++++++++++++++++++++++++
Date: Mon Oct 07 14:54:54 GMT-05:00 2013
User: price-jones
Dark Spectrum Present: No
Reference Spectrum Present: No
Number of Sampled Component Spectra: 1
Spectrometers: USB2+H05261
Integration Time (usec): 10000 (USB2+H05261)
Spectra Averaged: 1 (USB2+H05261)
Boxcar Smoothing: 0 (USB2+H05261)
Correct for Electrical Dark: No (USB2+H05261)
Strobe/Lamp Enabled: No (USB2+H05261)
Correct for Detector Non-linearity: No (USB2+H05261)
Correct for Stray Light: No (USB2+H05261)
Number of Pixels in Processed Spectrum: 2048
>>>>>Begin Processed Spectral Data<<<<<
365.73	0.00
365.92	0.00
366.12	0.00
366.32	0.00
366.52	0.00
366.72	0.00
366.91	0.00
367.11	0.00
367.31	0.00
367.51	0.00
367.70	0.00
367.90	0.00
368.10	0.00
368.30	0.00
368.49	0.00
368.69	0.00
368.89	0.00
369.09	0.00
369.28	0.00
369.48	0.00
369.68	0.00
369.87	0.00
370.07	0.00
370.27	0.00
370.47	0.00
370.66	0.00
370.86	0.00
371.06	0.00
371.25	67.88
371.45	0.00
371.65	0.00
371.84	0.00
372.04	0.00
372.24	16.38
372.44	42.13
372.63	9.36
372.83	60.85
373.03	0.00
373.22	0.00
373.42	4.68
373.62	74.90
373.81	39.79
374.01	0.00
374.21	35.11
374.40	53.83
374.60	60.85
374.79	21.06
374.99	25.75
375.19	119.37
375.38	135.75
375.58	161.50
375.78	44.47
375.97	74.90
376.17	138.09
376.37	67.88
376.56	112.35
376.76	112.35
376.95	133.41
377.15	152.13
377.35	236.39
377.54	208.31
377.74	229.37
377.93	161.50
378.13	177.88
378.33	135.75
378.52	173.20
378.72	117.03
378.91	70.22
379.11	173.20
379.31	88.94
379.50	138.09
379.70	124.05
379.89	182.56
380.09	194.26
380.28	191.92
380.48	201.29
380.68	177.88
380.87	126.39
381.07	161.50
381.26	60.85
381.46	70.22
381.65	53.83
381.85	58.51
382.04	91.28
382.24	37.45
382.43	2.34
382.63	44.47
382.83	14.04
383.02	56.17
383.22	0.00
383.41	39.79
383.61	0.00
383.80	51.49
384.00	154.48
384.19	278.52
384.39	236.39
384.58	196.60
384.78	259.80
384.97	187.24
385.17	117.03
385.36	81.92
385.56	142.77
385.75	112.35
385.95	180.22
386.14	191.92
386.34	238.73
386.53	201.29
386.72	126.39
386.92	191.92
387.11	152.13
387.31	138.09
387.50	187.24
387.70	215.33
387.89	161.50
388.09	212.99
388.28	124.05
388.48	159.16
388.67	276.18
388.86	252.78
389.06	332.36
389.25	388.53
389.45	283.20
389.64	334.70
389.84	320.65
390.03	337.04
390.22	304.27
390.42	262.14
390.61	386.19
390.81	351.08
391.00	475.13
391.19	458.74
391.39	404.91
391.58	376.83
391.78	358.10
391.97	283.20
392.16	313.63
392.36	187.24
392.55	149.79
392.75	67.88
392.94	0.00
393.13	9.36
393.33	16.38
393.52	149.79
393.71	222.35
393.91	205.97
394.10	313.63
394.29	348.74
394.49	407.25
394.68	465.77
394.88	489.17
395.07	507.90
395.26	465.77
395.46	470.45
395.65	407.25
395.84	322.99
396.04	180.22
396.23	149.79
396.42	35.11
396.62	86.60
396.81	72.56
397.00	177.88
397.19	278.52
397.39	409.59
397.58	648.33
397.77	568.75
397.97	578.11
398.16	617.90
398.35	748.97
398.55	638.97
398.74	793.44
398.93	713.86
399.12	720.88
399.32	758.33
399.51	727.91
399.70	837.91
399.90	709.18
400.09	716.20
400.28	634.29
400.47	744.29
400.67	725.57
400.86	767.70
401.05	784.08
401.24	903.45
401.44	770.04
401.63	851.96
401.82	896.43
402.01	866.00
402.21	880.04
402.40	833.23
402.59	819.19
402.78	816.85
402.97	730.25
403.17	732.59
403.36	835.57
403.55	901.11
403.74	889.40
403.93	945.58
404.13	777.06
404.32	674.07
404.51	791.10
404.70	912.81
404.89	777.06
405.09	854.30
405.28	985.37
405.47	791.10
405.66	814.51
405.85	713.86
406.05	720.88
406.24	653.01
406.43	793.44
406.62	777.06
406.81	891.74
407.00	795.78
407.20	737.27
407.39	795.78
407.58	781.74
407.77	884.72
407.96	917.49
408.15	924.51
408.34	933.87
408.54	971.32
408.73	994.73
408.92	1015.79
409.11	912.81
409.30	940.90
409.49	814.51
409.68	763.01
409.87	718.54
410.07	788.76
410.26	842.59
410.45	898.77
410.64	940.90
410.83	966.64
411.02	1020.47
411.21	1090.69
411.40	1076.65
411.59	992.39
411.78	1057.92
411.98	1034.52
412.17	994.73
412.36	1071.97
412.55	1071.97
412.74	1090.69
412.93	957.28
413.12	1001.75
413.31	1193.67
413.50	1076.65
413.69	1135.16
413.88	1167.93
414.07	994.73
414.26	1097.71
414.45	1069.62
414.64	1146.86
414.83	1029.84
415.02	1071.97
415.22	1100.05
415.41	1158.57
415.60	1214.74
415.79	1210.06
415.98	1245.16
416.17	1149.20
416.36	1317.72
416.55	1125.80
416.74	1095.37
416.93	1121.12
417.12	1060.26
417.31	1114.10
417.50	1123.46
417.69	1252.19
417.88	1217.08
418.07	1188.99
418.26	1093.03
418.45	1198.35
418.64	1128.14
418.83	1249.85
419.02	1254.53
419.21	1287.29
419.39	1172.61
419.58	1123.46
419.77	1170.27
419.96	1144.52
420.15	1128.14
420.34	1294.32
420.53	1320.06
420.72	1303.68
420.91	1315.38
421.10	1327.08
421.29	1299.00
421.48	1245.16
421.67	1404.32
421.86	1380.92
422.05	1139.84
422.24	1076.65
422.43	1055.58
422.61	1163.25
422.80	1268.57
422.99	1331.76
423.18	1240.48
423.37	1149.20
423.56	1167.93
423.75	1259.21
423.94	1121.12
424.13	1245.16
424.32	1114.10
424.50	1083.67
424.69	1254.53
424.88	1221.76
425.07	1219.42
425.26	1139.84
425.45	1053.24
425.64	1156.22
425.83	1104.73
426.01	1130.48
426.20	1196.01
426.39	1254.53
426.58	1074.31
426.77	985.37
426.96	957.28
427.15	926.85
427.33	1104.73
427.52	1149.20
427.71	1165.59
427.90	1299.00
428.09	1207.72
428.28	1050.90
428.46	1083.67
428.65	1020.47
428.84	1083.67
429.03	1046.22
429.22	987.71
429.40	915.15
429.59	819.19
429.78	718.54
429.97	765.36
430.16	777.06
430.34	781.74
430.53	683.44
430.72	826.21
430.91	842.59
431.10	1043.88
431.28	1231.12
431.47	1502.62
431.66	1376.24
431.85	1343.47
432.03	1174.95
432.22	1076.65
432.41	1181.97
432.60	1390.28
432.79	1329.42
432.97	1399.64
433.16	1343.47
433.35	1315.38
433.54	1142.18
433.72	1067.28
433.91	1069.62
434.10	1249.85
434.28	1303.68
434.47	1352.83
434.66	1373.89
434.85	1315.38
435.03	1313.04
435.22	1394.96
435.41	1324.74
435.59	1362.19
435.78	1467.52
435.97	1479.22
436.16	1472.20
436.34	1523.69
436.53	1390.28
436.72	1392.62
436.90	1430.07
437.09	1394.96
437.28	1345.81
437.46	1357.51
437.65	1280.27
437.84	1242.82
438.02	1132.82
438.21	1020.47
438.40	1149.20
438.58	1320.06
438.77	1301.34
438.96	1338.79
439.14	1420.71
439.33	1561.14
439.52	1476.88
439.70	1465.18
439.89	1392.62
440.08	1462.83
440.26	1259.21
440.45	1401.98
440.63	1551.78
440.82	1582.20
441.01	1610.29
441.19	1575.18
441.38	1643.06
441.57	1696.89
441.75	1661.78
441.94	1727.32
442.12	1701.57
442.31	1799.87
442.50	1699.23
442.68	1682.85
442.87	1565.82
443.05	1460.49
443.24	1687.53
443.43	1568.16
443.61	1785.83
443.80	1743.70
443.98	1659.44
444.17	1626.67
444.35	1692.21
444.54	1851.36
444.73	1799.87
444.91	1706.25
445.10	1722.63
445.28	1533.05
445.47	1479.22
445.65	1540.07
445.84	1572.84
446.02	1685.19
446.21	1685.19
446.39	1687.53
446.58	1633.69
446.77	1720.29
446.95	1694.55
447.14	1811.57
447.32	1827.96
447.51	1657.10
447.69	1636.03
447.88	1600.93
448.06	1680.50
448.25	1774.13
448.43	1657.10
448.62	1666.46
448.80	1727.32
448.99	1717.95
449.17	1692.21
449.36	1654.76
449.54	1715.61
449.73	1799.87
449.91	1860.73
450.10	1977.75
450.28	2022.22
450.46	2076.06
450.65	1968.39
450.83	1844.34
451.02	1849.02
451.20	1781.15
451.39	1853.70
451.57	1834.98
451.76	1834.98
451.94	1837.32
452.13	1844.34
452.31	1739.02
452.49	1617.31
452.68	1629.01
452.86	1664.12
453.05	1647.74
453.23	1638.38
453.42	1764.76
453.60	1884.13
453.78	1823.28
453.97	1818.60
454.15	1685.19
454.34	1762.42
454.52	1827.96
454.70	1736.68
454.89	1689.87
455.07	1802.21
455.26	1732.00
455.44	1912.22
455.62	1926.26
455.81	1935.62
455.99	1863.07
456.17	1867.75
456.36	1865.41
456.54	1928.60
456.73	1980.09
456.91	1980.09
457.09	2052.65
457.28	1933.28
457.46	1919.24
457.64	1802.21
457.83	1778.81
458.01	1732.00
458.19	1802.21
458.38	1776.47
458.56	1947.33
458.74	1872.43
458.93	1905.20
459.11	1781.15
459.29	1856.04
459.48	1867.75
459.66	1790.51
459.84	1795.19
460.03	1844.34
460.21	1792.85
460.39	1956.69
460.57	1893.49
460.76	1961.37
460.94	1879.45
461.12	1996.48
461.31	1954.35
461.49	1823.28
461.67	1902.86
461.85	1944.99
462.04	1886.47
462.22	2078.40
462.40	1853.70
462.59	2026.90
462.77	2076.06
462.95	1980.09
463.13	1863.07
463.32	1870.09
463.50	1858.39
463.68	1949.67
463.86	1916.90
464.05	1783.49
464.23	1842.00
464.41	1746.04
464.59	1776.47
464.78	1870.09
464.96	1783.49
465.14	1872.43
465.32	1900.52
465.50	1937.96
465.69	1937.96
465.87	1900.52
466.05	1940.30
466.23	1811.57
466.41	1680.50
466.60	1633.69
466.78	1834.98
466.96	1834.98
467.14	1839.66
467.32	1907.54
467.51	2003.50
467.69	1799.87
467.87	1842.00
468.05	1858.39
468.23	1916.90
468.41	1760.08
468.60	1746.04
468.78	1923.92
468.96	1891.15
469.14	1954.35
469.32	1944.99
469.50	1900.52
469.69	1846.68
469.87	1818.60
470.05	1905.20
470.23	1809.23
470.41	1757.74
470.59	1778.81
470.77	1842.00
470.95	1870.09
471.14	1877.11
471.32	2050.31
471.50	1942.64
471.68	2148.61
471.86	2057.33
472.04	2064.35
472.22	2118.18
472.40	1921.58
472.58	1933.28
472.77	1989.46
472.95	1907.54
473.13	2043.29
473.31	1982.43
473.49	2026.90
473.67	2169.68
473.85	1881.79
474.03	2146.27
474.21	2115.84
474.39	2057.33
474.57	2143.93
474.75	2059.67
474.93	2118.18
475.12	2017.54
475.30	2045.63
475.48	2087.76
475.66	2148.61
475.84	2085.42
476.02	2085.42
476.20	1952.01
476.38	2069.03
476.56	2017.54
476.74	2223.51
476.92	2293.72
477.10	2183.72
477.28	2296.07
477.46	2211.81
477.64	2363.94
477.82	2221.17
478.00	2282.02
478.18	2307.77
478.36	2242.23
478.54	2129.89
478.72	2286.70
478.90	2235.21
479.08	2300.75
479.26	2373.30
479.44	2445.86
479.62	2324.15
479.80	2438.84
479.98	2413.09
480.16	2492.67
480.34	2359.26
480.52	2424.80
480.70	2483.31
480.88	2478.63
481.06	2483.31
481.24	2525.44
481.41	2502.03
481.59	2649.49
481.77	2560.55
481.95	2551.18
482.13	2513.74
482.31	2438.84
482.49	2574.59
482.67	2520.76
482.85	2612.04
483.03	2621.40
483.21	2597.99
483.39	2668.21
483.57	2534.80
483.74	2642.46
483.92	2586.29
484.10	2576.93
484.28	2693.96
484.46	2661.19
484.64	2740.77
484.82	2597.99
485.00	2644.81
485.18	2569.91
485.35	2644.81
485.53	2251.60
485.71	2153.29
485.89	2113.50
486.07	2141.59
486.25	2328.83
486.43	2562.89
486.61	2534.80
486.78	2633.10
486.96	2562.89
487.14	2705.66
487.32	2747.79
487.50	2794.60
487.68	2853.11
487.85	2871.84
488.03	2890.56
488.21	2853.11
488.39	2796.94
488.57	2799.28
488.75	2677.57
488.92	2834.39
489.10	2986.52
489.28	3112.91
489.46	3232.28
489.64	3173.77
489.81	3267.39
489.99	3164.40
490.17	3119.93
490.35	3300.16
490.53	3138.66
490.70	3150.36
490.88	3105.89
491.06	3346.97
491.24	3227.60
491.41	3077.80
491.59	2965.46
491.77	2911.63
491.95	2993.55
492.13	3197.17
492.30	3236.96
492.48	3328.24
492.66	3307.18
492.84	3346.97
493.01	3424.20
493.19	3309.52
493.37	3302.50
493.54	3281.43
493.72	3297.81
493.90	3459.31
494.08	3623.15
494.25	3538.89
494.43	3639.53
494.61	3613.79
494.79	3758.90
494.96	3606.77
495.14	3461.65
495.32	3431.23
495.49	3396.12
495.67	3456.97
495.85	3592.72
496.02	3618.47
496.20	3569.32
496.38	3758.90
496.55	3503.78
496.73	3709.75
496.91	3679.32
497.09	3784.65
497.26	3770.60
497.44	3684.00
497.62	3602.08
497.79	3574.00
497.97	3403.14
498.14	3431.23
498.32	3564.64
498.50	3632.51
498.67	3723.79
498.85	3716.77
499.03	3691.02
499.20	3789.33
499.38	3583.36
499.56	3751.88
499.73	3585.70
499.91	3700.39
500.08	3634.85
500.26	3447.61
500.44	3527.19
500.61	3698.05
500.79	3538.89
500.97	3562.30
501.14	3562.30
501.32	3494.42
501.49	3506.12
501.67	3442.93
501.84	3609.11
502.02	3543.57
502.20	3705.07
502.37	3726.13
502.55	3679.32
502.72	3747.20
502.90	3892.31
503.07	3684.00
503.25	3576.34
503.43	3585.70
503.60	3407.82
503.78	3318.88
503.95	3468.67
504.13	3735.50
504.30	3749.54
504.48	3728.47
504.65	3744.86
504.83	3721.45
505.01	3777.62
505.18	3779.97
505.36	4044.45
505.53	4002.32
505.71	3880.61
505.88	3892.31
506.06	3782.31
506.23	3854.86
506.41	3819.75
506.58	3918.06
506.76	3801.03
506.93	3875.93
507.11	3772.94
507.28	3824.44
507.46	3763.58
507.63	3606.77
507.81	3569.32
507.98	3454.63
508.16	3782.31
508.33	3782.31
508.50	3775.28
508.68	3913.38
508.85	4018.70
509.03	4053.81
509.20	3948.48
509.38	3761.24
509.55	3836.14
509.73	3712.09
509.90	3843.16
510.08	3936.78
510.25	3840.82
510.42	3712.09
510.60	3845.50
510.77	3847.84
510.95	3925.08
511.12	3918.06
511.30	4011.68
511.47	4004.66
511.64	4156.79
511.82	4023.38
511.99	3852.52
512.17	3740.18
512.34	3698.05
512.51	3801.03
512.69	3684.00
512.86	3789.33
513.04	3838.48
513.21	3784.65
513.38	3751.88
513.56	3829.12
513.73	3623.15
513.90	3702.73
514.08	3665.28
514.25	3658.26
514.43	3758.90
514.60	3660.60
514.77	3817.41
514.95	3691.02
515.12	3826.78
515.29	3754.22
515.47	3801.03
515.64	3805.71
515.81	3742.52
515.99	3833.80
516.16	3566.98
516.33	3339.94
516.51	3112.91
516.68	3054.40
516.85	2972.48
517.03	2930.35
517.20	3400.80
517.37	3618.47
517.54	3829.12
517.72	3756.56
517.89	3368.03
518.06	3222.92
518.24	3145.68
518.41	3314.20
518.58	3627.83
518.75	3735.50
518.93	3700.39
519.10	3564.64
519.27	3801.03
519.45	3712.09
519.62	3747.20
519.79	3880.61
519.96	3742.52
520.14	3728.47
520.31	3686.34
520.48	3728.47
520.65	3597.40
520.83	3929.76
521.00	3817.41
521.17	3892.31
521.34	3899.33
521.52	3667.62
521.69	3791.67
521.86	3798.69
522.03	3885.29
522.20	3770.60
522.38	3538.89
522.55	3597.40
522.72	3667.62
522.89	3786.99
523.07	3770.60
523.24	3737.84
523.41	3953.16
523.58	3812.73
523.75	4067.85
523.92	3946.14
524.10	3927.42
524.27	3868.91
524.44	4072.53
524.61	4044.45
524.78	3936.78
524.96	3899.33
525.13	3845.50
525.30	3880.61
525.47	4102.96
525.64	4044.45
525.81	3730.81
525.98	3557.61
526.16	3346.97
526.33	3258.03
526.50	3293.13
526.67	3302.50
526.84	3323.56
527.01	3517.83
527.18	3541.23
527.36	3641.87
527.53	3868.91
527.70	3964.87
527.87	3784.65
528.04	3672.30
528.21	3801.03
528.38	3782.31
528.55	3992.95
528.72	4063.17
528.89	4098.28
529.07	4072.53
529.24	3817.41
529.41	3810.39
529.58	3754.22
529.75	3712.09
529.92	3691.02
530.09	3833.80
530.26	3992.95
530.43	3892.31
530.60	3887.63
530.77	3967.21
530.94	3955.51
531.11	3988.27
531.28	3934.44
531.46	3932.10
531.63	3943.80
531.80	3871.25
531.97	3765.92
532.14	3674.64
532.31	3478.04
532.48	3538.89
532.65	3485.06
532.82	3625.49
532.99	3592.72
533.16	3679.32
533.33	3744.86
533.50	3997.64
533.67	3758.90
533.84	3728.47
534.01	3721.45
534.18	3744.86
534.35	3817.41
534.52	3784.65
534.69	3658.26
534.86	3789.33
535.03	3735.50
535.20	3978.91
535.37	4053.81
535.54	3967.21
535.71	3915.72
535.88	3875.93
536.05	3756.56
536.22	3756.56
536.38	3772.94
536.55	3609.11
536.72	3595.06
536.89	3538.89
537.06	3662.94
537.23	3831.46
537.40	3801.03
537.57	3751.88
537.74	3796.35
537.91	3819.75
538.08	3756.56
538.25	3648.90
538.42	3674.64
538.59	3740.18
538.75	3686.34
538.92	3595.06
539.09	3468.67
539.26	3691.02
539.43	3531.87
539.60	3576.34
539.77	3637.19
539.94	3660.60
540.11	3454.63
540.28	3431.23
540.44	3480.38
540.61	3454.63
540.78	3566.98
540.95	3581.02
541.12	3527.19
541.29	3644.21
541.46	3604.42
541.62	3555.27
541.79	3541.23
541.96	3548.25
542.13	3604.42
542.30	3763.58
542.47	3578.68
542.63	3609.11
542.80	3529.53
542.97	3531.87
543.14	3433.57
543.31	3571.66
543.48	3662.94
543.64	3784.65
543.81	3742.52
543.98	3719.11
544.15	3686.34
544.32	3562.30
544.48	3480.38
544.65	3658.26
544.82	3721.45
544.99	3485.06
545.16	3578.68
545.32	3578.68
545.49	3691.02
545.66	3803.37
545.83	3756.56
546.00	3569.32
546.16	3620.81
546.33	3506.12
546.50	3536.55
546.67	3669.96
546.83	3583.36
547.00	3592.72
547.17	3515.48
547.34	3454.63
547.50	3379.73
547.67	3365.69
547.84	3538.89
548.00	3508.46
548.17	3627.83
548.34	3508.46
548.51	3538.89
548.67	3543.57
548.84	3524.85
549.01	3581.02
549.18	3590.38
549.34	3574.00
549.51	3485.06
549.68	3410.16
549.84	3620.81
550.01	3513.14
550.18	3459.31
550.34	3445.27
550.51	3461.65
550.68	3377.39
550.84	3379.73
551.01	3529.53
551.18	3452.29
551.34	3609.11
551.51	3386.76
551.68	3620.81
551.84	3576.34
552.01	3529.53
552.18	3555.27
552.34	3344.63
552.51	3365.69
552.68	3382.07
552.84	3302.50
553.01	3442.93
553.18	3248.66
553.34	3440.59
553.51	3517.83
553.67	3641.87
553.84	3559.95
554.01	3480.38
554.17	3384.41
554.34	3555.27
554.51	3459.31
554.67	3410.16
554.84	3496.76
555.00	3492.08
555.17	3520.17
555.33	3358.67
555.50	3382.07
555.67	3510.80
555.83	3524.85
556.00	3414.84
556.16	3272.07
556.33	3346.97
556.50	3215.90
556.66	3251.00
556.83	3208.87
556.99	3232.28
557.16	3215.90
557.32	3365.69
557.49	3337.60
557.65	3211.22
557.82	3311.86
557.98	3370.37
558.15	3239.30
558.32	3190.15
558.48	3126.96
558.65	3110.57
558.81	3068.44
558.98	3138.66
559.14	3225.26
559.31	3187.81
559.47	3173.77
559.64	3185.47
559.80	3101.21
559.97	3063.76
560.13	3098.87
560.30	3379.73
560.46	3393.78
560.63	3363.35
560.79	3335.26
560.96	3496.76
561.12	3225.26
561.29	3033.33
561.45	3091.85
561.61	3220.58
561.78	3297.81
561.94	3150.36
562.11	3159.72
562.27	3096.53
562.44	3208.87
562.60	3269.73
562.77	3253.34
562.93	3105.89
563.10	3337.60
563.26	3138.66
563.42	3136.32
563.59	3199.51
563.75	3159.72
563.92	3253.34
564.08	3162.06
564.24	3096.53
564.41	3185.47
564.57	3021.63
564.74	3068.44
564.90	3155.04
565.07	3148.02
565.23	3021.63
565.39	3059.08
565.56	2953.76
565.72	2925.67
565.88	2876.52
566.05	2984.18
566.21	2995.89
566.38	3112.91
566.54	2956.10
566.70	3070.78
566.87	3101.21
567.03	3290.79
567.19	3098.87
567.36	3096.53
567.52	3063.76
567.68	3124.62
567.85	3098.87
568.01	3063.76
568.17	2956.10
568.34	2813.32
568.50	2902.26
568.66	2841.41
568.83	2988.86
568.99	2953.76
569.15	3052.06
569.32	2972.48
569.48	2888.22
569.64	2913.97
569.81	2899.92
569.97	2839.07
570.13	2895.24
570.30	2827.37
570.46	2796.94
570.62	2684.59
570.78	2651.83
570.95	2803.96
571.11	2825.03
571.27	2890.56
571.43	2885.88
571.60	2935.03
571.76	2958.44
571.92	2750.13
572.09	2965.46
572.25	2874.18
572.41	2988.86
572.57	2881.20
572.74	2935.03
572.90	2951.42
573.06	2897.58
573.22	2958.44
573.38	3047.38
573.55	2890.56
573.71	2906.95
573.87	2995.89
574.03	2839.07
574.20	2761.83
574.36	2843.75
574.52	2860.13
574.68	2785.24
574.84	2885.88
575.01	2686.94
575.17	2656.51
575.33	2719.70
575.49	2747.79
575.65	2855.45
575.82	2747.79
575.98	2677.57
576.14	2785.24
576.30	2876.52
576.46	2801.62
576.62	2768.85
576.79	2740.77
576.95	2775.88
577.11	2750.13
577.27	2719.70
577.43	2801.62
577.59	2766.51
577.75	2698.64
577.92	2726.72
578.08	2693.96
578.24	2670.55
578.40	2752.47
578.56	2768.85
578.72	2668.21
578.88	2752.47
579.04	2614.38
579.21	2843.75
579.37	2715.02
579.53	2768.85
579.69	2801.62
579.85	2747.79
580.01	2803.96
580.17	2605.02
580.33	2708.00
580.49	2588.63
580.65	2647.15
580.82	2771.19
580.98	2738.43
581.14	2661.19
581.30	2698.64
581.46	2675.23
581.62	2698.64
581.78	2633.10
581.94	2780.56
582.10	2647.15
582.26	2782.90
582.42	2897.58
582.58	2682.25
582.74	2731.41
582.90	2726.72
583.06	2775.88
583.22	2768.85
583.38	2773.53
583.54	2771.19
583.70	2583.95
583.86	2689.28
584.02	2665.87
584.18	2754.81
584.34	2588.63
584.50	2663.53
584.66	2717.36
584.82	2651.83
584.98	2518.42
585.14	2555.86
585.30	2530.12
585.46	2478.63
585.62	2473.95
585.78	2588.63
585.94	2612.04
586.10	2518.42
586.26	2553.52
586.42	2548.84
586.58	2560.55
586.74	2633.10
586.90	2593.31
587.06	2487.99
587.22	2607.36
587.38	2518.42
587.54	2651.83
587.70	2579.27
587.86	2487.99
588.02	2546.50
588.18	2457.56
588.34	2321.81
588.49	2132.23
588.65	2017.54
588.81	1949.67
588.97	2148.61
589.13	2101.80
589.29	2026.90
589.45	2153.29
589.61	2174.36
589.77	2282.02
589.93	2289.04
590.08	2382.67
590.24	2462.24
590.40	2497.35
590.56	2452.88
590.72	2326.49
590.88	2363.94
591.04	2406.07
591.20	2392.03
591.35	2429.48
591.51	2375.64
591.67	2361.60
591.83	2443.52
591.99	2385.01
592.15	2324.15
592.31	2305.43
592.46	2338.20
592.62	2310.11
592.78	2279.68
592.94	2478.63
593.10	2359.26
593.26	2331.17
593.41	2270.32
593.57	2260.96
593.73	2324.15
593.89	2314.79
594.05	2328.83
594.20	2244.57
594.36	2312.45
594.52	2235.21
594.68	2300.75
594.84	2370.96
594.99	2359.26
595.15	2347.56
595.31	2328.83
595.47	2193.08
595.62	2356.92
595.78	2396.71
595.94	2377.98
596.10	2307.77
596.25	2298.41
596.41	2228.19
596.57	2352.24
596.73	2342.88
596.88	2221.17
597.04	2272.66
597.20	2286.70
597.36	2275.00
597.51	2267.98
597.67	2317.13
597.83	2326.49
597.99	2249.25
598.14	2239.89
598.30	2331.17
598.46	2291.38
598.61	2200.10
598.77	2333.51
598.93	2188.40
599.09	2305.43
599.24	2445.86
599.40	2202.44
599.56	2223.51
599.71	2263.30
599.87	2225.85
600.03	2359.26
600.18	2272.66
600.34	2172.02
600.50	2122.87
600.65	2225.85
600.81	2275.00
600.97	2256.28
601.12	2087.76
601.28	2157.97
601.44	2150.95
601.59	2246.91
601.75	2200.10
601.91	2148.61
602.06	2031.58
602.22	2097.12
602.37	2188.40
602.53	2181.38
602.69	2204.78
602.84	2125.21
603.00	2202.44
603.16	2202.44
603.31	2190.74
603.47	2186.06
603.62	2298.41
603.78	2319.47
603.94	2200.10
604.09	2150.95
604.25	2150.95
604.40	2176.70
604.56	2047.97
604.71	2190.74
604.87	2174.36
605.03	2113.50
605.18	2148.61
605.34	2092.44
605.49	2062.01
605.65	2148.61
605.80	2160.31
605.96	2160.31
606.12	2087.76
606.27	2146.27
606.43	2003.50
606.58	2155.63
606.74	2097.12
606.89	2125.21
607.05	2160.31
607.20	2127.55
607.36	2078.40
607.51	2122.87
607.67	2097.12
607.82	2085.42
607.98	2024.56
608.13	1989.46
608.29	2087.76
608.44	2085.42
608.60	1952.01
608.75	2090.10
608.91	2073.71
609.06	2148.61
609.22	2083.08
609.37	2083.08
609.53	2050.31
609.68	2078.40
609.84	2052.65
609.99	2005.84
610.15	1968.39
610.30	2054.99
610.46	1987.11
610.61	2031.58
610.76	1989.46
610.92	2167.34
611.07	2057.33
611.23	2038.61
611.38	2083.08
611.54	1994.14
611.69	2043.29
611.84	1874.77
612.00	1987.11
612.15	1956.69
612.31	1947.33
612.46	1905.20
612.62	1919.24
612.77	2029.24
612.92	2033.93
613.08	1968.39
613.23	1944.99
613.39	1963.71
613.54	1830.30
613.69	1919.24
613.85	1842.00
614.00	1811.57
614.15	1914.56
614.31	1963.71
614.46	1937.96
614.62	1872.43
614.77	1851.36
614.92	1975.41
615.08	1912.22
615.23	1996.48
615.38	1872.43
615.54	1785.83
615.69	1802.21
615.84	1806.89
616.00	1783.49
616.15	1715.61
616.30	1785.83
616.46	1792.85
616.61	1764.76
616.76	1792.85
616.92	1743.70
617.07	1823.28
617.22	1863.07
617.37	1757.74
617.53	1734.34
617.68	1867.75
617.83	1755.40
617.99	1858.39
618.14	1849.02
618.29	1764.76
618.45	1783.49
618.60	1699.23
618.75	1853.70
618.90	1734.34
619.06	1825.62
619.21	1762.42
619.36	1760.08
619.51	1863.07
619.67	1799.87
619.82	1675.82
619.97	1886.47
620.12	1760.08
620.28	1708.59
620.43	1776.47
620.58	1846.68
620.73	1739.02
620.89	1799.87
621.04	1778.81
621.19	1776.47
621.34	1736.68
621.49	1645.40
621.65	1685.19
621.80	1643.06
621.95	1701.57
622.10	1717.95
622.25	1687.53
622.41	1694.55
622.56	1717.95
622.71	1614.97
622.86	1577.52
623.01	1570.50
623.16	1629.01
623.32	1710.93
623.47	1636.03
623.62	1654.76
623.77	1605.61
623.92	1689.87
624.07	1657.10
624.23	1629.01
624.38	1533.05
624.53	1650.08
624.68	1694.55
624.83	1614.97
624.98	1540.07
625.13	1614.97
625.29	1528.37
625.44	1549.43
625.59	1568.16
625.74	1657.10
625.89	1600.93
626.04	1591.56
626.19	1516.67
626.34	1521.35
626.49	1563.48
626.65	1572.84
626.80	1631.35
626.95	1519.01
627.10	1556.46
627.25	1533.05
627.40	1392.62
627.55	1465.18
627.70	1423.05
627.85	1493.26
628.00	1406.66
628.15	1413.68
628.30	1519.01
628.45	1528.37
628.60	1500.28
628.76	1507.30
628.91	1563.48
629.06	1568.16
629.21	1502.62
629.36	1493.26
629.51	1568.16
629.66	1397.30
629.81	1416.02
629.96	1383.26
630.11	1397.30
630.26	1441.77
630.41	1472.20
630.56	1441.77
630.71	1533.05
630.86	1409.00
631.01	1476.88
631.16	1401.98
631.31	1430.07
631.46	1364.53
631.61	1493.26
631.76	1469.86
631.91	1626.67
632.06	1483.90
632.21	1488.58
632.36	1432.41
632.51	1476.88
632.66	1352.83
632.81	1476.88
632.96	1460.49
633.10	1350.49
633.25	1483.90
633.40	1444.11
633.55	1460.49
633.70	1493.26
633.85	1455.81
634.00	1472.20
634.15	1343.47
634.30	1364.53
634.45	1439.43
634.60	1444.11
634.75	1313.04
634.90	1394.96
635.05	1406.66
635.19	1444.11
635.34	1427.73
635.49	1357.51
635.64	1334.11
635.79	1355.17
635.94	1369.21
636.09	1387.94
636.24	1397.30
636.39	1390.28
636.53	1383.26
636.68	1416.02
636.83	1465.18
636.98	1411.34
637.13	1383.26
637.28	1366.87
637.43	1430.07
637.57	1378.58
637.72	1345.81
637.87	1343.47
638.02	1392.62
638.17	1331.76
638.32	1299.00
638.46	1418.36
638.61	1352.83
638.76	1401.98
638.91	1366.87
639.06	1348.15
639.20	1233.46
639.35	1348.15
639.50	1291.98
639.65	1299.00
639.80	1404.32
639.94	1366.87
640.09	1275.59
640.24	1310.70
640.39	1373.89
640.54	1217.08
640.68	1315.38
640.83	1378.58
640.98	1284.95
641.13	1291.98
641.27	1233.46
641.42	1308.36
641.57	1128.14
641.72	1282.61
641.86	1238.14
642.01	1259.21
642.16	1221.76
642.31	1277.93
642.45	1310.70
642.60	1214.74
642.75	1235.80
642.90	1205.38
643.04	1303.68
643.19	1196.01
643.34	1151.54
643.48	1270.91
643.63	1296.66
643.78	1294.32
643.93	1261.55
644.07	1324.74
644.22	1203.04
644.37	1329.42
644.51	1226.44
644.66	1177.29
644.81	1228.78
644.95	1256.87
645.10	1210.06
645.25	1170.27
645.39	1210.06
645.54	1217.08
645.69	1078.99
645.83	1102.39
645.98	1181.97
646.13	1151.54
646.27	1149.20
646.42	1067.28
646.57	1158.57
646.71	1165.59
646.86	1088.35
647.00	1177.29
647.15	1200.69
647.30	1181.97
647.44	1102.39
647.59	1095.37
647.74	1036.86
647.88	1121.12
648.03	1132.82
648.17	1076.65
648.32	1118.78
648.47	1240.48
648.61	1118.78
648.76	1125.80
648.90	1153.88
649.05	1062.60
649.20	959.62
649.34	971.32
649.49	968.98
649.63	1022.81
649.78	1093.03
649.92	1086.01
650.07	1067.28
650.21	1109.41
650.36	1078.99
650.51	1055.58
650.65	1177.29
650.80	1114.10
650.94	1167.93
651.09	1100.05
651.23	1090.69
651.38	1064.94
651.52	1011.11
651.67	964.30
651.81	1083.67
651.96	1086.01
652.10	1086.01
652.25	1048.56
652.39	1153.88
652.54	1055.58
652.68	1100.05
652.83	1046.22
652.97	1118.78
653.12	1095.37
653.26	1109.41
653.41	1107.07
653.55	1053.24
653.70	1034.52
653.84	1100.05
653.99	1104.73
654.13	1015.79
654.27	1039.20
654.42	945.58
654.56	976.00
654.71	1050.90
654.85	968.98
655.00	992.39
655.14	994.73
655.29	959.62
655.43	1020.47
655.57	837.91
655.72	767.70
655.86	823.87
656.01	751.31
656.15	723.23
656.30	720.88
656.44	826.21
656.58	753.65
656.73	875.36
656.87	889.40
657.01	905.79
657.16	905.79
657.30	994.73
657.45	947.92
657.59	1071.97
657.73	1034.52
657.88	1036.86
658.02	1046.22
658.16	980.68
658.31	929.19
658.45	926.85
658.60	1018.13
658.74	1022.81
658.88	945.58
659.03	805.14
659.17	891.74
659.31	908.13
659.46	987.71
659.60	929.19
659.74	931.53
659.89	1032.18
660.03	947.92
660.17	990.05
660.32	1046.22
660.46	1020.47
660.60	936.21
660.74	1001.75
660.89	933.87
661.03	924.51
661.17	985.37
661.32	978.34
661.46	924.51
661.60	929.19
661.74	835.57
661.89	938.55
662.03	936.21
662.17	997.07
662.31	894.08
662.46	973.66
662.60	987.71
662.74	999.41
662.88	823.87
663.03	947.92
663.17	929.19
663.31	844.93
663.45	812.17
663.60	791.10
663.74	856.64
663.88	1013.45
664.02	873.02
664.17	880.04
664.31	858.98
664.45	945.58
664.59	917.49
664.73	858.98
664.88	851.96
665.02	903.45
665.16	870.68
665.30	873.02
665.44	880.04
665.59	837.91
665.73	950.26
665.87	870.68
666.01	877.70
666.15	777.06
666.29	919.83
666.44	931.53
666.58	802.80
666.72	805.14
666.86	894.08
667.00	854.30
667.14	926.85
667.28	751.31
667.43	786.42
667.57	819.19
667.71	844.93
667.85	863.66
667.99	800.46
668.13	821.53
668.27	844.93
668.41	826.21
668.56	802.80
668.70	884.72
668.84	774.72
668.98	805.14
669.12	858.98
669.26	866.00
669.40	760.67
669.54	854.30
669.68	823.87
669.82	873.02
669.96	786.42
670.10	788.76
670.25	875.36
670.39	765.36
670.53	748.97
670.67	788.76
670.81	709.18
670.95	772.38
671.09	774.72
671.23	706.84
671.37	685.78
671.51	753.65
671.65	678.76
671.79	702.16
671.93	793.44
672.07	713.86
672.21	807.48
672.35	760.67
672.49	676.41
672.63	774.72
672.77	690.46
672.91	795.78
673.05	746.63
673.19	697.48
673.33	779.40
673.47	669.39
673.61	676.41
673.75	723.23
673.89	777.06
674.03	629.60
674.17	601.52
674.31	620.24
674.45	716.20
674.59	624.92
674.73	713.86
674.87	657.69
675.01	718.54
675.15	697.48
675.29	681.10
675.43	641.31
675.56	638.97
675.70	690.46
675.84	641.31
675.98	554.71
676.12	671.73
676.26	662.37
676.40	678.76
676.54	617.90
676.68	643.65
676.82	636.63
676.96	671.73
677.10	636.63
677.23	601.52
677.37	718.54
677.51	732.59
677.65	638.97
677.79	606.20
677.93	657.69
678.07	631.94
678.21	578.11
678.34	608.54
678.48	543.00
678.62	643.65
678.76	592.16
678.90	589.82
679.04	634.29
679.18	547.69
679.31	662.37
679.45	601.52
679.59	561.73
679.73	512.58
679.87	505.56
680.00	465.77
680.14	624.92
680.28	526.62
680.42	514.92
680.56	554.71
680.70	564.07
680.83	624.92
680.97	521.94
681.11	524.28
681.25	566.41
681.39	564.07
681.52	538.32
681.66	517.26
681.80	550.03
681.94	538.32
682.07	554.71
682.21	528.96
682.35	498.53
682.49	493.85
682.62	496.19
682.76	521.94
682.90	486.83
683.04	531.30
683.17	526.62
683.31	500.87
683.45	444.70
683.59	440.02
683.72	543.00
683.86	475.13
684.00	449.38
684.13	482.15
684.27	409.59
684.41	458.74
684.55	519.60
684.68	475.13
684.82	418.96
684.96	447.04
685.09	433.00
685.23	407.25
685.37	411.93
685.50	381.51
685.64	433.00
685.78	421.30
685.91	390.87
686.05	416.62
686.19	461.09
686.32	437.68
686.46	376.83
686.60	210.65
686.73	208.31
686.87	203.63
687.01	187.24
687.14	147.45
687.28	227.03
687.42	142.77
687.55	196.60
687.69	299.59
687.82	325.33
687.96	437.68
688.10	327.68
688.23	334.70
688.37	278.52
688.50	341.72
688.64	306.61
688.78	252.78
688.91	255.12
689.05	259.80
689.18	285.55
689.32	252.78
689.46	248.10
689.59	245.76
689.73	276.18
689.86	287.89
690.00	173.20
690.13	257.46
690.27	290.23
690.41	346.40
690.54	315.97
690.68	264.48
690.81	315.97
690.95	304.27
691.08	330.02
691.22	283.20
691.35	353.42
691.49	365.12
691.62	383.85
691.76	297.25
691.89	306.61
692.03	262.14
692.16	308.95
692.30	327.68
692.43	210.65
692.57	222.35
692.70	245.76
692.84	280.86
692.97	304.27
693.11	243.42
693.24	313.63
693.38	283.20
693.51	304.27
693.65	245.76
693.78	290.23
693.92	205.97
694.05	194.26
694.19	243.42
694.32	159.16
694.45	191.92
694.59	224.69
694.72	278.52
694.86	269.16
694.99	252.78
695.13	241.08
695.26	236.39
695.39	142.77
695.53	177.88
695.66	236.39
695.80	250.44
695.93	166.18
696.07	252.78
696.20	201.29
696.33	241.08
696.47	177.88
696.60	224.69
696.73	248.10
696.87	273.84
697.00	201.29
697.14	203.63
697.27	318.31
697.40	264.48
697.54	212.99
697.67	138.09
697.80	152.13
697.94	238.73
698.07	191.92
698.21	159.16
698.34	161.50
698.47	294.91
698.61	203.63
698.74	215.33
698.87	133.41
699.01	119.37
699.14	121.71
699.27	173.20
699.40	154.48
699.54	182.56
699.67	255.12
699.80	159.16
699.94	170.86
700.07	88.94
700.20	147.45
700.34	84.26
700.47	67.88
700.60	107.66
700.73	67.88
700.87	124.05
701.00	135.75
701.13	147.45
701.26	145.11
701.40	210.65
701.53	224.69
701.66	105.32
701.79	119.37
701.93	119.37
702.06	152.13
702.19	107.66
702.32	86.60
702.46	65.54
702.59	60.85
702.72	114.69
702.85	44.47
702.99	154.48
703.12	65.54
703.25	95.96
703.38	56.17
703.51	189.58
703.65	180.22
703.78	70.22
703.91	154.48
704.04	86.60
704.17	135.75
704.31	88.94
704.44	72.56
704.57	156.82
704.70	28.09
704.83	110.01
704.96	14.04
705.10	51.49
705.23	126.39
>>>>>End Processed Spectral Data<<<<<
