SpectraSuite Data File
++++++++++++++++++++++++++++++++++++
Date: Mon Oct 07 14:54:55 GMT-05:00 2013
User: price-jones
Dark Spectrum Present: No
Reference Spectrum Present: No
Number of Sampled Component Spectra: 1
Spectrometers: USB2+H05261
Integration Time (usec): 10000 (USB2+H05261)
Spectra Averaged: 1 (USB2+H05261)
Boxcar Smoothing: 0 (USB2+H05261)
Correct for Electrical Dark: No (USB2+H05261)
Strobe/Lamp Enabled: No (USB2+H05261)
Correct for Detector Non-linearity: No (USB2+H05261)
Correct for Stray Light: No (USB2+H05261)
Number of Pixels in Processed Spectrum: 2048
>>>>>Begin Processed Spectral Data<<<<<
365.73	0.00
365.92	0.00
366.12	0.00
366.32	0.00
366.52	0.00
366.72	0.00
366.91	0.00
367.11	0.00
367.31	0.00
367.51	0.00
367.70	0.00
367.90	0.00
368.10	0.00
368.30	0.00
368.49	0.00
368.69	0.00
368.89	0.00
369.09	0.00
369.28	0.00
369.48	0.00
369.68	0.00
369.87	0.00
370.07	0.00
370.27	0.00
370.47	0.00
370.66	0.00
370.86	16.38
371.06	37.45
371.25	0.00
371.45	0.00
371.65	0.00
371.84	0.00
372.04	0.00
372.24	0.00
372.44	0.00
372.63	37.45
372.83	14.04
373.03	0.00
373.22	0.00
373.42	32.77
373.62	49.15
373.81	39.79
374.01	35.11
374.21	0.00
374.40	42.13
374.60	16.38
374.79	74.90
374.99	149.79
375.19	131.07
375.38	147.45
375.58	60.85
375.78	84.26
375.97	112.35
376.17	173.20
376.37	166.18
376.56	180.22
376.76	67.88
376.95	86.60
377.15	196.60
377.35	194.26
377.54	280.86
377.74	259.80
377.93	175.54
378.13	208.31
378.33	168.52
378.52	128.73
378.72	110.01
378.91	135.75
379.11	142.77
379.31	184.90
379.50	93.62
379.70	84.26
379.89	163.84
380.09	215.33
380.28	229.37
380.48	262.14
380.68	222.35
380.87	177.88
381.07	58.51
381.26	163.84
381.46	152.13
381.65	117.03
381.85	42.13
382.04	81.92
382.24	42.13
382.43	53.83
382.63	67.88
382.83	9.36
383.02	77.24
383.22	81.92
383.41	46.81
383.61	0.00
383.80	88.94
384.00	154.48
384.19	124.05
384.39	159.16
384.58	194.26
384.78	285.55
384.97	229.37
385.17	182.56
385.36	177.88
385.56	114.69
385.75	182.56
385.95	189.58
386.14	231.71
386.34	198.95
386.53	220.01
386.72	170.86
386.92	212.99
387.11	231.71
387.31	166.18
387.50	107.66
387.70	140.43
387.89	210.65
388.09	177.88
388.28	252.78
388.48	217.67
388.67	248.10
388.86	278.52
389.06	358.10
389.25	397.89
389.45	325.33
389.64	379.17
389.84	400.23
390.03	402.57
390.22	360.44
390.42	271.50
390.61	414.27
390.81	493.85
391.00	489.17
391.19	418.96
391.39	369.80
391.58	395.55
391.78	304.27
391.97	262.14
392.16	318.31
392.36	252.78
392.55	170.86
392.75	53.83
392.94	60.85
393.13	11.70
393.33	100.64
393.52	227.03
393.71	304.27
393.91	327.68
394.10	437.68
394.29	404.91
394.49	500.87
394.68	440.02
394.88	458.74
395.07	505.56
395.26	519.60
395.46	458.74
395.65	425.98
395.84	383.85
396.04	273.84
396.23	126.39
396.42	149.79
396.62	170.86
396.81	138.09
397.00	252.78
397.19	337.04
397.39	493.85
397.58	561.73
397.77	695.14
397.97	702.16
398.16	720.88
398.35	589.82
398.55	702.16
398.74	835.57
398.93	840.25
399.12	753.65
399.32	821.53
399.51	854.30
399.70	830.89
399.90	763.01
400.09	854.30
400.28	851.96
400.47	903.45
400.67	842.59
400.86	912.81
401.05	908.13
401.24	983.02
401.44	1006.43
401.63	987.71
401.82	1011.11
402.01	940.90
402.21	938.55
402.40	931.53
402.59	933.87
402.78	856.64
402.97	784.08
403.17	880.04
403.36	1013.45
403.55	971.32
403.74	1062.60
403.93	1015.79
404.13	880.04
404.32	844.93
404.51	826.21
404.70	1018.13
404.89	947.92
405.09	945.58
405.28	938.55
405.47	917.49
405.66	976.00
405.85	905.79
406.05	828.55
406.24	830.89
406.43	875.36
406.62	954.94
406.81	978.34
407.00	1001.75
407.20	821.53
407.39	842.59
407.58	940.90
407.77	1032.18
407.96	973.66
408.15	1062.60
408.34	1088.35
408.54	1137.50
408.73	1111.75
408.92	1116.44
409.11	1093.03
409.30	1011.11
409.49	880.04
409.68	847.27
409.87	870.68
410.07	936.21
410.26	947.92
410.45	1011.11
410.64	1184.31
410.83	1210.06
411.02	1174.95
411.21	1270.91
411.40	1151.54
411.59	1188.99
411.78	1177.29
411.98	1144.52
412.17	1160.91
412.36	1071.97
412.55	1231.12
412.74	1151.54
412.93	1184.31
413.12	1067.28
413.31	1193.67
413.50	1203.04
413.69	1284.95
413.88	1177.29
414.07	1203.04
414.26	1160.91
414.45	1217.08
414.64	1233.46
414.83	1224.10
415.02	1247.51
415.22	1273.25
415.41	1282.61
415.60	1327.08
415.79	1355.17
415.98	1378.58
416.17	1338.79
416.36	1219.42
416.55	1373.89
416.74	1214.74
416.93	1135.16
417.12	1210.06
417.31	1299.00
417.50	1284.95
417.69	1369.21
417.88	1369.21
418.07	1355.17
418.26	1296.66
418.45	1261.55
418.64	1270.91
418.83	1409.00
419.02	1324.74
419.21	1343.47
419.39	1291.98
419.58	1217.08
419.77	1327.08
419.96	1259.21
420.15	1348.15
420.34	1416.02
420.53	1392.62
420.72	1495.60
420.91	1549.43
421.10	1434.75
421.29	1444.11
421.48	1364.53
421.67	1411.34
421.86	1441.77
422.05	1235.80
422.24	1219.42
422.43	1088.35
422.61	1277.93
422.80	1310.70
422.99	1355.17
423.18	1359.85
423.37	1352.83
423.56	1336.45
423.75	1263.89
423.94	1355.17
424.13	1268.57
424.32	1322.40
424.50	1303.68
424.69	1299.00
424.88	1170.27
425.07	1324.74
425.26	1245.16
425.45	1252.19
425.64	1228.78
425.83	1210.06
426.01	1266.23
426.20	1315.38
426.39	1291.98
426.58	1275.59
426.77	1095.37
426.96	1011.11
427.15	1083.67
427.33	1266.23
427.52	1289.64
427.71	1249.85
427.90	1299.00
428.09	1217.08
428.28	1252.19
428.46	1156.22
428.65	1130.48
428.84	1186.65
429.03	1322.40
429.22	1320.06
429.40	1135.16
429.59	1032.18
429.78	828.55
429.97	875.36
430.16	837.91
430.34	851.96
430.53	802.80
430.72	837.91
430.91	971.32
431.10	1132.82
431.28	1371.55
431.47	1598.59
431.66	1530.71
431.85	1439.43
432.03	1226.44
432.22	1296.66
432.41	1149.20
432.60	1458.15
432.79	1542.41
432.97	1579.86
433.16	1439.43
433.35	1416.02
433.54	1273.25
433.72	1107.07
433.91	1114.10
434.10	1280.27
434.28	1383.26
434.47	1483.90
434.66	1350.49
434.85	1519.01
435.03	1467.52
435.22	1453.47
435.41	1657.10
435.59	1687.53
435.78	1596.25
435.97	1586.88
436.16	1687.53
436.34	1685.19
436.53	1561.14
436.72	1554.12
436.90	1439.43
437.09	1425.39
437.28	1502.62
437.46	1621.99
437.65	1502.62
437.84	1441.77
438.02	1324.74
438.21	1291.98
438.40	1350.49
438.58	1458.15
438.77	1458.15
438.96	1551.78
439.14	1563.48
439.33	1640.72
439.52	1746.04
439.70	1645.40
439.89	1565.82
440.08	1507.30
440.26	1455.81
440.45	1675.82
440.63	1734.34
440.82	1844.34
441.01	1853.70
441.19	1680.50
441.38	1832.64
441.57	1879.45
441.75	1947.33
441.94	1837.32
442.12	1816.26
442.31	1888.81
442.50	1921.58
442.68	1844.34
442.87	1790.51
443.05	1792.85
443.24	1816.26
443.43	1825.62
443.61	1956.69
443.80	1982.43
443.98	1720.29
444.17	1792.85
444.35	2050.31
444.54	1942.64
444.73	1977.75
444.91	1919.24
445.10	1778.81
445.28	1729.66
445.47	1469.86
445.65	1682.85
445.84	1785.83
446.02	1788.17
446.21	1778.81
446.39	1874.77
446.58	1687.53
446.77	1820.94
446.95	1888.81
447.14	1998.82
447.32	2059.67
447.51	1921.58
447.69	1907.54
447.88	1790.51
448.06	1797.53
448.25	1919.24
448.43	1898.17
448.62	1797.53
448.80	1839.66
448.99	1944.99
449.17	1900.52
449.36	1792.85
449.54	2019.88
449.73	2026.90
449.91	2057.33
450.10	2101.80
450.28	2031.58
450.46	2127.55
450.65	2036.27
450.83	2150.95
451.02	2094.78
451.20	2106.48
451.39	2010.52
451.57	2010.52
451.76	2003.50
451.94	1823.28
452.13	1991.80
452.31	1921.58
452.49	1753.06
452.68	1750.72
452.86	1802.21
453.05	1872.43
453.23	1778.81
453.42	1839.66
453.60	2017.54
453.78	2062.01
453.97	2026.90
454.15	1998.82
454.34	1912.22
454.52	1982.43
454.70	1888.81
454.89	1893.49
455.07	1947.33
455.26	1921.58
455.44	1982.43
455.62	2115.84
455.81	2080.74
455.99	2069.03
456.17	2078.40
456.36	2083.08
456.54	2104.14
456.73	2085.42
456.91	2209.47
457.09	2141.59
457.28	2225.85
457.46	2129.89
457.64	2017.54
457.83	2045.63
458.01	1966.05
458.19	2073.71
458.38	2010.52
458.56	2176.70
458.74	2090.10
458.93	2066.69
459.11	2057.33
459.29	2080.74
459.48	2024.56
459.66	1989.46
459.84	2059.67
460.03	2160.31
460.21	2167.34
460.39	2209.47
460.57	2289.04
460.76	2181.38
460.94	2186.06
461.12	2057.33
461.31	2179.04
461.49	2176.70
461.67	2146.27
461.85	2225.85
462.04	2197.76
462.22	2153.29
462.40	2291.38
462.59	2122.87
462.77	2136.91
462.95	2169.68
463.13	2204.78
463.32	2045.63
463.50	2066.69
463.68	2038.61
463.86	2099.46
464.05	2085.42
464.23	2036.27
464.41	1980.09
464.59	2062.01
464.78	2167.34
464.96	2127.55
465.14	2143.93
465.32	2181.38
465.50	2237.55
465.69	2129.89
465.87	2172.02
466.05	2040.95
466.23	2010.52
466.41	1895.83
466.60	2019.88
466.78	2148.61
466.96	2045.63
467.14	2111.16
467.32	2022.22
467.51	2019.88
467.69	1963.71
467.87	2104.14
468.05	2057.33
468.23	2108.82
468.41	2108.82
468.60	2033.93
468.78	2155.63
468.96	2148.61
469.14	2090.10
469.32	2211.81
469.50	1900.52
469.69	2026.90
469.87	2031.58
470.05	2040.95
470.23	2008.18
470.41	2045.63
470.59	2097.12
470.77	1959.03
470.95	2160.31
471.14	2195.42
471.32	2066.69
471.50	2218.83
471.68	2263.30
471.86	2370.96
472.04	2204.78
472.22	2244.57
472.40	2169.68
472.58	2282.02
472.77	2115.84
472.95	2207.13
473.13	2284.36
473.31	2188.40
473.49	2249.25
473.67	2242.23
473.85	2232.87
474.03	2396.71
474.21	2300.75
474.39	2373.30
474.57	2331.17
474.75	2373.30
474.93	2225.85
475.12	2279.68
475.30	2289.04
475.48	2359.26
475.66	2275.00
475.84	2200.10
476.02	2277.34
476.20	2204.78
476.38	2209.47
476.56	2363.94
476.74	2417.77
476.92	2436.50
477.10	2452.88
477.28	2497.35
477.46	2532.46
477.64	2616.72
477.82	2375.64
478.00	2586.29
478.18	2537.14
478.36	2469.27
478.54	2502.03
478.72	2567.57
478.90	2576.93
479.08	2605.02
479.26	2757.15
479.44	2654.17
479.62	2679.91
479.80	2647.15
479.98	2647.15
480.16	2682.25
480.34	2768.85
480.52	2773.53
480.70	2771.19
480.88	2703.32
481.06	2736.09
481.24	2834.39
481.41	2846.09
481.59	2951.42
481.77	2829.71
481.95	2801.62
482.13	2792.26
482.31	2832.05
482.49	2862.48
482.67	2913.97
482.85	2761.83
483.03	2951.42
483.21	2946.73
483.39	2942.05
483.57	2902.26
483.74	2825.03
483.92	2878.86
484.10	2850.77
484.28	3152.70
484.46	3016.95
484.64	3073.12
484.82	3000.57
485.00	2857.79
485.18	2918.65
485.35	2710.34
485.53	2628.42
485.71	2319.47
485.89	2256.28
486.07	2389.69
486.25	2504.37
486.43	2682.25
486.61	2839.07
486.78	2939.71
486.96	2956.10
487.14	3110.57
487.32	3016.95
487.50	2984.18
487.68	3061.42
487.85	3258.03
488.03	3227.60
488.21	3229.94
488.39	3194.83
488.57	3005.25
488.75	3063.76
488.92	3152.70
489.10	3391.44
489.28	3529.53
489.46	3744.86
489.64	3655.92
489.81	3639.53
489.99	3634.85
490.17	3566.98
490.35	3651.24
490.53	3417.18
490.70	3581.02
490.88	3604.42
491.06	3576.34
491.24	3695.71
491.41	3562.30
491.59	3330.58
491.77	3145.68
491.95	3403.14
492.13	3503.78
492.30	3658.26
492.48	3676.98
492.66	3712.09
492.84	3726.13
493.01	3669.96
493.19	3679.32
493.37	3686.34
493.54	3524.85
493.72	3770.60
493.90	3941.46
494.08	3953.16
494.25	3962.53
494.43	3927.42
494.61	4051.47
494.79	3978.91
494.96	4126.36
495.14	3875.93
495.32	3728.47
495.49	3674.64
495.67	3810.39
495.85	3999.98
496.02	4086.58
496.20	4056.15
496.38	4140.41
496.55	3906.35
496.73	3969.55
496.91	3997.64
497.09	4175.52
497.26	4262.12
497.44	4215.30
497.62	4140.41
497.79	3836.14
497.97	3632.51
498.14	3887.63
498.32	3983.59
498.50	4039.76
498.67	4266.80
498.85	4058.49
499.03	4135.73
499.20	4163.81
499.38	4044.45
499.56	4248.07
499.73	4088.92
499.91	3946.14
500.08	4011.68
500.26	3864.22
500.44	3875.93
500.61	4030.40
500.79	4016.36
500.97	4070.19
501.14	3908.69
501.32	4004.66
501.49	3964.87
501.67	3754.22
501.84	3812.73
502.02	3983.59
502.20	4007.00
502.37	4042.11
502.55	4098.28
502.72	4124.02
502.90	4198.92
503.07	4329.99
503.25	4177.86
503.43	4051.47
503.60	3896.99
503.78	3852.52
503.95	3904.01
504.13	4107.64
504.30	4264.46
504.48	4241.05
504.65	4292.54
504.83	4145.09
505.01	4088.92
505.18	4297.22
505.36	4491.49
505.53	4372.12
505.71	4449.36
505.88	4440.00
506.06	4210.62
506.23	4278.50
506.41	4327.65
506.58	4308.93
506.76	4386.16
506.93	4231.69
507.11	4205.94
507.28	4100.62
507.46	4161.47
507.63	3939.12
507.81	4030.40
507.98	4014.02
508.16	4273.82
508.33	4250.41
508.50	4411.91
508.68	4447.02
508.85	4454.04
509.03	4341.69
509.20	4505.53
509.38	4297.22
509.55	4215.30
509.73	4250.41
509.90	4468.08
510.08	4376.80
510.25	4404.89
510.42	4227.01
510.60	4255.09
510.77	4285.52
510.95	4182.54
511.12	4484.47
511.30	4393.19
511.47	4430.63
511.64	4451.70
511.82	4402.55
511.99	4187.22
512.17	4194.24
512.34	4124.02
512.51	4224.67
512.69	4236.37
512.86	4161.47
513.04	4219.99
513.21	4245.73
513.38	4311.27
513.56	4037.42
513.73	4084.23
513.90	4093.60
514.08	4107.64
514.25	4163.81
514.43	4194.24
514.60	4196.58
514.77	4081.89
514.95	4098.28
515.12	4234.03
515.29	4297.22
515.47	4344.03
515.64	4383.82
515.81	4306.59
515.99	4124.02
516.16	3955.51
516.33	3705.07
516.51	3445.27
516.68	3365.69
516.85	3318.88
517.03	3492.08
517.20	3543.57
517.37	3990.61
517.54	4107.64
517.72	4086.58
517.89	3852.52
518.06	3473.36
518.24	3508.46
518.41	3653.58
518.58	3819.75
518.75	3934.44
518.93	4002.32
519.10	3992.95
519.27	4140.41
519.45	4280.84
519.62	4102.96
519.79	4252.75
519.96	4152.11
520.14	4208.28
520.31	3957.85
520.48	4023.38
520.65	4126.36
520.83	4236.37
521.00	4416.59
521.17	4334.67
521.34	4084.23
521.52	4308.93
521.69	4327.65
521.86	4425.95
522.03	4257.43
522.20	4187.22
522.38	3985.93
522.55	4091.26
522.72	3974.23
522.89	4201.26
523.07	4095.94
523.24	4217.65
523.41	4376.80
523.58	4461.06
523.75	4550.00
523.92	4425.95
524.10	4557.02
524.27	4421.27
524.44	4477.44
524.61	4337.01
524.78	4329.99
524.96	4344.03
525.13	4379.14
525.30	4566.39
525.47	4365.10
525.64	4498.51
525.81	4276.16
525.98	3983.59
526.16	3777.62
526.33	3726.13
526.50	3611.45
526.67	3517.83
526.84	3761.24
527.01	3836.14
527.18	4053.81
527.36	4259.78
527.53	4355.74
527.70	4259.78
527.87	4175.52
528.04	4180.20
528.21	4290.20
528.38	4346.37
528.55	4360.42
528.72	4435.32
528.89	4587.45
529.07	4379.14
529.24	4327.65
529.41	4329.99
529.58	4114.66
529.75	4217.65
529.92	4243.39
530.09	4278.50
530.26	4273.82
530.43	4421.27
530.60	4369.78
530.77	4334.67
530.94	4521.92
531.11	4440.00
531.28	4491.49
531.46	4215.30
531.63	4311.27
531.80	4456.38
531.97	4285.52
532.14	4154.45
532.31	4016.36
532.48	3747.20
532.65	3749.54
532.82	4039.76
532.99	4042.11
533.16	4063.17
533.33	4234.03
533.50	4177.86
533.67	4086.58
533.84	4124.02
534.01	4142.75
534.18	4201.26
534.35	4259.78
534.52	4154.45
534.69	4280.84
534.86	4276.16
535.03	4138.07
535.20	4484.47
535.37	4521.92
535.54	4278.50
535.71	4294.88
535.88	4322.97
536.05	4177.86
536.22	4107.64
536.38	4203.60
536.55	4095.94
536.72	3887.63
536.89	3946.14
537.06	4294.88
537.23	4152.11
537.40	4234.03
537.57	4273.82
537.74	4301.90
537.91	4224.67
538.08	4234.03
538.25	4203.60
538.42	4140.41
538.59	4063.17
538.75	4030.40
538.92	3990.61
539.09	4112.32
539.26	3864.22
539.43	4107.64
539.60	4086.58
539.77	4042.11
539.94	3995.29
540.11	3964.87
540.28	3770.60
540.44	3843.16
540.61	3812.73
540.78	3941.46
540.95	4002.32
541.12	3850.18
541.29	3971.89
541.46	4126.36
541.62	4227.01
541.79	4014.02
541.96	4058.49
542.13	4053.81
542.30	4112.32
542.47	3957.85
542.63	4109.98
542.80	3847.84
542.97	3899.33
543.14	3831.46
543.31	3936.78
543.48	3981.25
543.64	4184.88
543.81	4329.99
543.98	4283.18
544.15	4032.74
544.32	4007.00
544.48	4025.72
544.65	3871.25
544.82	4086.58
544.99	4042.11
545.16	3974.23
545.32	4049.13
545.49	3988.27
545.66	4250.41
545.83	4180.20
546.00	4021.04
546.16	3985.93
546.33	3983.59
546.50	3964.87
546.67	4170.83
546.83	3997.64
547.00	4018.70
547.17	3981.25
547.34	3669.96
547.50	3854.86
547.67	3908.69
547.84	3932.10
548.00	4037.42
548.17	3969.55
548.34	3955.51
548.51	4004.66
548.67	4032.74
548.84	3948.48
549.01	3974.23
549.18	3969.55
549.34	3953.16
549.51	4067.85
549.68	3922.74
549.84	3838.48
550.01	3911.04
550.18	3878.27
550.34	3882.95
550.51	3925.08
550.68	3969.55
550.84	3817.41
551.01	3763.58
551.18	3662.94
551.34	3728.47
551.51	3918.06
551.68	4018.70
551.84	3950.82
552.01	3838.48
552.18	3887.63
552.34	3749.54
552.51	3581.02
552.68	3868.91
552.84	3735.50
553.01	3805.71
553.18	3775.28
553.34	3913.38
553.51	3868.91
553.67	3882.95
553.84	3950.82
554.01	3700.39
554.17	3875.93
554.34	3779.97
554.51	3953.16
554.67	3887.63
554.84	3777.62
555.00	3854.86
555.17	3758.90
555.33	3770.60
555.50	3889.97
555.67	3836.14
555.83	3824.44
556.00	3609.11
556.16	3723.79
556.33	3681.66
556.50	3639.53
556.66	3691.02
556.83	3524.85
556.99	3681.66
557.16	3737.84
557.32	3679.32
557.49	3899.33
557.65	3712.09
557.82	3826.78
557.98	3794.01
558.15	3562.30
558.32	3658.26
558.48	3485.06
558.65	3529.53
558.81	3550.59
558.98	3440.59
559.14	3590.38
559.31	3625.49
559.47	3538.89
559.64	3494.42
559.80	3492.08
559.97	3538.89
560.13	3583.36
560.30	3822.09
560.46	3801.03
560.63	3751.88
560.79	3777.62
560.96	3721.45
561.12	3620.81
561.29	3328.24
561.45	3454.63
561.61	3609.11
561.78	3550.59
561.94	3592.72
562.11	3571.66
562.27	3557.61
562.44	3585.70
562.60	3620.81
562.77	3566.98
562.93	3407.82
563.10	3632.51
563.26	3520.17
563.42	3405.48
563.59	3503.78
563.75	3611.45
563.92	3616.13
564.08	3578.68
564.24	3520.17
564.41	3447.61
564.57	3527.19
564.74	3496.76
564.90	3550.59
565.07	3435.91
565.23	3445.27
565.39	3407.82
565.56	3412.50
565.72	3405.48
565.88	3377.39
566.05	3349.31
566.21	3478.04
566.38	3562.30
566.54	3515.48
566.70	3522.51
566.87	3426.54
567.03	3557.61
567.19	3667.62
567.36	3452.29
567.52	3403.14
567.68	3513.14
567.85	3368.03
568.01	3365.69
568.17	3323.56
568.34	3229.94
568.50	3276.75
568.66	3311.86
568.83	3293.13
568.99	3251.00
569.15	3283.77
569.32	3192.49
569.48	3405.48
569.64	3279.09
569.81	3239.30
569.97	3253.34
570.13	3265.05
570.30	3192.49
570.46	3201.85
570.62	3028.65
570.78	3105.89
570.95	3091.85
571.11	3302.50
571.27	3232.28
571.43	3262.71
571.60	3143.34
571.76	3358.67
571.92	3353.99
572.09	3279.09
572.25	3405.48
572.41	3393.78
572.57	3339.94
572.74	3300.16
572.90	3267.39
573.06	3344.63
573.22	3286.11
573.38	3321.22
573.55	3337.60
573.71	3211.22
573.87	3323.56
574.03	3248.66
574.20	3218.24
574.36	3208.87
574.52	3258.03
574.68	3112.91
574.84	3094.19
575.01	3075.46
575.17	3084.83
575.33	3187.81
575.49	3119.93
575.65	3082.49
575.82	3070.78
575.98	3080.14
576.14	3045.04
576.30	3213.56
576.46	3183.13
576.62	3045.04
576.79	3187.81
576.95	3126.96
577.11	3192.49
577.27	3103.55
577.43	3063.76
577.59	3141.00
577.75	2967.80
577.92	3070.78
578.08	2857.79
578.24	2855.45
578.40	2925.67
578.56	3019.29
578.72	2930.35
578.88	2960.78
579.04	3145.68
579.21	2998.23
579.37	3070.78
579.53	2988.86
579.69	2988.86
579.85	3068.44
580.01	3075.46
580.17	3012.27
580.33	2988.86
580.49	2981.84
580.65	3052.06
580.82	3026.31
580.98	3073.12
581.14	3094.19
581.30	3084.83
581.46	3070.78
581.62	2988.86
581.78	2986.52
581.94	3124.62
582.10	3014.61
582.26	2960.78
582.42	2972.48
582.58	3056.74
582.74	3040.36
582.90	3063.76
583.06	3124.62
583.22	3143.34
583.38	3021.63
583.54	3014.61
583.70	2892.90
583.86	3026.31
584.02	3063.76
584.18	3075.46
584.34	2970.14
584.50	3014.61
584.66	3042.70
584.82	2883.54
584.98	2909.29
585.14	2958.44
585.30	2785.24
585.46	2684.59
585.62	2822.69
585.78	2820.35
585.94	2686.94
586.10	2836.73
586.26	2923.33
586.42	2888.22
586.58	3030.99
586.74	3059.08
586.90	3047.38
587.06	2836.73
587.22	2890.56
587.38	2899.92
587.54	2899.92
587.70	2803.96
587.86	2857.79
588.02	2822.69
588.18	2766.51
588.34	2637.78
588.49	2595.65
588.65	2275.00
588.81	2319.47
588.97	2392.03
589.13	2377.98
589.29	2368.62
589.45	2403.73
589.61	2619.06
589.77	2703.32
589.93	2684.59
590.08	2684.59
590.24	2661.19
590.40	2736.09
590.56	2605.02
590.72	2656.51
590.88	2677.57
591.04	2647.15
591.20	2658.85
591.35	2731.41
591.51	2630.76
591.67	2553.52
591.83	2609.70
591.99	2665.87
592.15	2766.51
592.31	2759.49
592.46	2605.02
592.62	2672.89
592.78	2565.23
592.94	2661.19
593.10	2633.10
593.26	2700.98
593.41	2642.46
593.57	2635.44
593.73	2597.99
593.89	2649.49
594.05	2572.25
594.20	2490.33
594.36	2513.74
594.52	2431.82
594.68	2464.58
594.84	2417.77
594.99	2539.48
595.15	2597.99
595.31	2677.57
595.47	2619.06
595.62	2630.76
595.78	2679.91
595.94	2621.40
596.10	2787.58
596.25	2642.46
596.41	2569.91
596.57	2511.39
596.73	2605.02
596.88	2616.72
597.04	2602.68
597.20	2476.29
597.36	2572.25
597.51	2567.57
597.67	2551.18
597.83	2527.78
597.99	2417.77
598.14	2530.12
598.30	2516.08
598.46	2590.97
598.61	2506.71
598.77	2487.99
598.93	2560.55
599.09	2574.59
599.24	2609.70
599.40	2593.31
599.56	2656.51
599.71	2579.27
599.87	2581.61
600.03	2490.33
600.18	2560.55
600.34	2410.75
600.50	2464.58
600.65	2483.31
600.81	2473.95
600.97	2436.50
601.12	2555.86
601.28	2385.01
601.44	2457.56
601.59	2471.61
601.75	2483.31
601.91	2415.43
602.06	2485.65
602.22	2382.67
602.37	2441.18
602.53	2382.67
602.69	2448.20
602.84	2413.09
603.00	2590.97
603.16	2520.76
603.31	2527.78
603.47	2539.48
603.62	2546.50
603.78	2546.50
603.94	2457.56
604.09	2415.43
604.25	2476.29
604.40	2345.22
604.56	2342.88
604.71	2532.46
604.87	2553.52
605.03	2443.52
605.18	2382.67
605.34	2448.20
605.49	2373.30
605.65	2410.75
605.80	2375.64
605.96	2490.33
606.12	2328.83
606.27	2335.85
606.43	2455.22
606.58	2354.58
606.74	2399.05
606.89	2504.37
607.05	2410.75
607.20	2459.90
607.36	2363.94
607.51	2275.00
607.67	2331.17
607.82	2246.91
607.98	2387.35
608.13	2326.49
608.29	2438.84
608.44	2267.98
608.60	2251.60
608.75	2310.11
608.91	2314.79
609.06	2293.72
609.22	2239.89
609.37	2338.20
609.53	2228.19
609.68	2331.17
609.84	2415.43
609.99	2118.18
610.15	2239.89
610.30	2207.13
610.46	2251.60
610.61	2242.23
610.76	2289.04
610.92	2366.28
611.07	2326.49
611.23	2324.15
611.38	2335.85
611.54	2277.34
611.69	2148.61
611.84	2115.84
612.00	2221.17
612.15	2211.81
612.31	2162.66
612.46	2235.21
612.62	2284.36
612.77	2181.38
612.92	2150.95
613.08	2202.44
613.23	2080.74
613.39	2195.42
613.54	2197.76
613.69	2134.57
613.85	2148.61
614.00	2207.13
614.15	2104.14
614.31	2108.82
614.46	2167.34
614.62	2069.03
614.77	2165.00
614.92	2174.36
615.08	2108.82
615.23	2113.50
615.38	2097.12
615.54	2106.48
615.69	1909.88
615.84	2038.61
616.00	2050.31
616.15	2069.03
616.30	2031.58
616.46	2029.24
616.61	2045.63
616.76	1947.33
616.92	1909.88
617.07	2111.16
617.22	2104.14
617.37	1975.41
617.53	2064.35
617.68	1973.07
617.83	2031.58
617.99	2113.50
618.14	1959.03
618.29	1930.94
618.45	1987.11
618.60	2024.56
618.75	1989.46
618.90	1961.37
619.06	2083.08
619.21	2139.25
619.36	2085.42
619.51	1989.46
619.67	2078.40
619.82	2052.65
619.97	2080.74
620.12	2031.58
620.28	2099.46
620.43	2005.84
620.58	2115.84
620.73	1970.73
620.89	1947.33
621.04	1947.33
621.19	2019.88
621.34	2005.84
621.49	1832.64
621.65	1790.51
621.80	1987.11
621.95	1839.66
622.10	1912.22
622.25	2010.52
622.41	1928.60
622.56	1912.22
622.71	1891.15
622.86	1797.53
623.01	1921.58
623.16	1905.20
623.32	1804.55
623.47	1900.52
623.62	1858.39
623.77	1888.81
623.92	1870.09
624.07	1865.41
624.23	1778.81
624.38	1823.28
624.53	1860.73
624.68	1870.09
624.83	1923.92
624.98	1764.76
625.13	1813.92
625.29	1844.34
625.44	1748.38
625.59	1755.40
625.74	1781.15
625.89	1884.13
626.04	1799.87
626.19	1893.49
626.34	1839.66
626.49	1767.10
626.65	1839.66
626.80	1813.92
626.95	1846.68
627.10	1743.70
627.25	1710.93
627.40	1771.79
627.55	1638.38
627.70	1582.20
627.85	1659.44
628.00	1626.67
628.15	1650.08
628.30	1701.57
628.45	1724.97
628.60	1755.40
628.76	1762.42
628.91	1720.29
629.06	1701.57
629.21	1732.00
629.36	1724.97
629.51	1666.46
629.66	1570.50
629.81	1682.85
629.96	1584.54
630.11	1673.48
630.26	1526.03
630.41	1692.21
630.56	1621.99
630.71	1710.93
630.86	1607.95
631.01	1612.63
631.16	1612.63
631.31	1554.12
631.46	1612.63
631.61	1629.01
631.76	1526.03
631.91	1685.19
632.06	1708.59
632.21	1598.59
632.36	1624.33
632.51	1680.50
632.66	1739.02
632.81	1703.91
632.96	1629.01
633.10	1607.95
633.25	1582.20
633.40	1643.06
633.55	1565.82
633.70	1544.75
633.85	1568.16
634.00	1671.14
634.15	1558.80
634.30	1603.27
634.45	1542.41
634.60	1659.44
634.75	1554.12
634.90	1556.46
635.05	1685.19
635.19	1629.01
635.34	1694.55
635.49	1617.31
635.64	1586.88
635.79	1551.78
635.94	1544.75
636.09	1619.65
636.24	1577.52
636.39	1511.99
636.53	1612.63
636.68	1633.69
636.83	1598.59
636.98	1561.14
637.13	1605.61
637.28	1626.67
637.43	1600.93
637.57	1544.75
637.72	1572.84
637.87	1607.95
638.02	1638.38
638.17	1437.09
638.32	1535.39
638.46	1619.65
638.61	1652.42
638.76	1568.16
638.91	1572.84
639.06	1516.67
639.20	1582.20
639.35	1504.96
639.50	1577.52
639.65	1547.09
639.80	1511.99
639.94	1547.09
640.09	1568.16
640.24	1462.83
640.39	1465.18
640.54	1380.92
640.68	1380.92
640.83	1387.94
640.98	1446.45
641.13	1521.35
641.27	1373.89
641.42	1521.35
641.57	1448.79
641.72	1455.81
641.86	1366.87
642.01	1556.46
642.16	1579.86
642.31	1437.09
642.45	1481.56
642.60	1437.09
642.75	1423.05
642.90	1350.49
643.04	1416.02
643.19	1392.62
643.34	1467.52
643.48	1409.00
643.63	1413.68
643.78	1444.11
643.93	1434.75
644.07	1523.69
644.22	1462.83
644.37	1460.49
644.51	1444.11
644.66	1359.85
644.81	1357.51
644.95	1418.36
645.10	1341.13
645.25	1399.64
645.39	1404.32
645.54	1327.08
645.69	1324.74
645.83	1336.45
645.98	1341.13
646.13	1291.98
646.27	1301.34
646.42	1266.23
646.57	1383.26
646.71	1362.19
646.86	1324.74
647.00	1315.38
647.15	1200.69
647.30	1294.32
647.44	1301.34
647.59	1261.55
647.74	1249.85
647.88	1401.98
648.03	1320.06
648.17	1221.76
648.32	1357.51
648.47	1270.91
648.61	1273.25
648.76	1317.72
648.90	1266.23
649.05	1233.46
649.20	1116.44
649.34	1137.50
649.49	1111.75
649.63	1090.69
649.78	1214.74
649.92	1277.93
650.07	1343.47
650.21	1310.70
650.36	1371.55
650.51	1184.31
650.65	1282.61
650.80	1341.13
650.94	1254.53
651.09	1315.38
651.23	1158.57
651.38	1320.06
651.52	1174.95
651.67	1193.67
651.81	1306.02
651.96	1306.02
652.10	1207.72
652.25	1308.36
652.39	1196.01
652.54	1235.80
652.68	1224.10
652.83	1200.69
652.97	1146.86
653.12	1163.25
653.26	1308.36
653.41	1207.72
653.55	1158.57
653.70	1261.55
653.84	1160.91
653.99	1163.25
654.13	1235.80
654.27	1188.99
654.42	1186.65
654.56	1069.62
654.71	1156.22
654.85	1121.12
655.00	1149.20
655.14	1083.67
655.29	1109.41
655.43	1076.65
655.57	945.58
655.72	1027.50
655.86	924.51
656.01	753.65
656.15	798.12
656.30	929.19
656.44	908.13
656.58	983.02
656.73	985.37
656.87	992.39
657.01	1111.75
657.16	1109.41
657.30	1151.54
657.45	1111.75
657.59	1128.14
657.73	1172.61
657.88	1102.39
658.02	1104.73
658.16	1158.57
658.31	1121.12
658.45	1137.50
658.60	1121.12
658.74	1207.72
658.88	1118.78
659.03	1083.67
659.17	1095.37
659.31	1104.73
659.46	1086.01
659.60	1095.37
659.74	1114.10
659.89	1165.59
660.03	1160.91
660.17	1163.25
660.32	1139.84
660.46	1158.57
660.60	1118.78
660.74	1057.92
660.89	1008.77
661.03	1022.81
661.17	971.32
661.32	1107.07
661.46	1163.25
661.60	1086.01
661.74	1114.10
661.89	1078.99
662.03	992.39
662.17	1083.67
662.31	992.39
662.46	1067.28
662.60	1025.15
662.74	1022.81
662.88	954.94
663.03	1107.07
663.17	1090.69
663.31	1032.18
663.45	1109.41
663.60	1006.43
663.74	1001.75
663.88	992.39
664.02	978.34
664.17	1076.65
664.31	1057.92
664.45	1097.71
664.59	1011.11
664.73	994.73
664.88	1053.24
665.02	1057.92
665.16	1027.50
665.30	1095.37
665.44	1050.90
665.59	1053.24
665.73	985.37
665.87	983.02
666.01	950.26
666.15	943.24
666.29	985.37
666.44	1046.22
666.58	973.66
666.72	976.00
666.86	1132.82
667.00	912.81
667.14	945.58
667.28	1032.18
667.43	1053.24
667.57	950.26
667.71	929.19
667.85	1013.45
667.99	887.06
668.13	987.71
668.27	891.74
668.41	940.90
668.56	936.21
668.70	922.17
668.84	1018.13
668.98	933.87
669.12	896.43
669.26	957.28
669.40	933.87
669.54	896.43
669.68	919.83
669.82	887.06
669.96	875.36
670.10	922.17
670.25	978.34
670.39	940.90
670.53	873.02
670.67	849.61
670.81	837.91
670.95	947.92
671.09	910.47
671.23	840.25
671.37	842.59
671.51	891.74
671.65	823.87
671.79	875.36
671.93	835.57
672.07	828.55
672.21	844.93
672.35	823.87
672.49	863.66
672.63	840.25
672.77	844.93
672.91	882.38
673.05	875.36
673.19	894.08
673.33	842.59
673.47	842.59
673.61	837.91
673.75	798.12
673.89	781.74
674.03	856.64
674.17	851.96
674.31	840.25
674.45	805.14
674.59	828.55
674.73	793.44
674.87	889.40
675.01	800.46
675.15	786.42
675.29	821.53
675.43	767.70
675.56	858.98
675.70	730.25
675.84	798.12
675.98	767.70
676.12	805.14
676.26	772.38
676.40	758.33
676.54	746.63
676.68	772.38
676.82	704.50
676.96	734.93
677.10	678.76
677.23	823.87
677.37	716.20
677.51	709.18
677.65	772.38
677.79	704.50
677.93	774.72
678.07	718.54
678.21	716.20
678.34	669.39
678.48	662.37
678.62	732.59
678.76	744.29
678.90	779.40
679.04	723.23
679.18	709.18
679.31	678.76
679.45	744.29
679.59	748.97
679.73	702.16
679.87	695.14
680.00	678.76
680.14	653.01
680.28	613.22
680.42	629.60
680.56	667.05
680.70	592.16
680.83	582.79
680.97	606.20
681.11	608.54
681.25	704.50
681.39	559.39
681.52	741.95
681.66	638.97
681.80	667.05
681.94	718.54
682.07	624.92
682.21	634.29
682.35	566.41
682.49	610.88
682.62	655.35
682.76	627.26
682.90	610.88
683.04	528.96
683.17	678.76
683.31	671.73
683.45	631.94
683.59	620.24
683.72	592.16
683.86	566.41
684.00	543.00
684.13	482.15
684.27	507.90
684.41	601.52
684.55	540.66
684.68	627.26
684.82	545.34
684.96	573.43
685.09	568.75
685.23	519.60
685.37	491.51
685.50	521.94
685.64	575.77
685.78	533.64
685.91	500.87
686.05	491.51
686.19	477.47
686.32	479.81
686.46	362.78
686.60	227.03
686.73	222.35
686.87	308.95
687.01	255.12
687.14	271.50
687.28	243.42
687.42	365.12
687.55	283.20
687.69	334.70
687.82	313.63
687.96	397.89
688.10	332.36
688.23	402.57
688.37	348.74
688.50	360.44
688.64	383.85
688.78	404.91
688.91	290.23
689.05	304.27
689.18	332.36
689.32	332.36
689.46	346.40
689.59	315.97
689.73	353.42
689.86	353.42
690.00	353.42
690.13	278.52
690.27	315.97
690.41	325.33
690.54	360.44
690.68	393.21
690.81	339.38
690.95	292.57
691.08	290.23
691.22	276.18
691.35	290.23
691.49	372.15
691.62	327.68
691.76	344.06
691.89	367.46
692.03	353.42
692.16	400.23
692.30	360.44
692.43	334.70
692.57	287.89
692.70	278.52
692.84	334.70
692.97	355.76
693.11	255.12
693.24	306.61
693.38	351.08
693.51	259.80
693.65	330.02
693.78	269.16
693.92	283.20
694.05	294.91
694.19	222.35
694.32	229.37
694.45	339.38
694.59	227.03
694.72	227.03
694.86	283.20
694.99	287.89
695.13	327.68
695.26	306.61
695.39	278.52
695.53	278.52
695.66	306.61
695.80	217.67
695.93	231.71
696.07	315.97
696.20	241.08
696.33	332.36
696.47	280.86
696.60	299.59
696.73	259.80
696.87	341.72
697.00	315.97
697.14	266.82
697.27	283.20
697.40	318.31
697.54	315.97
697.67	283.20
697.80	212.99
697.94	201.29
698.07	248.10
698.21	332.36
698.34	287.89
698.47	201.29
698.61	231.71
698.74	184.90
698.87	191.92
699.01	182.56
699.14	224.69
699.27	238.73
699.40	189.58
699.54	220.01
699.67	236.39
699.80	154.48
699.94	220.01
700.07	187.24
700.20	191.92
700.34	280.86
700.47	196.60
700.60	187.24
700.73	180.22
700.87	135.75
701.00	182.56
701.13	175.54
701.26	100.64
701.40	194.26
701.53	208.31
701.66	198.95
701.79	191.92
701.93	229.37
702.06	135.75
702.19	107.66
702.32	135.75
702.46	217.67
702.59	163.84
702.72	220.01
702.85	152.13
702.99	180.22
703.12	203.63
703.25	187.24
703.38	126.39
703.51	117.03
703.65	119.37
703.78	205.97
703.91	208.31
704.04	124.05
704.17	124.05
704.31	121.71
704.44	177.88
704.57	147.45
704.70	203.63
704.83	91.28
704.96	91.28
705.10	95.96
705.23	135.75
>>>>>End Processed Spectral Data<<<<<
