SpectraSuite Data File
++++++++++++++++++++++++++++++++++++
Date: Mon Oct 07 14:54:59 GMT-05:00 2013
User: price-jones
Dark Spectrum Present: No
Reference Spectrum Present: No
Number of Sampled Component Spectra: 1
Spectrometers: USB2+H05261
Integration Time (usec): 10000 (USB2+H05261)
Spectra Averaged: 1 (USB2+H05261)
Boxcar Smoothing: 0 (USB2+H05261)
Correct for Electrical Dark: No (USB2+H05261)
Strobe/Lamp Enabled: No (USB2+H05261)
Correct for Detector Non-linearity: No (USB2+H05261)
Correct for Stray Light: No (USB2+H05261)
Number of Pixels in Processed Spectrum: 2048
>>>>>Begin Processed Spectral Data<<<<<
365.73	0.00
365.92	0.00
366.12	0.00
366.32	0.00
366.52	0.00
366.72	0.00
366.91	0.00
367.11	0.00
367.31	0.00
367.51	0.00
367.70	0.00
367.90	0.00
368.10	0.00
368.30	0.00
368.49	0.00
368.69	0.00
368.89	0.00
369.09	0.00
369.28	0.00
369.48	0.00
369.68	0.00
369.87	0.00
370.07	0.00
370.27	0.00
370.47	93.62
370.66	1423.05
370.86	1680.50
371.06	1762.42
371.25	1746.04
371.45	1535.39
371.65	1387.94
371.84	1329.42
372.04	1549.43
372.24	1596.25
372.44	1650.08
372.63	1678.16
372.83	1432.41
373.03	1266.23
373.22	1188.99
373.42	1371.55
373.62	1540.07
373.81	1645.40
374.01	1561.14
374.21	1397.30
374.40	1448.79
374.60	1364.53
374.79	1741.36
374.99	1909.88
375.19	2003.50
375.38	1879.45
375.58	1940.30
375.78	1877.11
375.97	1870.09
376.17	1977.75
376.37	1966.05
376.56	2125.21
376.76	2207.13
376.95	2352.24
377.15	2394.37
377.35	2581.61
377.54	2773.53
377.74	2883.54
377.93	2670.55
378.13	2590.97
378.33	2480.97
378.52	2335.85
378.72	2347.56
378.91	2195.42
379.11	2136.91
379.31	2008.18
379.50	2132.23
379.70	2303.09
379.89	2480.97
380.09	2733.75
380.28	2724.38
380.48	2654.17
380.68	2644.81
380.87	2471.61
381.07	2279.68
381.26	2197.76
381.46	1973.07
381.65	1980.09
381.85	1884.13
382.04	1816.26
382.24	1727.32
382.43	1519.01
382.63	1617.31
382.83	1533.05
383.02	1488.58
383.22	1521.35
383.41	1586.88
383.61	1743.70
383.80	1937.96
384.00	2356.92
384.19	2621.40
384.39	2752.47
384.58	2605.02
384.78	2562.89
384.97	2649.49
385.17	2424.80
385.36	2310.11
385.56	2282.02
385.75	2497.35
385.95	2778.22
386.14	2796.94
386.34	2818.00
386.53	2630.76
386.72	2504.37
386.92	2487.99
387.11	2773.53
387.31	2836.73
387.50	2752.47
387.70	2628.42
387.89	2539.48
388.09	2605.02
388.28	2686.94
388.48	2883.54
388.67	3000.57
388.86	3377.39
389.06	3599.74
389.25	3716.77
389.45	3543.57
389.64	3674.64
389.84	3566.98
390.03	3599.74
390.22	3531.87
390.42	3772.94
390.61	3960.19
390.81	4107.64
391.00	4262.12
391.19	4400.21
391.39	4009.34
391.58	3695.71
391.78	3562.30
391.97	3393.78
392.16	3194.83
392.36	2799.28
392.55	2221.17
392.75	1680.50
392.94	1561.14
393.13	1605.61
393.33	1881.79
393.52	2424.80
393.71	3091.85
393.91	3323.56
394.10	3595.06
394.29	4028.06
394.49	4163.81
394.68	4538.30
394.88	4610.86
395.07	4683.41
395.26	4519.57
395.46	4512.55
395.65	4023.38
395.84	3471.01
396.04	2930.35
396.23	2359.26
396.42	1940.30
396.62	2092.44
396.81	2588.63
397.00	3162.06
397.19	4074.87
397.39	4681.07
397.58	5029.81
397.77	5535.37
397.97	5692.18
398.16	5797.51
398.35	6132.20
398.55	6090.07
398.74	6420.09
398.93	6361.58
399.12	6324.13
399.32	6333.49
399.51	6485.62
399.70	6707.98
399.90	6506.69
400.09	6738.40
400.28	6663.51
400.47	6658.82
400.67	7045.01
400.86	7328.22
401.05	7194.81
401.24	7339.92
401.44	7164.38
401.63	7487.37
401.82	7393.75
402.01	7396.09
402.21	7421.84
402.40	7283.75
402.59	7073.10
402.78	6827.34
402.97	6647.12
403.17	7131.61
403.36	7585.68
403.55	7901.65
403.74	7906.33
403.93	7225.23
404.13	6817.98
404.32	6895.22
404.51	7475.67
404.70	7857.18
404.89	7604.40
405.09	7229.91
405.28	7304.81
405.47	7370.35
405.66	7321.20
405.85	7012.24
406.05	7052.03
406.24	7009.90
406.43	7377.37
406.62	7648.87
406.81	7653.55
407.00	7391.41
407.20	7206.51
407.39	7321.20
407.58	7889.95
407.77	7960.16
407.96	8201.24
408.15	8449.33
408.34	8336.99
408.54	8709.13
408.73	8547.64
408.92	8526.57
409.11	8152.09
409.30	8044.42
409.49	7335.24
409.68	6881.18
409.87	7016.93
410.07	7459.29
410.26	7950.80
410.45	8280.82
410.64	8388.48
410.83	8926.80
411.02	8950.21
411.21	9254.48
411.40	9121.07
411.59	9401.93
411.78	9418.32
411.98	9008.72
412.17	9315.33
412.36	9039.15
412.55	9305.97
412.74	8872.97
412.93	8917.44
413.12	8999.36
413.31	9769.40
413.50	9776.42
413.69	9769.40
413.88	9249.80
414.07	9479.17
414.26	9455.76
414.45	9654.71
414.64	9687.48
414.83	9680.46
415.02	9556.41
415.22	9652.37
415.41	9900.47
415.60	10305.38
415.79	10469.22
415.98	10810.93
416.17	10658.80
416.36	10424.75
416.55	10352.19
416.74	9947.28
416.93	9561.09
417.12	9404.27
417.31	9788.12
417.50	10143.88
417.69	10455.17
417.88	10455.17
418.07	10370.91
418.26	10202.40
418.45	10244.52
418.64	10684.55
418.83	11162.01
419.02	10541.77
419.21	10396.66
419.39	9874.72
419.58	9596.20
419.77	9745.99
419.96	10499.64
420.15	10855.40
420.34	11094.14
420.53	11227.55
420.72	11604.38
420.91	11452.24
421.10	11253.30
421.29	11047.33
421.48	10993.50
421.67	11304.79
421.86	10729.02
422.05	9919.19
422.24	9057.87
422.43	9832.59
422.61	10675.18
422.80	11272.02
422.99	10775.83
423.18	10331.12
423.37	10317.08
423.56	10501.98
423.75	10675.18
423.94	11080.10
424.13	10216.44
424.32	10223.46
424.50	10326.44
424.69	10443.47
424.88	10354.53
425.07	10260.91
425.26	10209.42
425.45	9933.23
425.64	9806.84
425.83	10113.45
426.01	10562.84
426.20	10768.80
426.39	10834.34
426.58	9640.67
426.77	9125.75
426.96	8917.44
427.15	9469.81
427.33	10256.23
427.52	10450.49
427.71	10441.13
427.90	10485.60
428.09	10143.88
428.28	9893.44
428.46	9638.33
428.65	9790.46
428.84	9951.96
429.03	9851.31
429.22	9385.55
429.40	8683.39
429.59	8039.74
429.78	7293.11
429.97	7199.49
430.16	7426.52
430.34	7405.46
430.53	7382.05
430.72	7882.92
430.91	8758.28
431.10	10452.83
431.28	12035.03
431.47	12643.57
431.66	12477.40
431.85	10981.79
432.03	10434.11
432.22	10345.17
432.41	10934.98
432.60	11609.06
432.79	12224.62
432.97	12397.82
433.16	12053.76
433.35	10651.78
433.54	9586.83
433.72	9535.34
433.91	9998.77
434.10	11094.14
434.28	11597.35
434.47	12161.42
434.66	11765.87
434.85	11712.04
435.03	11728.42
435.22	11939.07
435.41	12517.18
435.59	12664.64
435.78	12697.41
435.97	13233.39
436.16	13177.22
436.34	13081.25
436.53	12720.81
436.72	12833.16
436.90	12173.13
437.09	11981.20
437.28	12018.65
437.46	12608.47
437.65	12133.34
437.84	10930.30
438.02	10520.71
438.21	10705.61
438.40	10888.17
438.58	12046.74
438.77	12320.58
438.96	12442.29
439.14	13081.25
439.33	12961.89
439.52	13153.81
439.70	13078.91
439.89	12472.71
440.08	12095.89
440.26	12568.68
440.45	13109.34
440.63	13818.52
440.82	14223.44
441.01	14553.45
441.19	14324.08
441.38	14843.68
441.57	14855.38
441.75	14934.96
441.94	15201.78
442.12	15304.76
442.31	15236.89
442.50	15590.31
442.68	14764.10
442.87	14717.29
443.05	14897.51
443.24	14939.64
443.43	15309.44
443.61	15726.06
443.80	15613.71
443.98	14803.89
444.17	15061.35
444.35	15704.99
444.54	15733.08
444.73	15716.70
444.91	14944.32
445.10	14534.73
445.28	13647.66
445.47	13694.47
445.65	13797.46
445.84	14438.76
446.02	15021.56
446.21	15070.71
446.39	14995.81
446.58	15187.74
446.77	15913.30
446.95	15433.49
447.14	16081.82
447.32	16126.29
447.51	15625.42
447.69	15098.80
447.88	15150.29
448.06	15906.28
448.25	16161.40
448.43	15889.90
448.62	15716.70
448.80	15400.72
448.99	15508.39
449.17	15602.01
449.36	16035.01
449.54	16098.20
449.73	16739.51
449.91	16627.17
450.10	17186.55
450.28	17591.47
450.46	17444.01
450.65	17736.58
450.83	16973.56
451.02	17048.46
451.20	16814.41
451.39	16968.88
451.57	16664.61
451.76	16683.34
451.94	16308.85
452.13	16189.49
452.31	15117.52
452.49	14492.60
452.68	14949.00
452.86	14663.46
453.05	15147.95
453.23	15925.00
453.42	16362.69
453.60	16365.03
453.78	16528.86
453.97	16145.02
454.15	16341.62
454.34	15590.31
454.52	16091.18
454.70	15744.78
454.89	15978.84
455.07	15946.07
455.26	16243.32
455.44	16957.18
455.62	17029.74
455.81	17008.67
455.99	17195.92
456.17	16872.92
456.36	17242.73
456.54	18101.70
456.73	17741.26
456.91	17649.98
457.09	18288.95
457.28	18298.31
457.46	17591.47
457.64	17041.44
457.83	16744.19
458.01	16573.33
458.19	16968.88
458.38	16994.63
458.56	17635.94
458.74	17474.44
458.93	17172.51
459.11	16945.48
459.29	16753.55
459.48	16819.09
459.66	16650.57
459.84	17177.19
460.03	17558.70
460.21	17556.36
460.39	18630.66
460.57	17771.69
460.76	17965.95
460.94	18113.41
461.12	17605.51
461.31	17617.21
461.49	17855.95
461.67	18104.04
461.85	18256.18
462.04	18640.03
462.22	18647.05
462.40	18808.54
462.59	18363.84
462.77	18431.72
462.95	18197.67
463.13	17914.46
463.32	17762.33
463.50	17998.72
463.68	18017.44
463.86	17909.78
464.05	17610.19
464.23	17280.18
464.41	17415.93
464.59	16971.22
464.78	18176.60
464.96	17792.75
465.14	17584.44
465.32	17944.89
465.50	18553.43
465.69	18789.82
465.87	18375.55
466.05	17376.14
466.23	16606.10
466.41	16578.01
466.60	17537.63
466.78	17081.23
466.96	17729.56
467.14	17640.62
467.32	18024.47
467.51	17678.07
467.69	17020.38
467.87	17399.54
468.05	17937.87
468.23	17713.17
468.41	17827.86
468.60	17727.22
468.78	17963.61
468.96	17692.11
469.14	18111.07
469.32	18476.19
469.50	17287.20
469.69	17109.32
469.87	16978.25
470.05	17474.44
470.23	16987.61
470.41	17488.48
470.59	17172.51
470.77	17488.48
470.95	18132.13
471.14	18101.70
471.32	18195.32
471.50	18977.06
471.68	19161.97
471.86	19311.76
472.04	19606.67
472.22	19192.39
472.40	18319.37
472.58	18412.99
472.77	18274.90
472.95	18459.81
473.13	19047.28
473.31	18731.31
473.49	18625.98
473.67	19002.81
473.85	19187.71
474.03	19655.82
474.21	20123.93
474.39	20095.84
474.57	20271.38
474.75	20404.79
474.93	19747.10
475.12	19506.02
475.30	19506.02
475.48	19281.33
475.66	19644.12
475.84	19651.14
476.02	19377.30
476.20	19222.82
476.38	19421.77
476.56	20285.42
476.74	20425.86
476.92	20547.56
477.10	20563.95
477.28	21427.60
477.46	21280.15
477.64	21584.42
477.82	21769.32
478.00	22099.34
478.18	21184.19
478.36	21390.16
478.54	21685.06
478.72	21537.61
478.90	22497.23
479.08	22948.95
479.26	22682.13
479.44	22583.83
479.62	22724.26
479.80	22843.63
479.98	23082.36
480.16	23608.98
480.34	22427.01
480.52	23173.64
480.70	23480.25
480.88	23325.78
481.06	24063.05
481.24	23571.54
481.41	23910.91
481.59	24865.85
481.77	24563.92
481.95	24364.98
482.13	24482.00
482.31	24886.92
482.49	25270.76
482.67	24788.61
482.85	24879.89
483.03	26258.47
483.21	26211.66
483.39	25439.28
483.57	24716.06
483.74	24287.74
483.92	24549.88
484.10	25055.43
484.28	25436.94
484.46	26064.21
484.64	25617.16
484.82	25226.29
485.00	25022.67
485.18	24161.35
485.35	23328.12
485.53	20905.66
485.71	19442.83
485.89	19583.26
486.07	20898.64
486.25	22888.10
486.43	24027.94
486.61	24238.59
486.78	24760.53
486.96	25371.41
487.14	26235.06
487.32	25551.63
487.50	27164.26
487.68	27438.10
487.85	28166.01
488.03	28100.47
488.21	27873.44
488.39	27328.10
488.57	26096.97
488.75	26490.18
488.92	28098.13
489.10	29521.18
489.28	30115.67
489.46	30927.84
489.64	30527.61
489.81	30890.39
489.99	30436.33
490.17	31391.26
490.35	30855.28
490.53	30160.14
490.70	29544.58
490.88	29329.25
491.06	30677.40
491.24	30607.19
491.41	29221.59
491.59	27676.83
491.77	27234.47
491.95	28900.94
492.13	30223.34
492.30	31262.54
492.48	32070.02
492.66	33132.62
492.84	31941.29
493.01	31896.82
493.19	31676.81
493.37	31431.05
493.54	31599.57
493.72	32844.74
493.90	32919.63
494.08	32966.45
494.25	33731.80
494.43	33862.87
494.61	34855.26
494.79	34532.26
494.96	34169.48
495.14	32694.94
495.32	33254.33
495.49	32432.80
495.67	33439.23
495.85	35531.67
496.02	35587.85
496.20	35028.46
496.38	34401.19
496.55	34803.77
496.73	34876.32
496.91	34813.13
497.09	36112.13
497.26	36144.89
497.44	35065.91
497.62	34590.78
497.79	33802.02
497.97	32584.94
498.14	33259.01
498.32	35016.75
498.50	35793.81
498.67	35606.57
498.85	36013.82
499.03	35887.43
499.20	36325.11
499.38	37006.21
499.56	35896.80
499.73	35131.44
499.91	33820.74
500.08	33546.90
500.26	32598.98
500.44	33528.17
500.61	34670.36
500.79	34396.51
500.97	33205.18
501.14	33457.96
501.32	33347.95
501.49	33773.93
501.67	34235.02
501.84	34377.79
502.02	34684.40
502.20	35138.46
502.37	35810.20
502.55	35651.04
502.72	35981.06
502.90	36498.31
503.07	35791.47
503.25	34756.96
503.43	33979.90
503.60	33720.10
503.78	33137.30
503.95	33984.58
504.13	35868.71
504.30	37280.05
504.48	35828.92
504.65	35779.77
504.83	36095.74
505.01	36582.57
505.18	36493.63
505.36	37083.45
505.53	37331.54
505.71	38536.92
505.88	38841.19
506.06	37947.11
506.23	37340.91
506.41	37141.96
506.58	37457.93
506.76	36556.83
506.93	36655.13
507.11	36018.50
507.28	36098.08
507.46	36407.03
507.63	35318.68
507.81	34359.06
507.98	35292.94
508.16	36100.42
508.33	37600.71
508.50	37450.91
508.68	37811.35
508.85	38962.90
509.03	37909.66
509.20	37694.33
509.38	35803.17
509.55	36580.23
509.73	37102.17
509.90	36584.91
510.08	36215.11
510.25	37064.72
510.42	36074.68
510.60	37170.05
510.77	37940.08
510.95	39295.25
511.12	38110.94
511.30	39557.39
511.47	38974.60
511.64	38541.60
511.82	37778.59
511.99	36886.84
512.17	36982.80
512.34	36477.25
512.51	36655.13
512.69	36065.31
512.86	36107.44
513.04	37549.21
513.21	37399.42
513.38	36268.94
513.56	34616.52
513.73	34227.99
513.90	35569.12
514.08	35136.12
514.25	36107.44
514.43	36238.51
514.60	36158.94
514.77	35945.95
514.95	37146.64
515.12	36643.43
515.29	36278.30
515.47	37111.53
515.64	37890.93
515.81	37628.79
515.99	36025.53
516.16	34204.59
516.33	31494.25
516.51	30881.03
516.68	29521.18
516.85	29397.13
517.03	30501.86
517.20	33926.07
517.37	36222.13
517.54	36519.38
517.72	34843.56
517.89	32432.80
518.06	30752.30
518.24	31503.61
518.41	33343.27
518.58	35405.28
518.75	35772.75
518.93	35192.30
519.10	35791.47
519.27	35798.49
519.45	36821.31
519.62	37038.98
519.79	36865.78
519.96	37284.73
520.14	36472.57
520.31	35735.30
520.48	35644.02
520.65	36137.87
520.83	37804.33
521.00	37563.26
521.17	36992.17
521.34	37305.80
521.52	37254.31
521.69	37392.40
521.86	37699.01
522.03	37509.43
522.20	35754.02
522.38	35138.46
522.55	35964.67
522.72	36023.19
522.89	35936.59
523.07	35828.92
523.24	36350.86
523.41	37645.18
523.58	37361.97
523.75	38270.10
523.92	38932.47
524.10	38649.27
524.27	38593.09
524.44	38487.77
524.61	38340.32
524.78	37212.18
524.96	36758.11
525.13	36790.88
525.30	37944.76
525.47	38490.11
525.64	38560.33
525.81	37184.09
525.98	34841.21
526.16	34340.34
526.33	32259.60
526.50	32009.17
526.67	31590.21
526.84	32837.72
527.01	34794.40
527.18	35571.46
527.36	36807.26
527.53	36851.73
527.70	36910.25
527.87	35938.93
528.04	37179.41
528.21	36914.93
528.38	38642.24
528.55	39564.42
528.72	40067.63
528.89	39641.65
529.07	39000.35
529.24	37329.20
529.41	36854.08
529.58	37273.03
529.75	37010.89
529.92	38113.28
530.09	38696.08
530.26	39370.15
530.43	39515.26
530.60	38925.45
530.77	39100.99
530.94	38705.44
531.11	37921.36
531.28	37518.79
531.46	37137.28
531.63	36870.46
531.80	37352.61
531.97	35920.20
532.14	34906.75
532.31	33699.03
532.48	34895.05
532.65	34906.75
532.82	35086.97
532.99	37298.78
533.16	38040.73
533.33	37364.31
533.50	35775.09
533.67	36521.72
533.84	37214.52
534.01	36793.22
534.18	36552.15
534.35	37214.52
534.52	36477.25
534.69	37729.44
534.86	38256.06
535.03	37237.92
535.20	38628.20
535.37	39089.29
535.54	39098.65
535.71	38754.59
535.88	38286.48
536.05	36575.55
536.22	36851.73
536.38	36477.25
536.55	34298.21
536.72	34604.82
536.89	35152.51
537.06	35906.16
537.23	38117.96
537.40	37479.00
537.57	38174.14
537.74	37689.65
537.91	37619.43
538.08	36411.71
538.25	35941.27
538.42	37036.64
538.59	37113.87
538.75	35838.28
538.92	36191.70
539.09	36498.31
539.26	35894.46
539.43	35531.67
539.60	35557.42
539.77	36868.12
539.94	35641.68
540.11	33684.99
540.28	33591.37
540.44	33359.66
540.61	34866.96
540.78	35702.53
540.95	36692.58
541.12	35992.76
541.29	36329.80
541.46	36142.55
541.62	36580.23
541.79	37050.68
541.96	36168.30
542.13	34745.25
542.30	35164.21
542.47	35438.05
542.63	35295.28
542.80	34873.98
542.97	35889.77
543.14	34944.20
543.31	36002.12
543.48	36020.84
543.64	36697.26
543.81	36833.01
543.98	37127.92
544.15	35943.61
544.32	35152.51
544.48	36271.28
544.65	36552.15
544.82	37006.21
544.99	35672.10
545.16	35199.32
545.32	35395.92
545.49	37160.69
545.66	35744.66
545.83	35459.12
546.00	35035.48
546.16	35431.03
546.33	35749.34
546.50	35285.92
546.67	36739.39
546.83	35749.34
547.00	35086.97
547.17	34991.01
547.34	33879.25
547.50	34771.00
547.67	35009.73
547.84	35086.97
548.00	36135.53
548.17	35552.74
548.34	34986.33
548.51	36067.66
548.67	36053.61
548.84	36156.60
549.01	36638.75
549.18	35747.00
549.34	35154.85
549.51	35075.27
549.68	36231.49
549.84	35545.72
550.01	35517.63
550.18	35274.21
550.34	35201.66
550.51	34738.23
550.68	35084.63
550.84	35119.74
551.01	34820.15
551.18	35166.55
551.34	35709.55
551.51	34724.19
551.68	35971.69
551.84	36563.85
552.01	35742.32
552.18	35044.84
552.34	35103.35
552.51	34728.87
552.68	35393.58
552.84	35927.22
553.01	34754.61
553.18	34316.93
553.34	34565.03
553.51	35014.41
553.67	35314.00
553.84	34672.70
554.01	34682.06
554.17	34745.25
554.34	35391.24
554.51	34508.86
554.67	34529.92
554.84	35260.17
555.00	34923.13
555.17	34618.86
555.33	34129.69
555.50	35309.32
555.67	33820.74
555.83	33425.19
556.00	32369.61
556.16	33392.42
556.33	32596.64
556.50	34047.77
556.66	34319.28
556.83	34445.66
556.99	33371.36
557.16	33184.12
557.32	34218.63
557.49	34309.91
557.65	34361.40
557.82	34529.92
557.98	34096.92
558.15	33649.88
558.32	33404.13
558.48	32093.43
558.65	32011.51
558.81	30698.47
558.98	31435.74
559.14	32980.49
559.31	33338.59
559.47	32278.33
559.64	31508.29
559.80	30260.79
559.97	31639.36
560.13	32968.79
560.30	33193.48
560.46	34288.85
560.63	35196.98
560.79	35463.80
560.96	33104.54
561.12	32451.53
561.29	31683.83
561.45	31271.90
561.61	31543.40
561.78	31842.99
561.94	32348.54
562.11	32514.72
562.27	33055.39
562.44	33198.16
562.60	33699.03
562.77	33663.93
562.93	33472.00
563.10	32037.25
563.26	32252.58
563.42	32545.15
563.59	31505.95
563.75	31711.92
563.92	31952.99
564.08	32444.51
564.24	32259.60
564.41	31491.91
564.57	32823.67
564.74	31864.05
564.90	31433.39
565.07	31503.61
565.23	30551.01
565.39	30579.10
565.56	30686.76
565.72	30377.81
565.88	30204.61
566.05	31194.66
566.21	31854.69
566.38	31056.57
566.54	31728.30
566.70	31559.78
566.87	32318.12
567.03	31393.61
567.19	31147.85
567.36	31861.71
567.52	30930.18
567.68	31393.61
567.85	30822.51
568.01	29586.71
568.17	30106.31
568.34	31140.83
568.50	31178.28
568.66	31522.34
568.83	31035.50
568.99	30719.53
569.15	31262.54
569.32	31314.03
569.48	30602.50
569.64	29956.52
569.81	30321.64
569.97	30195.25
570.13	30354.41
570.30	29963.54
570.46	29993.97
570.62	29219.25
570.78	28893.91
570.95	29745.87
571.11	30403.56
571.27	30551.01
571.43	30976.99
571.60	30211.64
571.76	30389.52
571.92	30558.03
572.09	30309.94
572.25	31419.35
572.41	31828.95
572.57	32278.33
572.74	31873.42
572.90	30852.94
573.06	30677.40
573.22	29570.33
573.38	29453.30
573.55	30221.00
573.71	29247.33
573.87	29788.00
574.03	29996.31
574.20	29855.87
574.36	30239.72
574.52	31351.48
574.68	29383.09
574.84	28933.70
575.01	28435.17
575.17	28786.25
575.33	29099.88
575.49	28636.45
575.65	29411.17
575.82	29605.44
575.98	28957.11
576.14	28570.92
576.30	28664.54
576.46	28952.43
576.62	29764.59
576.79	30071.20
576.95	28786.25
577.11	27910.89
577.27	29095.20
577.43	29228.61
577.59	28819.02
577.75	28886.89
577.92	27786.84
578.08	27599.60
578.24	28278.35
578.40	27990.47
578.56	28084.09
578.72	28423.47
578.88	28336.87
579.04	28690.29
579.21	28603.69
579.37	28879.87
579.53	29666.29
579.69	30164.82
579.85	28950.09
580.01	28386.02
580.17	28280.69
580.33	28765.18
580.49	28442.19
580.65	27529.38
580.82	28020.89
580.98	28376.66
581.14	28847.10
581.30	28027.92
581.46	28318.14
581.62	27763.43
581.78	28166.01
581.94	28938.38
582.10	29322.23
582.26	28900.94
582.42	29046.05
582.58	28409.42
582.74	28985.19
582.90	28837.74
583.06	29139.67
583.22	28697.31
583.38	28872.85
583.54	28500.70
583.70	28900.94
583.86	28481.98
584.02	28247.93
584.18	29032.00
584.34	29053.07
584.50	28456.23
584.66	28123.88
584.82	27946.00
584.98	28222.18
585.14	27459.16
585.30	27346.82
585.46	27386.61
585.62	26827.22
585.78	27463.85
585.94	27541.08
586.10	26572.10
586.26	26799.13
586.42	27613.64
586.58	27414.69
586.74	27690.88
586.90	28081.75
587.06	27821.95
587.22	27730.67
587.38	27290.65
587.54	26813.18
587.70	26527.63
587.86	25823.13
588.02	25663.97
588.18	25809.09
588.34	24388.38
588.49	23304.71
588.65	22373.18
588.81	23061.30
588.97	22183.60
589.13	22948.95
589.29	22920.87
589.45	23077.68
589.61	23552.81
589.77	24566.26
589.93	24863.51
590.08	24950.11
590.24	25453.33
590.40	24917.34
590.56	24702.01
590.72	25240.34
590.88	24720.74
591.04	25170.12
591.20	24924.36
591.35	25029.69
591.51	25446.30
591.67	25865.26
591.83	25085.86
591.99	24872.87
592.15	25612.48
592.31	25418.22
592.46	24620.10
592.62	25373.75
592.78	25926.11
592.94	25317.57
593.10	25315.23
593.26	26038.46
593.41	24690.31
593.57	24627.12
593.73	24875.21
593.89	24835.42
594.05	24727.76
594.20	24769.89
594.36	24716.06
594.52	24151.99
594.68	23873.46
594.84	23967.09
594.99	24968.84
595.15	23709.63
595.31	24039.64
595.47	25392.47
595.62	24833.08
595.78	24582.65
595.94	25336.30
596.10	23730.69
596.25	23688.56
596.41	24184.76
596.57	25137.35
596.73	24666.91
596.88	24999.26
597.04	24051.34
597.20	24212.84
597.36	23843.04
597.51	24416.47
597.67	24247.95
597.83	24332.21
597.99	24203.48
598.14	23435.78
598.30	23026.19
598.46	23487.28
598.61	23578.56
598.77	23957.72
598.93	23337.48
599.09	23403.02
599.24	24709.04
599.40	23800.91
599.56	24294.76
599.71	24339.23
599.87	23669.84
600.03	22876.40
600.18	23454.51
600.34	22728.94
600.50	23349.18
600.65	23683.88
600.81	23538.77
600.97	23566.85
601.12	23117.47
601.28	22860.01
601.44	23119.81
601.59	23501.32
601.75	23021.51
601.91	23206.41
602.06	23592.60
602.22	23274.29
602.37	23110.45
602.53	23688.56
602.69	24020.92
602.84	23992.83
603.00	23894.53
603.16	24386.04
603.31	23742.39
603.47	23349.18
603.62	23604.30
603.78	23686.22
603.94	23098.75
604.09	22881.08
604.25	23840.70
604.40	23517.70
604.56	24037.30
604.71	24746.48
604.87	24910.32
605.03	24009.22
605.18	23543.45
605.34	23398.34
605.49	22911.50
605.65	23627.71
605.80	23021.51
605.96	23250.88
606.12	23183.01
606.27	23506.00
606.43	22703.20
606.58	22801.50
606.74	23288.33
606.89	23601.96
607.05	23206.41
607.20	22532.34
607.36	22740.64
607.51	22838.95
607.67	22618.94
607.82	22499.57
607.98	22309.99
608.13	22040.82
608.29	22611.92
608.44	22342.75
608.60	22773.41
608.75	21607.83
608.91	21919.12
609.06	23117.47
609.22	22841.29
609.37	23021.51
609.53	22604.89
609.68	22012.74
609.84	20968.86
609.99	21645.27
610.15	20776.94
610.30	22153.17
610.46	21905.07
610.61	21914.44
610.76	21617.19
610.92	21254.40
611.07	22113.38
611.23	22511.27
611.38	22235.09
611.54	22658.73
611.69	21994.01
611.84	21982.31
612.00	20835.45
612.15	21294.19
612.31	21514.20
612.46	21504.84
612.62	21788.05
612.77	21734.21
612.92	21996.35
613.08	20716.08
613.23	20486.71
613.39	19779.87
613.54	20219.89
613.69	21128.02
613.85	21984.65
614.00	21184.19
614.15	20711.40
614.31	21465.05
614.46	21586.76
614.62	20964.18
614.77	20198.82
614.92	20297.13
615.08	20943.11
615.23	20065.41
615.38	20617.78
615.54	20032.65
615.69	19538.79
615.84	19396.02
616.00	19358.57
616.15	19747.10
616.30	19538.79
616.46	19269.63
616.61	19990.52
616.76	19964.77
616.92	20247.97
617.07	20798.00
617.22	20442.24
617.37	20325.21
617.53	20280.74
617.68	19922.64
617.83	20456.28
617.99	20624.80
618.14	20175.42
618.29	20187.12
618.45	19836.04
618.60	19894.55
618.75	19264.95
618.90	19995.20
619.06	19463.90
619.21	19822.00
619.36	20039.67
619.51	19304.74
619.67	19344.53
619.82	20149.67
619.97	20758.21
620.12	21076.52
620.28	20837.79
620.43	21247.38
620.58	20034.99
620.73	20629.48
620.89	19805.61
621.04	18998.13
621.19	18422.36
621.34	18668.11
621.49	18974.72
621.65	19693.27
621.80	19770.51
621.95	19637.09
622.10	19405.38
622.25	18422.36
622.41	18314.69
622.56	18459.81
622.71	18181.28
622.86	18073.62
623.01	18398.95
623.16	18499.59
623.32	18530.02
623.47	18860.04
623.62	18939.62
623.77	19204.10
623.92	18443.42
624.07	18457.46
624.23	18338.10
624.38	18120.43
624.53	17500.19
624.68	17305.92
624.83	17682.75
624.98	17816.16
625.13	17432.31
625.29	18104.04
625.44	17968.29
625.59	17935.53
625.74	17631.26
625.89	18464.49
626.04	18319.37
626.19	18242.14
626.34	18033.83
626.49	17479.12
626.65	17287.20
626.80	17547.00
626.95	18375.55
627.10	18586.19
627.25	17930.84
627.40	17486.14
627.55	16290.13
627.70	16133.31
627.85	16269.06
628.00	17032.08
628.15	16875.26
628.30	17200.60
628.45	17121.02
628.60	16734.83
628.76	16856.54
628.91	16912.71
629.06	16858.88
629.21	18473.85
629.36	17317.62
629.51	16886.97
629.66	16039.69
629.81	16339.28
629.96	16425.88
630.11	16489.07
630.26	16388.43
630.41	16959.52
630.56	16535.88
630.71	16425.88
630.86	16362.69
631.01	16369.71
631.16	16854.20
631.31	15948.41
631.46	16135.65
631.61	16025.65
631.76	16027.99
631.91	16255.02
632.06	16044.37
632.21	16624.83
632.36	15983.52
632.51	15829.04
632.66	16451.63
632.81	16372.05
632.96	16205.87
633.10	16149.70
633.25	16287.79
633.40	15723.72
633.55	15644.14
633.70	15665.21
633.85	15742.44
634.00	16374.39
634.15	16414.18
634.30	15850.11
634.45	15648.82
634.60	15896.92
634.75	15669.89
634.90	16327.58
635.05	16423.54
635.19	15723.72
635.34	16149.70
635.49	15932.03
635.64	15688.61
635.79	16269.06
635.94	16594.40
636.09	17408.90
636.24	16896.33
636.39	16383.75
636.53	16762.92
636.68	16355.66
636.83	16280.77
636.98	16198.85
637.13	16702.06
637.28	16690.36
637.43	16762.92
637.57	16727.81
637.72	16189.49
637.87	16161.40
638.02	15644.14
638.17	15962.45
638.32	16781.64
638.46	16229.27
638.61	15744.78
638.76	16229.27
638.91	16009.26
639.06	15925.00
639.20	15901.60
639.35	15438.17
639.50	15140.93
639.65	15513.07
639.80	15243.91
639.94	15166.67
640.09	15384.34
640.24	14691.54
640.39	14691.54
640.54	14504.30
640.68	15096.46
640.83	14513.66
640.98	15379.66
641.13	15552.86
641.27	15456.90
641.42	15260.29
641.57	15030.92
641.72	15281.36
641.86	15311.78
642.01	15520.09
642.16	15213.48
642.31	14941.98
642.45	14831.97
642.60	14885.81
642.75	14281.95
642.90	15143.27
643.04	14920.92
643.19	14132.15
643.34	14270.25
643.48	14373.23
643.63	14232.80
643.78	14413.02
643.93	14090.02
644.07	14537.07
644.22	14813.25
644.37	14373.23
644.51	14307.69
644.66	14132.15
644.81	14707.93
644.95	14588.56
645.10	14251.52
645.25	14059.60
645.39	13565.74
645.54	13846.61
645.69	13572.77
645.83	13687.45
645.98	13893.42
646.13	13987.04
646.27	14057.26
646.42	13816.18
646.57	13872.36
646.71	13949.59
646.86	13771.71
647.00	13699.16
647.15	13657.03
647.30	13334.03
647.44	13472.12
647.59	12999.34
647.74	13259.13
647.88	13109.34
648.03	13268.50
648.17	13099.98
648.32	13263.82
648.47	14019.81
648.61	13460.42
648.76	13891.08
648.90	13317.65
649.05	12788.69
649.20	12517.18
649.34	12280.79
649.49	12301.86
649.63	12540.59
649.78	12496.12
649.92	12992.31
650.07	13741.29
650.21	12985.29
650.36	13228.71
650.51	13493.19
650.65	13554.04
650.80	13991.72
650.94	13490.85
651.09	13198.28
651.23	12741.88
651.38	12315.90
651.52	12774.64
651.67	12681.02
651.81	13259.13
651.96	13448.72
652.10	13202.96
652.25	13394.89
652.39	13338.71
652.54	12910.40
652.68	13179.56
652.83	13153.81
652.97	12931.46
653.12	12444.63
653.26	12706.77
653.41	12407.18
653.55	12823.80
653.70	13018.06
653.84	12732.51
653.99	13329.35
654.13	12664.64
654.27	12456.33
654.42	12585.06
654.56	12580.38
654.71	12662.30
654.85	12009.29
655.00	11941.41
655.14	11838.43
655.29	11494.37
655.43	11822.05
655.57	10986.47
655.72	10303.04
655.86	9390.23
656.01	9408.95
656.15	9692.16
656.30	10476.24
656.44	10583.90
656.58	11014.56
656.73	11101.16
656.87	11583.31
657.01	11646.51
657.16	11459.26
657.30	11569.27
657.45	11808.00
657.59	11449.90
657.73	11674.59
657.88	11775.24
658.02	12067.80
658.16	12079.50
658.31	12067.80
658.45	12189.51
658.60	11925.03
658.74	12891.67
658.88	12622.51
659.03	11796.30
659.17	12006.95
659.31	11665.23
659.46	11414.79
659.60	11791.62
659.74	11978.86
659.89	11833.75
660.03	12135.68
660.17	11850.13
660.32	11602.04
660.46	11861.84
660.60	11700.34
660.74	11372.66
660.89	11967.16
661.03	12037.38
661.17	12329.94
661.32	12386.12
661.46	12320.58
661.60	12063.12
661.74	12116.95
661.89	12037.38
662.03	12250.36
662.17	11337.56
662.31	11665.23
662.46	11534.16
662.60	11087.12
662.74	10871.79
662.88	10579.22
663.03	11208.83
663.17	11150.31
663.31	10689.23
663.45	11122.23
663.60	11419.47
663.74	10766.46
663.88	11164.36
664.02	10960.73
664.17	11342.24
664.31	10562.84
664.45	10228.14
664.59	11126.91
664.73	11733.11
664.88	11515.44
665.02	11775.24
665.16	11854.81
665.30	11857.15
665.44	11950.78
665.59	11503.73
665.73	11005.20
665.87	10916.26
666.01	10913.92
666.15	10785.19
666.29	10736.04
666.44	11199.46
666.58	10864.77
666.72	10988.82
666.86	11489.69
667.00	10991.16
667.14	10609.65
667.28	10546.45
667.43	10902.22
667.57	11094.14
667.71	11122.23
667.85	10937.32
667.99	11066.05
668.13	10862.43
668.27	11033.29
668.41	10871.79
668.56	10923.28
668.70	10686.89
668.84	11021.58
668.98	11075.42
669.12	10558.16
669.26	10202.40
669.40	10190.69
669.54	10335.81
669.68	10024.51
669.82	10160.27
669.96	10265.59
670.10	10277.29
670.25	10164.95
670.39	9795.14
670.53	9856.00
670.67	9949.62
670.81	9720.24
670.95	9762.37
671.09	9596.20
671.23	9762.37
671.37	9603.22
671.51	9430.02
671.65	9315.33
671.79	9554.07
671.93	10335.81
672.07	10422.41
672.21	9610.24
672.35	9537.68
672.49	9699.18
672.63	9427.68
672.77	9783.44
672.91	9664.07
673.05	9472.15
673.19	9179.58
673.33	9430.02
673.47	10003.45
673.61	9804.50
673.75	9226.39
673.89	9226.39
674.03	9151.49
674.17	9158.52
674.31	9324.69
674.45	9224.05
674.59	9507.26
674.73	9570.45
674.87	9341.08
675.01	8805.10
675.15	8573.38
675.29	8945.53
675.43	8767.65
675.56	8439.97
675.70	9057.87
675.84	9029.79
675.98	8652.96
676.12	8711.47
676.26	8456.36
676.40	8547.64
676.54	8669.34
676.68	8655.30
676.82	8294.86
676.96	8381.46
677.10	8360.39
677.23	8229.32
677.37	8196.56
677.51	8208.26
677.65	7990.59
677.79	7868.88
677.93	8013.99
678.07	8021.02
678.21	8081.87
678.34	8587.43
678.48	8615.51
678.62	8201.24
678.76	8231.66
678.90	8327.63
679.04	8269.11
679.18	8369.76
679.31	8081.87
679.45	7941.44
679.59	8011.65
679.73	7974.21
679.87	8086.55
680.00	8028.04
680.14	8044.42
680.28	8318.26
680.42	7829.09
680.56	7360.98
680.70	7379.71
680.83	7705.04
680.97	7934.42
681.11	8112.30
681.25	7857.18
681.39	7817.39
681.52	7625.47
681.66	7492.05
681.80	7222.89
681.94	7435.88
682.07	7662.91
682.21	7379.71
682.35	7543.55
682.49	7183.10
682.62	7307.15
682.76	7026.29
682.90	6778.19
683.04	6679.89
683.17	6911.60
683.31	6834.36
683.45	7269.70
683.59	7002.88
683.72	6876.49
683.86	6616.69
684.00	6417.75
684.13	6363.92
684.27	6537.12
684.41	6597.97
684.55	6785.21
684.68	6881.18
684.82	6927.99
684.96	6984.16
685.09	6656.48
685.23	6689.25
685.37	6539.46
685.50	6590.95
685.64	6499.67
685.78	6602.65
685.91	6668.19
686.05	6635.42
686.19	6417.75
686.32	5841.98
686.46	5301.31
686.60	4585.11
686.73	4168.49
686.87	3974.23
687.01	3920.40
687.14	4264.46
687.28	4540.64
687.42	4833.21
687.55	4823.84
687.69	5139.82
687.82	5273.23
687.96	5259.18
688.10	5350.46
688.23	5603.24
688.37	5320.04
688.50	4966.62
688.64	4997.04
688.78	4847.25
688.91	5060.24
689.05	4936.19
689.18	4964.28
689.32	4968.96
689.46	4770.01
689.59	4903.42
689.73	5095.35
689.86	5015.77
690.00	4554.68
690.13	5036.83
690.27	4887.04
690.41	4854.27
690.54	4933.85
690.68	5062.58
690.81	5130.45
690.95	5343.44
691.08	5394.93
691.22	5399.62
691.35	5114.07
691.49	4980.66
691.62	4983.00
691.76	5287.27
691.89	5083.64
692.03	4898.74
692.16	4861.29
692.30	5179.61
692.43	4924.49
692.57	4823.84
692.70	4762.99
692.84	4627.24
692.97	4798.10
693.11	4545.32
693.24	4657.67
693.38	4664.69
693.51	4603.83
693.65	4599.15
693.78	4395.53
693.92	4421.27
694.05	4423.61
694.19	4332.33
694.32	4002.32
694.45	4322.97
694.59	4259.78
694.72	4428.29
694.86	4421.27
694.99	4444.68
695.13	4564.04
695.26	4615.54
695.39	4493.83
695.53	4395.53
695.66	4454.04
695.80	4381.48
695.93	4411.91
696.07	4856.61
696.20	4887.04
696.33	4837.89
696.47	4802.78
696.60	4496.17
696.73	4430.63
696.87	4435.32
697.00	4507.87
697.14	4594.47
697.27	4355.74
697.40	4493.83
697.54	4294.88
697.67	4266.80
697.80	4297.22
697.94	4311.27
698.07	4301.90
698.21	4121.68
698.34	3976.57
698.47	3850.18
698.61	3854.86
698.74	4018.70
698.87	3971.89
699.01	4072.53
699.14	4283.18
699.27	3946.14
699.40	4131.05
699.54	4156.79
699.67	4088.92
699.80	3976.57
699.94	3726.13
700.07	3885.29
700.20	3763.58
700.34	3618.47
700.47	3620.81
700.60	3456.97
700.73	3428.88
700.87	3590.38
701.00	3548.25
701.13	3557.61
701.26	3396.12
701.40	3555.27
701.53	3630.17
701.66	3655.92
701.79	3529.53
701.93	3377.39
702.06	3405.48
702.19	3396.12
702.32	3325.90
702.46	3213.56
702.59	3447.61
702.72	3428.88
702.85	3494.42
702.99	3524.85
703.12	3559.95
703.25	3531.87
703.38	3260.37
703.51	3363.35
703.65	3463.99
703.78	3375.05
703.91	3438.25
704.04	3199.51
704.17	3323.56
704.31	3353.99
704.44	3438.25
704.57	3321.22
704.70	3281.43
704.83	3220.58
704.96	3208.87
705.10	3323.56
705.23	3087.17
>>>>>End Processed Spectral Data<<<<<
