SpectraSuite Data File
++++++++++++++++++++++++++++++++++++
Date: Mon Oct 07 14:54:54 GMT-05:00 2013
User: price-jones
Dark Spectrum Present: No
Reference Spectrum Present: No
Number of Sampled Component Spectra: 1
Spectrometers: USB2+H05261
Integration Time (usec): 10000 (USB2+H05261)
Spectra Averaged: 1 (USB2+H05261)
Boxcar Smoothing: 0 (USB2+H05261)
Correct for Electrical Dark: No (USB2+H05261)
Strobe/Lamp Enabled: No (USB2+H05261)
Correct for Detector Non-linearity: No (USB2+H05261)
Correct for Stray Light: No (USB2+H05261)
Number of Pixels in Processed Spectrum: 2048
>>>>>Begin Processed Spectral Data<<<<<
365.73	0.00
365.92	0.00
366.12	0.00
366.32	0.00
366.52	0.00
366.72	0.00
366.91	0.00
367.11	0.00
367.31	0.00
367.51	0.00
367.70	0.00
367.90	0.00
368.10	0.00
368.30	0.00
368.49	0.00
368.69	0.00
368.89	0.00
369.09	0.00
369.28	0.00
369.48	0.00
369.68	0.00
369.87	0.00
370.07	0.00
370.27	0.00
370.47	0.00
370.66	0.00
370.86	0.00
371.06	4.68
371.25	0.00
371.45	0.00
371.65	0.00
371.84	0.00
372.04	0.00
372.24	16.38
372.44	58.51
372.63	49.15
372.83	0.00
373.03	0.00
373.22	0.00
373.42	0.00
373.62	60.85
373.81	2.34
374.01	0.00
374.21	14.04
374.40	30.43
374.60	21.06
374.79	49.15
374.99	88.94
375.19	117.03
375.38	95.96
375.58	77.24
375.78	81.92
375.97	32.77
376.17	86.60
376.37	21.06
376.56	119.37
376.76	112.35
376.95	135.75
377.15	208.31
377.35	257.46
377.54	110.01
377.74	222.35
377.93	189.58
378.13	205.97
378.33	163.84
378.52	107.66
378.72	112.35
378.91	117.03
379.11	170.86
379.31	70.22
379.50	60.85
379.70	98.30
379.89	117.03
380.09	173.20
380.28	168.52
380.48	224.69
380.68	163.84
380.87	177.88
381.07	154.48
381.26	138.09
381.46	86.60
381.65	16.38
381.85	138.09
382.04	28.09
382.24	0.00
382.43	0.00
382.63	30.43
382.83	9.36
383.02	49.15
383.22	58.51
383.41	56.17
383.61	107.66
383.80	67.88
384.00	152.13
384.19	128.73
384.39	220.01
384.58	184.90
384.78	177.88
384.97	133.41
385.17	112.35
385.36	107.66
385.56	86.60
385.75	117.03
385.95	145.11
386.14	159.16
386.34	131.07
386.53	217.67
386.72	145.11
386.92	128.73
387.11	229.37
387.31	210.65
387.50	147.45
387.70	252.78
387.89	126.39
388.09	168.52
388.28	159.16
388.48	294.91
388.67	159.16
388.86	271.50
389.06	330.02
389.25	320.65
389.45	280.86
389.64	269.16
389.84	271.50
390.03	262.14
390.22	334.70
390.42	290.23
390.61	353.42
390.81	365.12
391.00	390.87
391.19	397.89
391.39	358.10
391.58	365.12
391.78	287.89
391.97	259.80
392.16	255.12
392.36	241.08
392.55	37.45
392.75	114.69
392.94	7.02
393.13	0.00
393.33	16.38
393.52	128.73
393.71	285.55
393.91	299.59
394.10	257.46
394.29	362.78
394.49	311.29
394.68	421.30
394.88	407.25
395.07	498.53
395.26	468.11
395.46	358.10
395.65	358.10
395.84	322.99
396.04	236.39
396.23	100.64
396.42	107.66
396.62	63.19
396.81	166.18
397.00	238.73
397.19	271.50
397.39	411.93
397.58	566.41
397.77	615.56
397.97	538.32
398.16	540.66
398.35	613.22
398.55	660.03
398.74	697.48
398.93	711.52
399.12	627.26
399.32	589.82
399.51	678.76
399.70	727.91
399.90	664.71
400.09	816.85
400.28	716.20
400.47	732.59
400.67	812.17
400.86	695.14
401.05	795.78
401.24	809.83
401.44	779.40
401.63	711.52
401.82	833.23
402.01	863.66
402.21	844.93
402.40	807.48
402.59	842.59
402.78	844.93
402.97	788.76
403.17	826.21
403.36	863.66
403.55	875.36
403.74	898.77
403.93	795.78
404.13	734.93
404.32	723.23
404.51	765.36
404.70	882.38
404.89	807.48
405.09	826.21
405.28	873.02
405.47	765.36
405.66	758.33
405.85	763.01
406.05	751.31
406.24	711.52
406.43	798.12
406.62	791.10
406.81	870.68
407.00	814.51
407.20	716.20
407.39	791.10
407.58	723.23
407.77	851.96
407.96	931.53
408.15	908.13
408.34	880.04
408.54	976.00
408.73	990.05
408.92	945.58
409.11	924.51
409.30	901.11
409.49	706.84
409.68	709.18
409.87	725.57
410.07	718.54
410.26	896.43
410.45	905.79
410.64	978.34
410.83	1029.84
411.02	1022.81
411.21	1069.62
411.40	959.62
411.59	1069.62
411.78	1046.22
411.98	957.28
412.17	922.17
412.36	973.66
412.55	973.66
412.74	1015.79
412.93	990.05
413.12	917.49
413.31	1151.54
413.50	1090.69
413.69	1097.71
413.88	1057.92
414.07	1013.45
414.26	1043.88
414.45	1097.71
414.64	1114.10
414.83	1149.20
415.02	1043.88
415.22	1036.86
415.41	1132.82
415.60	1118.78
415.79	1205.38
415.98	1153.88
416.17	1287.29
416.36	1252.19
416.55	1186.65
416.74	990.05
416.93	1174.95
417.12	1116.44
417.31	1174.95
417.50	1181.97
417.69	1123.46
417.88	1041.54
418.07	1060.26
418.26	1111.75
418.45	1102.39
418.64	1177.29
418.83	1224.10
419.02	1266.23
419.21	1238.14
419.39	1048.56
419.58	1086.01
419.77	1043.88
419.96	1165.59
420.15	1191.33
420.34	1210.06
420.53	1284.95
420.72	1179.63
420.91	1224.10
421.10	1256.87
421.29	1247.51
421.48	1158.57
421.67	1224.10
421.86	1235.80
422.05	1121.12
422.24	1053.24
422.43	1053.24
422.61	1128.14
422.80	1144.52
422.99	1263.89
423.18	1163.25
423.37	1135.16
423.56	1174.95
423.75	1118.78
423.94	1184.31
424.13	1137.50
424.32	1116.44
424.50	1090.69
424.69	1125.80
424.88	1139.84
425.07	1060.26
425.26	1083.67
425.45	1144.52
425.64	1048.56
425.83	1172.61
426.01	1207.72
426.20	1132.82
426.39	1200.69
426.58	1107.07
426.77	994.73
426.96	947.92
427.15	985.37
427.33	1022.81
427.52	1121.12
427.71	1156.22
427.90	1064.94
428.09	1095.37
428.28	1137.50
428.46	1027.50
428.65	1039.20
428.84	1088.35
429.03	1107.07
429.22	1018.13
429.40	978.34
429.59	889.40
429.78	727.91
429.97	711.52
430.16	767.70
430.34	702.16
430.53	674.07
430.72	685.78
430.91	812.17
431.10	1029.84
431.28	1193.67
431.47	1369.21
431.66	1359.85
431.85	1313.04
432.03	1165.59
432.22	1081.33
432.41	1210.06
432.60	1355.17
432.79	1338.79
432.97	1341.13
433.16	1350.49
433.35	1256.87
433.54	1053.24
433.72	1004.09
433.91	1060.26
434.10	1153.88
434.28	1228.78
434.47	1313.04
434.66	1249.85
434.85	1228.78
435.03	1324.74
435.22	1296.66
435.41	1362.19
435.59	1308.36
435.78	1392.62
435.97	1343.47
436.16	1397.30
436.34	1441.77
436.53	1406.66
436.72	1345.81
436.90	1284.95
437.09	1390.28
437.28	1270.91
437.46	1221.76
437.65	1231.12
437.84	1261.55
438.02	1107.07
438.21	1050.90
438.40	1186.65
438.58	1329.42
438.77	1275.59
438.96	1301.34
439.14	1343.47
439.33	1387.94
439.52	1404.32
439.70	1425.39
439.89	1362.19
440.08	1373.89
440.26	1345.81
440.45	1303.68
440.63	1523.69
440.82	1558.80
441.01	1479.22
441.19	1432.41
441.38	1530.71
441.57	1493.26
441.75	1741.36
441.94	1685.19
442.12	1661.78
442.31	1717.95
442.50	1558.80
442.68	1626.67
442.87	1600.93
443.05	1511.99
443.24	1640.72
443.43	1619.65
443.61	1659.44
443.80	1678.16
443.98	1551.78
444.17	1502.62
444.35	1729.66
444.54	1809.23
444.73	1621.99
444.91	1647.74
445.10	1563.48
445.28	1439.43
445.47	1441.77
445.65	1526.03
445.84	1556.46
446.02	1619.65
446.21	1556.46
446.39	1507.30
446.58	1675.82
446.77	1596.25
446.95	1521.35
447.14	1757.74
447.32	1762.42
447.51	1732.00
447.69	1570.50
447.88	1593.90
448.06	1596.25
448.25	1687.53
448.43	1685.19
448.62	1614.97
448.80	1593.90
448.99	1598.59
449.17	1678.16
449.36	1694.55
449.54	1685.19
449.73	1778.81
449.91	1778.81
450.10	1872.43
450.28	1909.88
450.46	1902.86
450.65	1895.83
450.83	1816.26
451.02	1832.64
451.20	1750.72
451.39	1678.16
451.57	1715.61
451.76	1769.44
451.94	1668.80
452.13	1687.53
452.31	1528.37
452.49	1472.20
452.68	1593.90
452.86	1490.92
453.05	1657.10
453.23	1713.27
453.42	1673.48
453.60	1732.00
453.78	1785.83
453.97	1792.85
454.15	1739.02
454.34	1654.76
454.52	1792.85
454.70	1610.29
454.89	1764.76
455.07	1706.25
455.26	1750.72
455.44	1832.64
455.62	1813.92
455.81	1827.96
455.99	1804.55
456.17	1802.21
456.36	1778.81
456.54	1853.70
456.73	1767.10
456.91	1867.75
457.09	1858.39
457.28	1956.69
457.46	1837.32
457.64	1781.15
457.83	1778.81
458.01	1760.08
458.19	1687.53
458.38	1788.17
458.56	1764.76
458.74	1806.89
458.93	1830.30
459.11	1727.32
459.29	1703.91
459.48	1708.59
459.66	1727.32
459.84	1865.41
460.03	1710.93
460.21	1720.29
460.39	1928.60
460.57	1781.15
460.76	1802.21
460.94	1748.38
461.12	1827.96
461.31	1774.13
461.49	1696.89
461.67	1799.87
461.85	1879.45
462.04	1893.49
462.22	1944.99
462.40	1996.48
462.59	1905.20
462.77	1860.73
462.95	1870.09
463.13	1952.01
463.32	1778.81
463.50	1846.68
463.68	1797.53
463.86	1849.02
464.05	1806.89
464.23	1811.57
464.41	1846.68
464.59	1710.93
464.78	1739.02
464.96	1767.10
465.14	1708.59
465.32	1884.13
465.50	1879.45
465.69	1799.87
465.87	1937.96
466.05	1830.30
466.23	1778.81
466.41	1767.10
466.60	1675.82
466.78	1715.61
466.96	1809.23
467.14	1774.13
467.32	1963.71
467.51	1778.81
467.69	1750.72
467.87	1816.26
468.05	1832.64
468.23	1680.50
468.41	1818.60
468.60	1816.26
468.78	1839.66
468.96	1839.66
469.14	1788.17
469.32	1947.33
469.50	1849.02
469.69	1722.63
469.87	1785.83
470.05	1675.82
470.23	1732.00
470.41	1746.04
470.59	1811.57
470.77	1790.51
470.95	1851.36
471.14	1844.34
471.32	1867.75
471.50	2003.50
471.68	2022.22
471.86	2047.97
472.04	1984.77
472.22	2005.84
472.40	1959.03
472.58	1926.26
472.77	1774.13
472.95	1914.56
473.13	1949.67
473.31	1956.69
473.49	1874.77
473.67	1895.83
473.85	1954.35
474.03	1952.01
474.21	1921.58
474.39	2066.69
474.57	2059.67
474.75	2019.88
474.93	1982.43
475.12	1877.11
475.30	1926.26
475.48	2040.95
475.66	2024.56
475.84	1977.75
476.02	1891.15
476.20	1863.07
476.38	1944.99
476.56	1980.09
476.74	2071.37
476.92	2169.68
477.10	2160.31
477.28	2200.10
477.46	2181.38
477.64	2080.74
477.82	2272.66
478.00	2080.74
478.18	2150.95
478.36	2186.06
478.54	2244.57
478.72	2237.55
478.90	2244.57
479.08	2338.20
479.26	2363.94
479.44	2431.82
479.62	2272.66
479.80	2232.87
479.98	2363.94
480.16	2282.02
480.34	2317.13
480.52	2326.49
480.70	2345.22
480.88	2373.30
481.06	2333.51
481.24	2370.96
481.41	2520.76
481.59	2476.29
481.77	2607.36
481.95	2502.03
482.13	2469.27
482.31	2459.90
482.49	2520.76
482.67	2464.58
482.85	2520.76
483.03	2483.31
483.21	2546.50
483.39	2616.72
483.57	2504.37
483.74	2567.57
483.92	2593.31
484.10	2483.31
484.28	2581.61
484.46	2593.31
484.64	2544.16
484.82	2593.31
485.00	2569.91
485.18	2448.20
485.35	2450.54
485.53	2333.51
485.71	2054.99
485.89	1914.56
486.07	1933.28
486.25	2251.60
486.43	2392.03
486.61	2406.07
486.78	2455.22
486.96	2480.97
487.14	2511.39
487.32	2607.36
487.50	2796.94
487.68	2855.45
487.85	2794.60
488.03	2981.84
488.21	2853.11
488.39	2867.16
488.57	2593.31
488.75	2614.38
488.92	2754.81
489.10	2946.73
489.28	3040.36
489.46	3164.40
489.64	3042.70
489.81	3122.27
489.99	3194.83
490.17	3033.33
490.35	3194.83
490.53	3136.32
490.70	3096.53
490.88	3012.27
491.06	3087.17
491.24	3096.53
491.41	3014.61
491.59	2766.51
491.77	2782.90
491.95	2708.00
492.13	3040.36
492.30	3131.64
492.48	3155.04
492.66	3400.80
492.84	3213.56
493.01	3054.40
493.19	3124.62
493.37	3096.53
493.54	3197.17
493.72	3178.45
493.90	3258.03
494.08	3222.92
494.25	3536.55
494.43	3517.83
494.61	3410.16
494.79	3492.08
494.96	3410.16
495.14	3351.65
495.32	3356.33
495.49	3162.06
495.67	3283.77
495.85	3510.80
496.02	3506.12
496.20	3529.53
496.38	3442.93
496.55	3454.63
496.73	3403.14
496.91	3466.33
497.09	3595.06
497.26	3726.13
497.44	3646.55
497.62	3421.86
497.79	3396.12
497.97	3068.44
498.14	3227.60
498.32	3281.43
498.50	3410.16
498.67	3552.93
498.85	3641.87
499.03	3660.60
499.20	3520.17
499.38	3674.64
499.56	3609.11
499.73	3559.95
499.91	3494.42
500.08	3449.95
500.26	3248.66
500.44	3372.71
500.61	3531.87
500.79	3353.99
500.97	3386.76
501.14	3398.46
501.32	3349.31
501.49	3480.38
501.67	3384.41
501.84	3489.74
502.02	3435.91
502.20	3440.59
502.37	3562.30
502.55	3410.16
502.72	3581.02
502.90	3679.32
503.07	3543.57
503.25	3557.61
503.43	3485.06
503.60	3375.05
503.78	3253.34
503.95	3428.88
504.13	3679.32
504.30	3620.81
504.48	3604.42
504.65	3538.89
504.83	3660.60
505.01	3623.15
505.18	3627.83
505.36	3770.60
505.53	3920.40
505.71	3824.44
505.88	3822.09
506.06	3852.52
506.23	3644.21
506.41	3602.08
506.58	3590.38
506.76	3679.32
506.93	3564.64
507.11	3559.95
507.28	3639.53
507.46	3520.17
507.63	3566.98
507.81	3494.42
507.98	3468.67
508.16	3735.50
508.33	3765.92
508.50	3712.09
508.68	3712.09
508.85	3925.08
509.03	3969.55
509.20	3864.22
509.38	3655.92
509.55	3644.21
509.73	3536.55
509.90	3857.20
510.08	3730.81
510.25	3637.19
510.42	3653.58
510.60	3618.47
510.77	3625.49
510.95	3803.37
511.12	3805.71
511.30	3950.82
511.47	3782.31
511.64	3777.62
511.82	3803.37
511.99	3691.02
512.17	3672.30
512.34	3613.79
512.51	3566.98
512.69	3611.45
512.86	3681.66
513.04	3555.27
513.21	3779.97
513.38	3648.90
513.56	3426.54
513.73	3468.67
513.90	3426.54
514.08	3478.04
514.25	3606.77
514.43	3779.97
514.60	3613.79
514.77	3665.28
514.95	3754.22
515.12	3531.87
515.29	3705.07
515.47	3751.88
515.64	3840.82
515.81	3698.05
515.99	3595.06
516.16	3393.78
516.33	3225.26
516.51	2965.46
516.68	2925.67
516.85	2974.82
517.03	2911.63
517.20	3211.22
517.37	3424.20
517.54	3529.53
517.72	3459.31
517.89	3279.09
518.06	2918.65
518.24	3042.70
518.41	3133.98
518.58	3438.25
518.75	3461.65
518.93	3424.20
519.10	3506.12
519.27	3431.23
519.45	3637.19
519.62	3487.40
519.79	3662.94
519.96	3747.20
520.14	3485.06
520.31	3440.59
520.48	3494.42
520.65	3419.52
520.83	3655.92
521.00	3801.03
521.17	3618.47
521.34	3501.44
521.52	3611.45
521.69	3742.52
521.86	3782.31
522.03	3824.44
522.20	3534.21
522.38	3314.20
522.55	3288.45
522.72	3595.06
522.89	3503.78
523.07	3585.70
523.24	3590.38
523.41	3784.65
523.58	3648.90
523.75	3691.02
523.92	3676.98
524.10	3749.54
524.27	3735.50
524.44	3843.16
524.61	3681.66
524.78	3705.07
524.96	3700.39
525.13	3789.33
525.30	3777.62
525.47	3733.15
525.64	3861.88
525.81	3838.48
525.98	3562.30
526.16	3396.12
526.33	3316.54
526.50	3143.34
526.67	3126.96
526.84	3206.53
527.01	3311.86
527.18	3332.92
527.36	3515.48
527.53	3716.77
527.70	3831.46
527.87	3588.04
528.04	3653.58
528.21	3674.64
528.38	3749.54
528.55	3864.22
528.72	3992.95
528.89	3880.61
529.07	3887.63
529.24	3688.68
529.41	3648.90
529.58	3557.61
529.75	3552.93
529.92	3602.08
530.09	3681.66
530.26	3707.41
530.43	3707.41
530.60	3838.48
530.77	3899.33
530.94	3857.20
531.11	3688.68
531.28	3705.07
531.46	3782.31
531.63	3545.91
531.80	3721.45
531.97	3592.72
532.14	3623.15
532.31	3368.03
532.48	3361.01
532.65	3297.81
532.82	3398.46
532.99	3501.44
533.16	3595.06
533.33	3595.06
533.50	3674.64
533.67	3531.87
533.84	3482.72
534.01	3550.59
534.18	3538.89
534.35	3363.35
534.52	3637.19
534.69	3763.58
534.86	3588.04
535.03	3644.21
535.20	3756.56
535.37	3669.96
535.54	3648.90
535.71	3838.48
535.88	3562.30
536.05	3618.47
536.22	3452.29
536.38	3295.47
536.55	3445.27
536.72	3372.71
536.89	3461.65
537.06	3487.40
537.23	3660.60
537.40	3634.85
537.57	3517.83
537.74	3604.42
537.91	3449.95
538.08	3604.42
538.25	3566.98
538.42	3721.45
538.59	3623.15
538.75	3492.08
538.92	3503.78
539.09	3520.17
539.26	3321.22
539.43	3440.59
539.60	3403.14
539.77	3410.16
539.94	3382.07
540.11	3375.05
540.28	3243.98
540.44	3318.88
540.61	3246.32
540.78	3370.37
540.95	3403.14
541.12	3361.01
541.29	3489.74
541.46	3461.65
541.62	3475.70
541.79	3585.70
541.96	3351.65
542.13	3480.38
542.30	3590.38
542.47	3548.25
542.63	3562.30
542.80	3386.76
542.97	3407.82
543.14	3328.24
543.31	3431.23
543.48	3463.99
543.64	3578.68
543.81	3646.55
543.98	3744.86
544.15	3552.93
544.32	3461.65
544.48	3492.08
544.65	3454.63
544.82	3550.59
544.99	3517.83
545.16	3433.57
545.32	3503.78
545.49	3662.94
545.66	3557.61
545.83	3637.19
546.00	3468.67
546.16	3363.35
546.33	3426.54
546.50	3557.61
546.67	3536.55
546.83	3400.80
547.00	3375.05
547.17	3417.18
547.34	3152.70
547.50	3344.63
547.67	3358.67
547.84	3346.97
548.00	3421.86
548.17	3475.70
548.34	3361.01
548.51	3403.14
548.67	3445.27
548.84	3403.14
549.01	3489.74
549.18	3454.63
549.34	3419.52
549.51	3325.90
549.68	3211.22
549.84	3283.77
550.01	3365.69
550.18	3349.31
550.34	3255.69
550.51	3363.35
550.68	3311.86
550.84	3309.52
551.01	3173.77
551.18	3332.92
551.34	3304.84
551.51	3365.69
551.68	3297.81
551.84	3424.20
552.01	3440.59
552.18	3337.60
552.34	3232.28
552.51	3185.47
552.68	3208.87
552.84	3281.43
553.01	3328.24
553.18	3169.09
553.34	3321.22
553.51	3335.26
553.67	3281.43
553.84	3321.22
554.01	3332.92
554.17	3344.63
554.34	3403.14
554.51	3290.79
554.67	3309.52
554.84	3297.81
555.00	3208.87
555.17	3302.50
555.33	3253.34
555.50	3152.70
555.67	3325.90
555.83	3218.24
556.00	3365.69
556.16	3159.72
556.33	3307.18
556.50	3150.36
556.66	3150.36
556.83	3049.72
556.99	3122.27
557.16	3045.04
557.32	3096.53
557.49	3155.04
557.65	3178.45
557.82	3143.34
557.98	3040.36
558.15	3105.89
558.32	3000.57
558.48	2846.09
558.65	2899.92
558.81	2892.90
558.98	3026.31
559.14	3199.51
559.31	3110.57
559.47	3077.80
559.64	3103.55
559.80	3073.12
559.97	2949.08
560.13	3038.02
560.30	3075.46
560.46	3239.30
560.63	3274.41
560.79	3192.49
560.96	3164.40
561.12	2853.11
561.29	2939.71
561.45	2958.44
561.61	2977.16
561.78	3049.72
561.94	3108.23
562.11	3094.19
562.27	2991.20
562.44	3000.57
562.60	3019.29
562.77	3009.93
562.93	3094.19
563.10	3145.68
563.26	3073.12
563.42	3000.57
563.59	2909.29
563.75	3112.91
563.92	2909.29
564.08	3148.02
564.24	3108.23
564.41	3070.78
564.57	2953.76
564.74	2913.97
564.90	2881.20
565.07	2869.50
565.23	2897.58
565.39	2946.73
565.56	2913.97
565.72	2869.50
565.88	2843.75
566.05	2953.76
566.21	2913.97
566.38	2918.65
566.54	2932.69
566.70	2867.16
566.87	3005.25
567.03	2977.16
567.19	3002.91
567.36	3056.74
567.52	2782.90
567.68	2834.39
567.85	2717.36
568.01	2876.52
568.17	2888.22
568.34	2747.79
568.50	2719.70
568.66	2843.75
568.83	2864.82
568.99	2836.73
569.15	2827.37
569.32	2810.98
569.48	2771.19
569.64	2778.22
569.81	2839.07
569.97	2726.72
570.13	2691.62
570.30	2612.04
570.46	2600.34
570.62	2539.48
570.78	2502.03
570.95	2689.28
571.11	2740.77
571.27	2670.55
571.43	2761.83
571.60	2799.28
571.76	2686.94
571.92	2839.07
572.09	2703.32
572.25	2829.71
572.41	2750.13
572.57	2743.11
572.74	2822.69
572.90	2897.58
573.06	2705.66
573.22	2754.81
573.38	2740.77
573.55	2806.30
573.71	2759.49
573.87	2778.22
574.03	2729.06
574.20	2731.41
574.36	2771.19
574.52	2616.72
574.68	2548.84
574.84	2649.49
575.01	2518.42
575.17	2679.91
575.33	2544.16
575.49	2612.04
575.65	2738.43
575.82	2600.34
575.98	2679.91
576.14	2693.96
576.30	2696.30
576.46	2637.78
576.62	2745.45
576.79	2710.34
576.95	2703.32
577.11	2569.91
577.27	2630.76
577.43	2576.93
577.59	2640.12
577.75	2602.68
577.92	2499.69
578.08	2448.20
578.24	2684.59
578.40	2520.76
578.56	2544.16
578.72	2495.01
578.88	2377.98
579.04	2579.27
579.21	2544.16
579.37	2558.21
579.53	2581.61
579.69	2476.29
579.85	2597.99
580.01	2553.52
580.17	2560.55
580.33	2562.89
580.49	2581.61
580.65	2583.95
580.82	2670.55
580.98	2644.81
581.14	2574.59
581.30	2623.74
581.46	2736.09
581.62	2715.02
581.78	2569.91
581.94	2619.06
582.10	2509.05
582.26	2677.57
582.42	2560.55
582.58	2670.55
582.74	2518.42
582.90	2567.57
583.06	2537.14
583.22	2619.06
583.38	2602.68
583.54	2537.14
583.70	2562.89
583.86	2708.00
584.02	2567.57
584.18	2544.16
584.34	2506.71
584.50	2544.16
584.66	2567.57
584.82	2534.80
584.98	2504.37
585.14	2368.62
585.30	2373.30
585.46	2361.60
585.62	2363.94
585.78	2396.71
585.94	2464.58
586.10	2438.84
586.26	2448.20
586.42	2476.29
586.58	2462.24
586.74	2471.61
586.90	2448.20
587.06	2565.23
587.22	2380.32
587.38	2480.97
587.54	2340.54
587.70	2370.96
587.86	2335.85
588.02	2466.92
588.18	2377.98
588.34	2356.92
588.49	2066.69
588.65	2026.90
588.81	1907.54
588.97	1968.39
589.13	1973.07
589.29	2026.90
589.45	1980.09
589.61	2172.02
589.77	2186.06
589.93	2387.35
590.08	2310.11
590.24	2253.94
590.40	2303.09
590.56	2275.00
590.72	2221.17
590.88	2401.39
591.04	2230.53
591.20	2307.77
591.35	2246.91
591.51	2279.68
591.67	2305.43
591.83	2148.61
591.99	2279.68
592.15	2211.81
592.31	2289.04
592.46	2284.36
592.62	2244.57
592.78	2242.23
592.94	2237.55
593.10	2214.15
593.26	2249.25
593.41	2335.85
593.57	2211.81
593.73	2267.98
593.89	2207.13
594.05	2090.10
594.20	2148.61
594.36	2193.08
594.52	2071.37
594.68	2139.25
594.84	2050.31
594.99	2148.61
595.15	2235.21
595.31	2183.72
595.47	2122.87
595.62	2186.06
595.78	2204.78
595.94	2104.14
596.10	2232.87
596.25	2249.25
596.41	2235.21
596.57	2094.78
596.73	2267.98
596.88	2186.06
597.04	2232.87
597.20	2263.30
597.36	2153.29
597.51	2134.57
597.67	2223.51
597.83	2200.10
597.99	2120.53
598.14	2085.42
598.30	2017.54
598.46	2134.57
598.61	2111.16
598.77	2092.44
598.93	2214.15
599.09	2160.31
599.24	2099.46
599.40	2157.97
599.56	2179.04
599.71	2094.78
599.87	2169.68
600.03	2146.27
600.18	2134.57
600.34	2108.82
600.50	2073.71
600.65	2054.99
600.81	2115.84
600.97	2125.21
601.12	1952.01
601.28	2029.24
601.44	2015.20
601.59	1949.67
601.75	2012.86
601.91	1994.14
602.06	1944.99
602.22	2125.21
602.37	1975.41
602.53	2071.37
602.69	2115.84
602.84	2045.63
603.00	2136.91
603.16	2172.02
603.31	2101.80
603.47	2069.03
603.62	2092.44
603.78	2120.53
603.94	2047.97
604.09	2150.95
604.25	2122.87
604.40	1940.30
604.56	2106.48
604.71	2047.97
604.87	1956.69
605.03	1994.14
605.18	2003.50
605.34	2012.86
605.49	1998.82
605.65	2127.55
605.80	2097.12
605.96	2118.18
606.12	2073.71
606.27	1980.09
606.43	1942.64
606.58	2005.84
606.74	1914.56
606.89	2022.22
607.05	2071.37
607.20	1928.60
607.36	1977.75
607.51	1987.11
607.67	1886.47
607.82	1989.46
607.98	2017.54
608.13	1909.88
608.29	2005.84
608.44	1813.92
608.60	1895.83
608.75	1832.64
608.91	1949.67
609.06	1872.43
609.22	1949.67
609.37	1907.54
609.53	1877.11
609.68	1963.71
609.84	1856.04
609.99	1806.89
610.15	1902.86
610.30	1879.45
610.46	1944.99
610.61	1940.30
610.76	1900.52
610.92	1959.03
611.07	2024.56
611.23	1968.39
611.38	2033.93
611.54	1888.81
611.69	1937.96
611.84	1811.57
612.00	1818.60
612.15	1769.44
612.31	1818.60
612.46	1753.06
612.62	1881.79
612.77	1832.64
612.92	1846.68
613.08	1764.76
613.23	1874.77
613.39	1842.00
613.54	1720.29
613.69	1729.66
613.85	1863.07
614.00	1795.19
614.15	1816.26
614.31	1795.19
614.46	1806.89
614.62	1811.57
614.77	1797.53
614.92	1820.94
615.08	1661.78
615.23	1689.87
615.38	1746.04
615.54	1736.68
615.69	1664.12
615.84	1678.16
616.00	1694.55
616.15	1549.43
616.30	1666.46
616.46	1732.00
616.61	1614.97
616.76	1713.27
616.92	1542.41
617.07	1666.46
617.22	1668.80
617.37	1643.06
617.53	1687.53
617.68	1783.49
617.83	1863.07
617.99	1741.36
618.14	1743.70
618.29	1713.27
618.45	1643.06
618.60	1717.95
618.75	1654.76
618.90	1633.69
619.06	1720.29
619.21	1612.63
619.36	1617.31
619.51	1621.99
619.67	1650.08
619.82	1650.08
619.97	1764.76
620.12	1734.34
620.28	1570.50
620.43	1764.76
620.58	1792.85
620.73	1650.08
620.89	1713.27
621.04	1561.14
621.19	1659.44
621.34	1561.14
621.49	1640.72
621.65	1661.78
621.80	1657.10
621.95	1547.09
622.10	1591.56
622.25	1612.63
622.41	1645.40
622.56	1572.84
622.71	1659.44
622.86	1507.30
623.01	1678.16
623.16	1633.69
623.32	1514.33
623.47	1558.80
623.62	1586.88
623.77	1636.03
623.92	1516.67
624.07	1497.94
624.23	1495.60
624.38	1495.60
624.53	1591.56
624.68	1504.96
624.83	1504.96
624.98	1481.56
625.13	1535.39
625.29	1444.11
625.44	1472.20
625.59	1406.66
625.74	1434.75
625.89	1418.36
626.04	1511.99
626.19	1472.20
626.34	1444.11
626.49	1502.62
626.65	1299.00
626.80	1500.28
626.95	1413.68
627.10	1479.22
627.25	1497.94
627.40	1378.58
627.55	1369.21
627.70	1434.75
627.85	1280.27
628.00	1460.49
628.15	1397.30
628.30	1476.88
628.45	1406.66
628.60	1385.60
628.76	1359.85
628.91	1364.53
629.06	1350.49
629.21	1352.83
629.36	1385.60
629.51	1380.92
629.66	1284.95
629.81	1404.32
629.96	1331.76
630.11	1380.92
630.26	1418.36
630.41	1453.47
630.56	1341.13
630.71	1362.19
630.86	1401.98
631.01	1392.62
631.16	1341.13
631.31	1357.51
631.46	1315.38
631.61	1373.89
631.76	1390.28
631.91	1242.82
632.06	1390.28
632.21	1299.00
632.36	1469.86
632.51	1336.45
632.66	1362.19
632.81	1427.73
632.96	1390.28
633.10	1348.15
633.25	1306.02
633.40	1196.01
633.55	1336.45
633.70	1343.47
633.85	1275.59
634.00	1357.51
634.15	1306.02
634.30	1352.83
634.45	1378.58
634.60	1425.39
634.75	1364.53
634.90	1210.06
635.05	1252.19
635.19	1273.25
635.34	1406.66
635.49	1348.15
635.64	1341.13
635.79	1240.48
635.94	1249.85
636.09	1406.66
636.24	1303.68
636.39	1231.12
636.53	1357.51
636.68	1273.25
636.83	1219.42
636.98	1308.36
637.13	1425.39
637.28	1291.98
637.43	1369.21
637.57	1247.51
637.72	1287.29
637.87	1233.46
638.02	1231.12
638.17	1338.79
638.32	1233.46
638.46	1142.18
638.61	1228.78
638.76	1317.72
638.91	1327.08
639.06	1186.65
639.20	1231.12
639.35	1186.65
639.50	1137.50
639.65	1268.57
639.80	1130.48
639.94	1135.16
640.09	1280.27
640.24	1294.32
640.39	1116.44
640.54	1177.29
640.68	1284.95
640.83	1104.73
640.98	1167.93
641.13	1231.12
641.27	1226.44
641.42	1109.41
641.57	1109.41
641.72	1238.14
641.86	1210.06
642.01	1217.08
642.16	1345.81
642.31	1186.65
642.45	1245.16
642.60	1198.35
642.75	1191.33
642.90	1240.48
643.04	1153.88
643.19	1186.65
643.34	1235.80
643.48	1181.97
643.63	1238.14
643.78	1095.37
643.93	1160.91
644.07	1235.80
644.22	1109.41
644.37	1165.59
644.51	1203.04
644.66	1039.20
644.81	1114.10
644.95	1135.16
645.10	1172.61
645.25	1128.14
645.39	1083.67
645.54	1132.82
645.69	1167.93
645.83	1151.54
645.98	1137.50
646.13	1128.14
646.27	1015.79
646.42	1020.47
646.57	1043.88
646.71	1050.90
646.86	1100.05
647.00	1188.99
647.15	1071.97
647.30	1071.97
647.44	1022.81
647.59	1081.33
647.74	1062.60
647.88	964.30
648.03	1071.97
648.17	1090.69
648.32	1135.16
648.47	950.26
648.61	1139.84
648.76	1064.94
648.90	1118.78
649.05	1055.58
649.20	880.04
649.34	903.45
649.49	1015.79
649.63	985.37
649.78	1034.52
649.92	1043.88
650.07	1104.73
650.21	1046.22
650.36	971.32
650.51	1006.43
650.65	1137.50
650.80	1116.44
650.94	1071.97
651.09	952.60
651.23	966.64
651.38	926.85
651.52	1001.75
651.67	985.37
651.81	1074.31
651.96	983.02
652.10	1057.92
652.25	1069.62
652.39	992.39
652.54	1025.15
652.68	1071.97
652.83	1043.88
652.97	1055.58
653.12	929.19
653.26	1090.69
653.41	1130.48
653.55	1069.62
653.70	1064.94
653.84	966.64
653.99	910.47
654.13	952.60
654.27	873.02
654.42	936.21
654.56	961.96
654.71	1107.07
654.85	983.02
655.00	894.08
655.14	943.24
655.29	887.06
655.43	912.81
655.57	788.76
655.72	774.72
655.86	629.60
656.01	683.44
656.15	716.20
656.30	706.84
656.44	741.95
656.58	744.29
656.73	884.72
656.87	903.45
657.01	884.72
657.16	905.79
657.30	835.57
657.45	952.60
657.59	835.57
657.73	976.00
657.88	971.32
658.02	943.24
658.16	828.55
658.31	873.02
658.45	992.39
658.60	875.36
658.74	837.91
658.88	861.32
659.03	856.64
659.17	896.43
659.31	858.98
659.46	889.40
659.60	866.00
659.74	931.53
659.89	898.77
660.03	875.36
660.17	940.90
660.32	919.83
660.46	844.93
660.60	849.61
660.74	798.12
660.89	861.32
661.03	814.51
661.17	840.25
661.32	954.94
661.46	875.36
661.60	866.00
661.74	905.79
661.89	880.04
662.03	936.21
662.17	976.00
662.31	866.00
662.46	781.74
662.60	849.61
662.74	866.00
662.88	929.19
663.03	880.04
663.17	770.04
663.31	753.65
663.45	873.02
663.60	730.25
663.74	793.44
663.88	807.48
664.02	873.02
664.17	882.38
664.31	849.61
664.45	903.45
664.59	807.48
664.73	767.70
664.88	971.32
665.02	856.64
665.16	702.16
665.30	791.10
665.44	777.06
665.59	791.10
665.73	868.34
665.87	887.06
666.01	807.48
666.15	833.23
666.29	847.27
666.44	875.36
666.58	854.30
666.72	891.74
666.86	779.40
667.00	828.55
667.14	821.53
667.28	760.67
667.43	770.04
667.57	770.04
667.71	718.54
667.85	887.06
667.99	826.21
668.13	741.95
668.27	709.18
668.41	744.29
668.56	772.38
668.70	711.52
668.84	774.72
668.98	690.46
669.12	737.27
669.26	730.25
669.40	816.85
669.54	758.33
669.68	774.72
669.82	723.23
669.96	711.52
670.10	737.27
670.25	681.10
670.39	711.52
670.53	791.10
670.67	739.61
670.81	634.29
670.95	685.78
671.09	587.47
671.23	543.00
671.37	720.88
671.51	695.14
671.65	765.36
671.79	730.25
671.93	688.12
672.07	741.95
672.21	648.33
672.35	650.67
672.49	704.50
672.63	681.10
672.77	737.27
672.91	681.10
673.05	657.69
673.19	695.14
673.33	573.43
673.47	674.07
673.61	634.29
673.75	725.57
673.89	657.69
674.03	650.67
674.17	681.10
674.31	685.78
674.45	655.35
674.59	589.82
674.73	596.84
674.87	683.44
675.01	608.54
675.15	601.52
675.29	610.88
675.43	603.86
675.56	622.58
675.70	596.84
675.84	650.67
675.98	587.47
676.12	592.16
676.26	601.52
676.40	620.24
676.54	664.71
676.68	608.54
676.82	676.41
676.96	587.47
677.10	653.01
677.23	578.11
677.37	594.50
677.51	554.71
677.65	559.39
677.79	554.71
677.93	601.52
678.07	554.71
678.21	669.39
678.34	589.82
678.48	550.03
678.62	594.50
678.76	538.32
678.90	507.90
679.04	491.51
679.18	472.79
679.31	603.86
679.45	531.30
679.59	557.05
679.73	587.47
679.87	407.25
680.00	514.92
680.14	554.71
680.28	463.43
680.42	571.09
680.56	489.17
680.70	491.51
680.83	524.28
680.97	500.87
681.11	397.89
681.25	505.56
681.39	500.87
681.52	519.60
681.66	512.58
681.80	409.59
681.94	543.00
682.07	528.96
682.21	440.02
682.35	479.81
682.49	397.89
682.62	409.59
682.76	428.32
682.90	482.15
683.04	526.62
683.17	475.13
683.31	477.47
683.45	454.06
683.59	444.70
683.72	381.51
683.86	442.36
684.00	433.00
684.13	433.00
684.27	472.79
684.41	411.93
684.55	472.79
684.68	435.34
684.82	486.83
684.96	500.87
685.09	484.49
685.23	507.90
685.37	456.40
685.50	500.87
685.64	372.15
685.78	358.10
685.91	435.34
686.05	341.72
686.19	376.83
686.32	365.12
686.46	262.14
686.60	238.73
686.73	163.84
686.87	196.60
687.01	147.45
687.14	142.77
687.28	215.33
687.42	224.69
687.55	257.46
687.69	280.86
687.82	294.91
687.96	252.78
688.10	224.69
688.23	294.91
688.37	250.44
688.50	238.73
688.64	269.16
688.78	196.60
688.91	299.59
689.05	276.18
689.18	201.29
689.32	287.89
689.46	365.12
689.59	285.55
689.73	215.33
689.86	290.23
690.00	285.55
690.13	287.89
690.27	280.86
690.41	255.12
690.54	248.10
690.68	243.42
690.81	257.46
690.95	196.60
691.08	222.35
691.22	238.73
691.35	269.16
691.49	234.05
691.62	301.93
691.76	234.05
691.89	220.01
692.03	215.33
692.16	212.99
692.30	287.89
692.43	212.99
692.57	257.46
692.70	177.88
692.84	227.03
692.97	166.18
693.11	292.57
693.24	212.99
693.38	222.35
693.51	318.31
693.65	191.92
693.78	110.01
693.92	182.56
694.05	112.35
694.19	217.67
694.32	177.88
694.45	234.05
694.59	152.13
694.72	156.82
694.86	191.92
694.99	140.43
695.13	135.75
695.26	201.29
695.39	182.56
695.53	184.90
695.66	126.39
695.80	182.56
695.93	112.35
696.07	168.52
696.20	133.41
696.33	152.13
696.47	191.92
696.60	257.46
696.73	280.86
696.87	159.16
697.00	203.63
697.14	177.88
697.27	208.31
697.40	208.31
697.54	220.01
697.67	140.43
697.80	161.50
697.94	184.90
698.07	205.97
698.21	205.97
698.34	203.63
698.47	184.90
698.61	163.84
698.74	184.90
698.87	187.24
699.01	217.67
699.14	145.11
699.27	114.69
699.40	117.03
699.54	184.90
699.67	140.43
699.80	128.73
699.94	88.94
700.07	177.88
700.20	23.41
700.34	119.37
700.47	124.05
700.60	145.11
700.73	98.30
700.87	177.88
701.00	77.24
701.13	51.49
701.26	32.77
701.40	79.58
701.53	74.90
701.66	140.43
701.79	140.43
701.93	170.86
702.06	110.01
702.19	117.03
702.32	166.18
702.46	140.43
702.59	105.32
702.72	107.66
702.85	0.00
702.99	77.24
703.12	86.60
703.25	32.77
703.38	203.63
703.51	105.32
703.65	91.28
703.78	196.60
703.91	105.32
704.04	63.19
704.17	77.24
704.31	81.92
704.44	142.77
704.57	65.54
704.70	159.16
704.83	84.26
704.96	72.56
705.10	105.32
705.23	126.39
>>>>>End Processed Spectral Data<<<<<
