SpectraSuite Data File
++++++++++++++++++++++++++++++++++++
Date: Mon Oct 07 14:55:00 GMT-05:00 2013
User: price-jones
Dark Spectrum Present: No
Reference Spectrum Present: No
Number of Sampled Component Spectra: 1
Spectrometers: USB2+H05261
Integration Time (usec): 10000 (USB2+H05261)
Spectra Averaged: 1 (USB2+H05261)
Boxcar Smoothing: 0 (USB2+H05261)
Correct for Electrical Dark: No (USB2+H05261)
Strobe/Lamp Enabled: No (USB2+H05261)
Correct for Detector Non-linearity: No (USB2+H05261)
Correct for Stray Light: No (USB2+H05261)
Number of Pixels in Processed Spectrum: 2048
>>>>>Begin Processed Spectral Data<<<<<
365.73	0.00
365.92	0.00
366.12	0.00
366.32	0.00
366.52	0.00
366.72	0.00
366.91	0.00
367.11	0.00
367.31	0.00
367.51	0.00
367.70	0.00
367.90	0.00
368.10	0.00
368.30	0.00
368.49	0.00
368.69	0.00
368.89	0.00
369.09	0.00
369.28	0.00
369.48	0.00
369.68	0.00
369.87	0.00
370.07	0.00
370.27	0.00
370.47	88.94
370.66	1455.81
370.86	1661.78
371.06	1853.70
371.25	1727.32
371.45	1568.16
371.65	1392.62
371.84	1355.17
372.04	1458.15
372.24	1678.16
372.44	1783.49
372.63	1692.21
372.83	1533.05
373.03	1322.40
373.22	1212.40
373.42	1453.47
373.62	1717.95
373.81	1727.32
374.01	1659.44
374.21	1612.63
374.40	1366.87
374.60	1584.54
374.79	1715.61
374.99	2193.08
375.19	2099.46
375.38	2118.18
375.58	2054.99
375.78	1881.79
375.97	1968.39
376.17	2118.18
376.37	2047.97
376.56	2129.89
376.76	2235.21
376.95	2466.92
377.15	2677.57
377.35	2754.81
377.54	2855.45
377.74	2937.37
377.93	2862.48
378.13	2743.11
378.33	2504.37
378.52	2452.88
378.72	2340.54
378.91	2324.15
379.11	2118.18
379.31	2179.04
379.50	2188.40
379.70	2443.52
379.89	2700.98
380.09	2750.13
380.28	2754.81
380.48	2726.72
380.68	2785.24
380.87	2635.44
381.07	2513.74
381.26	2342.88
381.46	2062.01
381.65	2062.01
381.85	2015.20
382.04	1907.54
382.24	1804.55
382.43	1680.50
382.63	1582.20
382.83	1533.05
383.02	1692.21
383.22	1612.63
383.41	1638.38
383.61	1832.64
383.80	2024.56
384.00	2450.54
384.19	2768.85
384.39	2822.69
384.58	2895.24
384.78	2722.04
384.97	2733.75
385.17	2548.84
385.36	2434.16
385.56	2375.64
385.75	2537.14
385.95	2754.81
386.14	3000.57
386.34	2913.97
386.53	2656.51
386.72	2586.29
386.92	2530.12
387.11	2761.83
387.31	2895.24
387.50	2818.00
387.70	2740.77
387.89	2801.62
388.09	2715.02
388.28	2818.00
388.48	2829.71
388.67	3155.04
388.86	3611.45
389.06	3796.35
389.25	3641.87
389.45	3803.37
389.64	3772.94
389.84	3688.68
390.03	3559.95
390.22	3779.97
390.42	3913.38
390.61	4271.48
390.81	4447.02
391.00	4456.38
391.19	4219.99
391.39	4201.26
391.58	3948.48
391.78	3791.67
391.97	3702.73
392.16	3520.17
392.36	2979.50
392.55	2282.02
392.75	1802.21
392.94	1495.60
393.13	1661.78
393.33	2022.22
393.52	2630.76
393.71	3052.06
393.91	3456.97
394.10	3686.34
394.29	4159.13
394.49	4533.62
394.68	4744.27
394.88	4791.08
395.07	4943.21
395.26	4842.57
395.46	4472.76
395.65	4203.60
395.84	3641.87
396.04	2981.84
396.23	2450.54
396.42	2111.16
396.62	2069.03
396.81	2661.19
397.00	3386.76
397.19	4315.95
397.39	5006.41
397.58	5502.60
397.77	5809.21
397.97	6043.26
398.16	6043.26
398.35	6260.93
398.55	6342.85
398.74	6724.36
398.93	6651.80
399.12	6780.53
399.32	6607.33
399.51	6619.04
399.70	7110.55
399.90	6932.67
400.09	6965.43
400.28	6806.28
400.47	7002.88
400.67	7410.14
400.86	7522.48
401.05	7573.97
401.24	7557.59
401.44	7728.45
401.63	7618.44
401.82	7679.30
402.01	7749.51
402.21	7562.27
402.40	7716.75
402.59	7588.02
402.78	7063.74
402.97	7082.46
403.17	7396.09
403.36	7838.45
403.55	8002.29
403.74	7999.95
403.93	7496.74
404.13	7030.97
404.32	7531.84
404.51	7623.12
404.70	8009.31
404.89	7929.74
405.09	7925.05
405.28	7665.25
405.47	7571.63
405.66	7606.74
405.85	7267.36
406.05	7143.32
406.24	7370.35
406.43	7459.29
406.62	8035.06
406.81	8006.97
407.00	7604.40
407.20	7314.17
407.39	7538.87
407.58	8091.23
407.77	8276.13
407.96	8779.35
408.15	8723.18
408.34	8615.51
408.54	9046.17
408.73	8990.00
408.92	9076.60
409.11	8638.92
409.30	8294.86
409.49	7517.80
409.68	7239.28
409.87	7178.42
410.07	7838.45
410.26	8175.49
410.45	8655.30
410.64	9032.13
410.83	9158.52
411.02	9472.15
411.21	9355.12
411.40	9476.83
411.59	9554.07
411.78	9589.17
411.98	9748.33
412.17	9483.85
412.36	9565.77
412.55	9596.20
412.74	9259.16
412.93	9179.58
413.12	9455.76
413.31	10106.43
413.50	10136.86
413.69	10223.46
413.88	9554.07
414.07	9795.14
414.26	9809.19
414.45	10022.17
414.64	10043.24
414.83	10221.12
415.02	9930.89
415.22	9750.67
415.41	10438.79
415.60	10630.71
415.79	11094.14
415.98	11012.22
416.17	11171.38
416.36	10820.30
416.55	10492.62
416.74	10476.24
416.93	9998.77
417.12	10047.92
417.31	10174.31
417.50	10583.90
417.69	10855.40
417.88	10691.57
418.07	10595.61
418.26	10422.41
418.45	10611.99
418.64	11360.96
418.83	11648.85
419.02	11122.23
419.21	10736.04
419.39	10413.04
419.58	10171.97
419.77	10317.08
419.96	10719.65
420.15	11164.36
420.34	11735.45
420.53	11850.13
420.72	11948.43
420.91	11669.91
421.10	11461.60
421.29	11857.15
421.48	11522.46
421.67	12100.57
421.86	11087.12
422.05	10462.19
422.24	9776.42
422.43	9975.36
422.61	11082.44
422.80	11627.78
422.99	11400.75
423.18	11014.56
423.37	10834.34
423.56	11037.97
423.75	11063.71
423.94	11452.24
424.13	10546.45
424.32	10712.63
424.50	10860.09
424.69	10918.60
424.88	10642.42
425.07	10864.77
425.26	10813.28
425.45	10595.61
425.64	10296.02
425.83	10836.68
426.01	11077.76
426.20	11367.98
426.39	11379.68
426.58	10092.39
426.77	9561.09
426.96	9493.21
427.15	9844.29
427.33	10782.85
427.52	10537.09
427.71	10918.60
427.90	11033.29
428.09	10574.54
428.28	10434.11
428.46	9951.96
428.65	10139.20
428.84	10427.09
429.03	10338.15
429.22	9921.53
429.40	9153.84
429.59	8386.14
429.78	7541.21
429.97	7646.53
430.16	7426.52
430.34	7494.40
430.53	7772.92
430.72	8168.47
430.91	9071.92
431.10	10672.84
431.28	12470.37
431.47	13135.09
431.66	12975.93
431.85	11648.85
432.03	10785.19
432.22	10658.80
432.41	11162.01
432.60	12343.99
432.79	12692.73
432.97	12746.56
433.16	12182.49
433.35	11108.18
433.54	9778.76
433.72	9848.97
433.91	10237.50
434.10	11599.70
434.28	12341.64
434.47	12648.26
434.66	12411.86
434.85	12273.77
435.03	12238.66
435.22	12379.09
435.41	13097.64
435.59	13355.10
435.78	13221.69
435.97	13825.54
436.16	13764.69
436.34	13327.01
436.53	13465.10
436.72	13591.49
436.90	12573.36
437.09	12758.26
437.28	12556.97
437.46	12973.59
437.65	12599.10
437.84	11389.05
438.02	11115.20
438.21	11183.08
438.40	11403.09
438.58	12713.79
438.77	13011.04
438.96	12924.44
439.14	13568.09
439.33	13579.79
439.52	13717.88
439.70	13481.49
439.89	13020.40
440.08	12943.16
440.26	13179.56
440.45	13902.78
440.63	14824.95
440.82	15222.84
441.01	14658.78
441.19	14675.16
441.38	15187.74
441.57	15515.41
441.75	15655.84
441.94	15793.94
442.12	15660.52
442.31	16105.23
442.50	16060.76
442.68	15672.23
442.87	15719.04
443.05	15337.53
443.24	15536.48
443.43	16067.78
443.61	16329.92
443.80	16409.50
443.98	15459.24
444.17	15641.80
444.35	16444.60
444.54	16819.09
444.73	16334.60
444.91	15674.57
445.10	14941.98
445.28	14284.29
445.47	14281.95
445.65	14586.22
445.84	14834.32
446.02	15536.48
446.21	15866.49
446.39	15487.32
446.58	15826.70
446.77	16142.67
446.95	16135.65
447.14	16741.85
447.32	17085.91
447.51	16355.66
447.69	16081.82
447.88	15894.58
448.06	16610.78
448.25	16423.54
448.43	16634.19
448.62	16613.12
448.80	16285.45
448.99	16208.21
449.17	16306.51
449.36	16505.46
449.54	16901.01
449.73	17350.39
449.91	17767.01
450.10	17958.93
450.28	18036.17
450.46	18244.48
450.65	18146.17
450.83	17685.09
451.02	17572.74
451.20	17476.78
451.39	17692.11
451.57	17465.08
451.76	17172.51
451.94	17441.67
452.13	16896.33
452.31	15719.04
452.49	14951.34
452.68	15716.70
452.86	15396.04
453.05	16098.20
453.23	16982.93
453.42	17055.48
453.60	16882.28
453.78	17151.45
453.97	16648.23
454.15	16905.69
454.34	16095.86
454.52	16659.93
454.70	16512.48
454.89	16348.64
455.07	16706.74
455.26	17357.41
455.44	17610.19
455.62	17778.71
455.81	17916.80
455.99	17734.24
456.17	17884.03
456.36	18251.50
456.54	18448.10
456.73	18211.71
456.91	18515.98
457.09	18703.22
457.28	19433.47
457.46	18324.05
457.64	17860.63
457.83	17341.03
458.01	17315.28
458.19	18127.45
458.38	17907.44
458.56	18272.56
458.74	18295.97
458.93	17947.23
459.11	17769.35
459.29	17853.61
459.48	17809.14
459.66	17366.78
459.84	17937.87
460.03	18354.48
460.21	18686.84
460.39	19047.28
460.57	18635.35
460.76	18724.29
460.94	18703.22
461.12	18637.69
461.31	18560.45
461.49	19012.17
461.67	18785.14
461.85	19117.50
462.04	19353.89
462.22	19396.02
462.40	19351.55
462.59	19323.46
462.77	19066.00
462.95	19037.92
463.13	18724.29
463.32	18750.03
463.50	18698.54
463.68	18867.06
463.86	18663.43
464.05	18494.91
464.23	17881.69
464.41	17919.14
464.59	17586.79
464.78	18984.09
464.96	18647.05
465.14	18518.32
465.32	18897.49
465.50	19222.82
465.69	19548.15
465.87	19417.08
466.05	18469.17
466.23	17429.97
466.41	17336.35
466.60	18368.52
466.78	17886.37
466.96	18387.25
467.14	18129.79
467.32	18487.89
467.51	18743.01
467.69	17729.56
467.87	18150.85
468.05	18958.34
468.23	18824.93
468.41	18759.39
468.60	18588.53
468.78	18878.76
468.96	18558.11
469.14	18932.59
469.32	19105.79
469.50	18075.96
469.69	18075.96
469.87	17748.28
470.05	17830.20
470.23	18099.36
470.41	18466.83
470.59	18333.42
470.77	18279.58
470.95	19154.94
471.14	19157.28
471.32	19112.81
471.50	19974.13
471.68	19946.05
471.86	20177.76
472.04	20692.68
472.22	20102.86
472.40	18981.74
472.58	19070.68
472.77	19309.42
472.95	19510.71
473.13	19927.32
473.31	19688.59
473.49	19702.63
473.67	20077.12
473.85	19899.23
474.03	20737.15
474.21	21041.42
474.39	20964.18
474.57	20814.38
474.75	21043.76
474.93	20945.45
475.12	20542.88
475.30	20180.10
475.48	19976.47
475.66	20570.97
475.84	20189.46
476.02	20133.29
476.20	19594.96
476.38	20573.31
476.56	21156.10
476.74	21521.23
476.92	21315.26
477.10	21869.97
477.28	22431.69
477.46	22309.99
477.64	22366.16
477.82	22998.10
478.00	23335.14
478.18	22286.58
478.36	22277.22
478.54	22757.03
478.72	23105.77
478.90	23836.02
479.08	24215.18
479.26	24088.79
479.44	24276.04
479.62	23517.70
479.80	23482.59
479.98	23892.19
480.16	24290.08
480.34	23718.99
480.52	24629.46
480.70	24673.93
480.88	24650.52
481.06	25284.81
481.24	24566.26
481.41	25453.33
481.59	25839.51
481.77	25539.93
481.95	25933.14
482.13	25558.65
482.31	25589.08
482.49	26106.34
482.67	26199.96
482.85	26272.51
483.03	26775.73
483.21	26906.80
483.39	26986.38
483.57	25525.88
483.74	25532.90
483.92	26012.71
484.10	25965.90
484.28	26527.63
484.46	27040.21
484.64	26515.93
484.82	26614.23
485.00	26462.10
485.18	25439.28
485.35	24627.12
485.53	22410.63
485.71	20264.36
485.89	20837.79
486.07	22080.61
486.25	24416.47
486.43	25532.90
486.61	25649.93
486.78	26019.74
486.96	26525.29
487.14	27295.33
487.32	27550.45
487.50	28217.50
487.68	28758.16
487.85	29628.84
488.03	29827.79
488.21	29273.08
488.39	28535.81
488.57	28056.00
488.75	27901.53
488.92	29406.49
489.10	30969.97
489.28	31583.19
489.46	32575.58
489.64	31847.67
489.81	32559.19
489.99	32060.66
490.17	32339.18
490.35	32512.38
490.53	31400.63
490.70	31131.47
490.88	30916.14
491.06	32313.44
491.24	32128.53
491.41	30466.75
491.59	28973.49
491.77	28741.78
491.95	30352.07
492.13	31665.11
492.30	32673.88
492.48	34127.35
492.66	34312.25
492.84	33502.43
493.01	33720.10
493.19	32917.29
493.37	33163.05
493.54	33570.30
493.72	34579.07
493.90	34602.48
494.08	34691.42
494.25	35604.23
494.43	35775.09
494.61	36320.43
494.79	36039.57
494.96	36493.63
495.14	34761.64
495.32	34103.95
495.49	34522.90
495.67	35590.19
495.85	36671.51
496.02	37558.58
496.20	36196.38
496.38	35819.56
496.55	36039.57
496.73	36512.36
496.91	36655.13
497.09	38143.71
497.26	37500.06
497.44	37090.47
497.62	36322.77
497.79	35440.39
497.97	34370.77
498.14	34778.02
498.32	36961.74
498.50	37528.15
498.67	37200.47
498.85	37890.93
499.03	37415.80
499.20	37806.67
499.38	38068.81
499.56	37457.93
499.73	36388.31
499.91	35880.41
500.08	35204.00
500.26	34632.91
500.44	35456.78
500.61	36456.18
500.79	36336.82
500.97	34841.21
501.14	34881.00
501.32	34773.34
501.49	35463.80
501.67	36168.30
501.84	36318.09
502.02	36568.53
502.20	37282.39
502.37	37542.19
502.55	37476.66
502.72	37687.31
502.90	38281.80
503.07	37345.59
503.25	36825.99
503.43	35981.06
503.60	35269.53
503.78	34637.59
503.95	35861.69
504.13	37390.06
504.30	38553.30
504.48	37907.32
504.65	37160.69
504.83	37209.84
505.01	38213.93
505.18	38305.21
505.36	38815.44
505.53	39559.73
505.71	40135.51
505.88	40821.28
506.06	39859.32
506.23	39271.85
506.41	38796.72
506.58	38841.19
506.76	38246.69
506.93	38478.41
507.11	37516.45
507.28	38232.65
507.46	37998.60
507.63	37457.93
507.81	36339.16
507.98	37069.40
508.16	38080.52
508.33	39463.77
508.50	39250.78
508.68	39854.64
508.85	40594.25
509.03	40191.68
509.20	40009.12
509.38	38134.35
509.55	37895.61
509.73	38878.64
509.90	38698.42
510.08	37935.40
510.25	38464.36
510.42	37727.10
510.60	38850.55
510.77	39725.91
510.95	41081.08
511.12	40116.78
511.30	41607.70
511.47	40058.27
511.64	40247.85
511.82	39414.62
511.99	38892.68
512.17	38813.10
512.34	38557.99
512.51	38227.97
512.69	37783.27
512.86	38143.71
513.04	39653.36
513.21	39098.65
513.38	37708.37
513.56	36327.45
513.73	36135.53
513.90	37022.59
514.08	36767.48
514.25	37663.90
514.43	38197.54
514.60	38099.24
514.77	37249.63
514.95	39154.82
515.12	38651.61
515.29	38789.70
515.47	38876.30
515.64	40172.96
515.81	39360.79
515.99	37816.04
516.16	35147.82
516.33	32472.59
516.51	32613.02
516.68	30778.04
516.85	30843.58
517.03	32177.68
517.20	35131.44
517.37	37654.54
517.54	38359.04
517.72	36659.81
517.89	33755.21
518.06	32929.00
518.24	33397.10
518.41	35384.22
518.58	38108.60
518.75	37970.51
518.93	36783.86
519.10	37551.56
519.27	37464.96
519.45	38398.83
519.62	38508.83
519.79	39093.97
519.96	39398.24
520.14	38223.29
520.31	36856.42
520.48	37647.52
520.65	38195.20
520.83	39700.17
521.00	39936.56
521.17	39082.27
521.34	39356.11
521.52	39559.73
521.69	39215.68
521.86	39597.18
522.03	39484.84
522.20	37972.85
522.38	36957.06
522.55	37816.04
522.72	37809.01
522.89	37394.74
523.07	37839.44
523.24	38408.19
523.41	40128.48
523.58	39449.73
523.75	39913.16
523.92	40765.11
524.10	40360.20
524.27	40072.31
524.44	40268.92
524.61	39592.50
524.78	39098.65
524.96	38895.02
525.13	38562.67
525.30	39316.32
525.47	40259.55
525.64	40725.32
525.81	38955.88
525.98	36442.14
526.16	36247.88
526.33	34040.75
526.50	33273.06
526.67	33186.46
526.84	34562.69
527.01	36353.20
527.18	37397.08
527.36	38611.82
527.53	38820.13
527.70	38646.93
527.87	37855.82
528.04	38810.76
528.21	38866.94
528.38	40910.22
528.55	41659.20
528.72	41914.31
528.89	41865.16
529.07	41174.70
529.24	38733.53
529.41	38480.75
529.58	39000.35
529.75	38742.89
529.92	39871.03
530.09	39880.39
530.26	40816.60
530.43	41193.43
530.60	41081.08
530.77	40648.08
530.94	40945.33
531.11	39651.02
531.28	39325.68
531.46	38749.91
531.63	39126.74
531.80	38944.17
531.97	37694.33
532.14	37092.81
532.31	35920.20
532.48	37008.55
532.65	36376.61
532.82	36943.02
532.99	38967.58
533.16	39508.24
533.33	39452.07
533.50	37743.48
533.67	38356.70
533.84	38515.86
534.01	38204.56
534.18	38738.21
534.35	39250.78
534.52	38490.11
534.69	39470.79
534.86	40076.99
535.03	39126.74
535.20	40177.64
535.37	40636.38
535.54	40662.13
535.71	40921.93
535.88	39981.03
536.05	38967.58
536.22	38284.14
536.38	37965.83
536.55	36282.98
536.72	36732.37
536.89	36950.04
537.06	37584.32
537.23	39133.76
537.40	39917.84
537.57	39669.74
537.74	39122.05
537.91	39496.54
538.08	38810.76
538.25	38307.55
538.42	39220.36
538.59	38740.55
538.75	37535.17
538.92	37296.44
539.09	38309.89
539.26	37860.51
539.43	37139.62
539.60	37221.54
539.77	38794.38
539.94	37507.08
540.11	35906.16
540.28	35498.91
540.44	35145.48
540.61	36587.25
540.78	37586.66
540.95	38705.44
541.12	37750.50
541.29	37855.82
541.46	38202.22
541.62	38469.04
541.79	39498.88
541.96	38068.81
542.13	36598.96
542.30	36414.05
542.47	37230.90
542.63	36879.82
542.80	37118.56
542.97	37750.50
543.14	36900.89
543.31	37146.64
543.48	38106.26
543.64	38218.61
543.81	39002.69
543.98	39014.39
544.15	37830.08
544.32	37127.92
544.48	37668.58
544.65	38438.62
544.82	38794.38
544.99	37422.83
545.16	37600.71
545.32	36893.86
545.49	38810.76
545.66	37897.95
545.83	36816.63
546.00	36844.71
546.16	37258.99
546.33	37530.49
546.50	37191.11
546.67	38602.46
546.83	37420.48
547.00	37603.05
547.17	36521.72
547.34	35803.17
547.50	36285.33
547.67	37174.73
547.84	36638.75
548.00	37544.53
548.17	37324.52
548.34	37104.51
548.51	37308.14
548.67	38337.98
548.84	38373.08
549.01	38504.15
549.18	37666.24
549.34	37544.53
549.51	37198.13
549.68	38426.92
549.84	37624.11
550.01	36512.36
550.18	36825.99
550.34	36814.29
550.51	36549.81
550.68	36788.54
550.84	36861.10
551.01	36407.03
551.18	37001.53
551.34	37563.26
551.51	36598.96
551.68	37647.52
551.84	38256.06
552.01	37729.44
552.18	36954.72
552.34	36577.89
552.51	36552.15
552.68	36781.52
552.84	37113.87
553.01	36545.12
553.18	36175.32
553.34	36444.48
553.51	36818.97
553.67	36582.57
553.84	36215.11
554.01	36896.20
554.17	36636.41
554.34	37174.73
554.51	36095.74
554.67	36030.21
554.84	37036.64
555.00	36666.83
555.17	36865.78
555.33	36158.94
555.50	36652.79
555.67	35920.20
555.83	34841.21
556.00	34323.96
556.16	35086.97
556.33	34677.38
556.50	35875.73
556.66	35473.16
556.83	35917.86
556.99	35639.34
557.16	35175.91
557.32	35747.00
557.49	36121.49
557.65	36151.91
557.82	36271.28
557.98	35730.62
558.15	35639.34
558.32	34525.24
558.48	33326.89
558.65	33376.04
558.81	32456.21
558.98	33134.96
559.14	34560.35
559.31	35260.17
559.47	34218.63
559.64	32840.06
559.80	32390.67
559.97	33699.03
560.13	34876.32
560.30	35161.87
560.46	35969.35
560.63	36580.23
560.79	36823.65
560.96	34878.66
561.12	33729.46
561.29	33137.30
561.45	32779.20
561.61	33130.28
561.78	33411.15
561.94	34153.10
562.11	34361.40
562.27	34991.01
562.44	34946.54
562.60	35229.74
562.77	35775.09
562.93	34995.69
563.10	33783.29
563.26	33823.08
563.42	34106.29
563.59	33186.46
563.75	33039.00
563.92	33687.33
564.08	34054.79
564.24	33509.45
564.41	33270.72
564.57	34539.29
564.74	33275.40
564.90	33125.60
565.07	33493.07
565.23	32414.08
565.39	31821.92
565.56	32142.58
565.72	31592.55
565.88	31529.36
566.05	32713.67
566.21	33598.39
566.38	32390.67
566.54	32889.21
566.70	33532.86
566.87	33970.54
567.03	33001.55
567.19	32826.01
567.36	33387.74
567.52	32711.33
567.68	32980.49
567.85	32044.27
568.01	31147.85
568.17	32027.89
568.34	32760.48
568.50	32402.38
568.66	33277.74
568.83	32488.98
568.99	32355.57
569.15	32713.67
569.32	33329.23
569.48	32287.69
569.64	31213.38
569.81	32084.06
569.97	31716.60
570.13	32512.38
570.30	31534.04
570.46	30944.22
570.62	30125.04
570.78	30354.41
570.95	31761.07
571.11	31952.99
571.27	32091.09
571.43	31761.07
571.60	31606.59
571.76	32189.39
571.92	32311.10
572.09	31995.12
572.25	32521.74
572.41	33642.86
572.57	33532.86
572.74	33783.29
572.90	32940.70
573.06	32367.27
573.22	31035.50
573.38	30895.07
573.55	31775.11
573.71	30663.36
573.87	31206.36
574.03	31461.48
574.20	31618.30
574.36	31445.10
574.52	32861.12
574.68	30703.15
574.84	30230.36
575.01	30349.73
575.17	30394.20
575.33	30799.11
575.49	30157.80
575.65	30845.92
575.82	31260.20
575.98	30321.64
576.14	30476.12
576.30	30335.68
576.46	30672.72
576.62	31157.21
576.79	31117.42
576.95	30431.65
577.11	29404.15
577.27	30574.42
577.43	30995.71
577.59	30258.45
577.75	30291.21
577.92	28929.02
578.08	28961.79
578.24	29589.05
578.40	29371.38
578.56	29619.48
578.72	30000.99
578.88	29647.57
579.04	30143.76
579.21	30293.55
579.37	30141.42
579.53	30684.42
579.69	31789.16
579.85	30651.66
580.01	29844.17
580.17	29914.39
580.33	30148.44
580.49	30312.28
580.65	29010.94
580.82	29771.61
580.98	30221.00
581.14	30522.93
581.30	30267.81
581.46	29766.93
581.62	29886.30
581.78	29532.88
581.94	30520.59
582.10	30918.48
582.26	30742.94
582.42	30169.51
582.58	30038.44
582.74	30352.07
582.90	30885.71
583.06	30663.36
583.22	29998.65
583.38	31192.32
583.54	30005.67
583.70	30321.64
583.86	30017.37
584.02	30347.39
584.18	30696.13
584.34	30155.46
584.50	29692.04
584.66	29546.92
584.82	29425.22
584.98	29834.81
585.14	28814.34
585.30	29275.42
585.46	28643.48
585.62	28297.08
585.78	29209.89
585.94	29081.16
586.10	28011.53
586.26	28489.00
586.42	29053.07
586.58	28945.41
586.74	29720.12
586.90	29249.67
587.06	29275.42
587.22	29378.40
587.38	28996.90
587.54	28341.55
587.70	27934.29
587.86	27140.85
588.02	26761.69
588.18	27463.85
588.34	25373.75
588.49	24680.95
588.65	23630.05
588.81	24212.84
588.97	23393.65
589.13	24002.19
589.29	23730.69
589.45	24355.61
589.61	25025.01
589.77	26256.13
589.93	26221.02
590.08	26190.59
590.24	27087.02
590.40	26307.62
590.56	26450.39
590.72	26656.36
590.88	26305.28
591.04	26441.03
591.20	26050.16
591.35	25916.75
591.51	26146.12
591.67	27524.70
591.83	26209.32
591.99	26160.17
592.15	26593.17
592.31	26663.38
592.46	26001.01
592.62	26553.38
592.78	27098.72
592.94	27166.60
593.10	27103.40
593.26	26988.72
593.41	26361.45
593.57	25647.59
593.73	26256.13
593.89	26417.63
594.05	25935.48
594.20	25895.69
594.36	25638.23
594.52	24989.90
594.68	25017.99
594.84	25729.51
594.99	26118.04
595.15	24943.09
595.31	25340.98
595.47	26342.73
595.62	26328.69
595.78	26019.74
595.94	26920.84
596.10	24903.30
596.25	25226.29
596.41	25738.87
596.57	26412.95
596.73	26108.68
596.88	26307.62
597.04	25336.30
597.20	24917.34
597.36	25055.43
597.51	25266.08
597.67	25247.36
597.83	25338.64
597.99	25212.25
598.14	24702.01
598.30	24348.59
598.46	24783.93
598.61	25083.52
598.77	24980.54
598.93	24498.39
599.09	25027.35
599.24	26452.73
599.40	24812.02
599.56	25345.66
599.71	25132.67
599.87	24996.92
600.03	24559.24
600.18	24432.85
600.34	23730.69
600.50	24816.70
600.65	24603.71
600.81	24580.31
600.97	24795.64
601.12	24226.89
601.28	23896.87
601.44	24070.07
601.59	25296.51
601.75	23793.89
601.91	23623.03
602.06	24620.10
602.22	24577.97
602.37	24510.09
602.53	25017.99
602.69	25476.73
602.84	25261.40
603.00	24992.24
603.16	25764.62
603.31	25631.21
603.47	24582.65
603.62	24828.40
603.78	24790.95
603.94	24074.75
604.09	24638.82
604.25	25179.48
604.40	24556.90
604.56	25092.88
604.71	26469.12
604.87	25825.47
605.03	25523.54
605.18	25116.29
605.34	24833.08
605.49	24063.05
605.65	24702.01
605.80	24166.03
605.96	24528.81
606.12	24343.91
606.27	25062.46
606.43	23964.75
606.58	23784.52
606.74	24584.99
606.89	24395.40
607.05	24168.37
607.20	23510.68
607.36	23833.68
607.51	23920.28
607.67	23868.78
607.82	23761.12
607.98	23220.45
608.13	23372.59
608.29	23608.98
608.44	23407.70
608.60	23922.62
608.75	22607.23
608.91	23562.17
609.06	24123.90
609.22	24329.87
609.37	24027.94
609.53	24013.90
609.68	22906.82
609.84	22272.54
609.99	23030.87
610.15	22010.40
610.30	23391.31
610.46	23159.60
610.61	23206.41
610.76	23077.68
610.92	22291.26
611.07	23227.48
611.23	23065.98
611.38	23786.86
611.54	23704.95
611.69	22888.10
611.84	22827.24
612.00	22153.17
612.15	22178.92
612.31	22525.32
612.46	22412.97
612.62	22766.39
612.77	22857.67
612.92	22841.29
613.08	22342.75
613.23	21582.08
613.39	21493.14
613.54	21198.23
613.69	21947.20
613.85	22792.14
614.00	22565.10
614.15	22199.98
614.31	22885.76
614.46	22824.90
614.62	22050.19
614.77	21198.23
614.92	21729.53
615.08	22204.66
615.23	21336.32
615.38	21598.46
615.54	21338.66
615.69	20334.57
615.84	20023.28
616.00	20486.71
616.15	20830.77
616.30	20489.05
616.46	20442.24
616.61	21008.65
616.76	21612.51
616.92	21369.09
617.07	21561.02
617.22	21696.77
617.37	21900.39
617.53	21186.53
617.68	21310.58
617.83	21781.03
617.99	21359.73
618.14	21539.95
618.29	21465.05
618.45	21132.70
618.60	21179.51
618.75	20496.07
618.90	21128.02
619.06	20753.53
619.21	21118.65
619.36	21170.15
619.51	20592.03
619.67	20758.21
619.82	21432.29
619.97	21888.69
620.12	22190.62
620.28	22033.80
620.43	22169.55
620.58	21163.12
620.73	21668.68
620.89	21247.38
621.04	20395.43
621.19	19517.73
621.34	19714.33
621.49	19880.51
621.65	20741.83
621.80	20872.90
621.95	20622.46
622.10	20294.79
622.25	19367.93
622.41	19428.79
622.56	19393.68
622.71	18972.38
622.86	19234.52
623.01	19201.76
623.16	19515.39
623.32	19257.93
623.47	19983.49
623.62	19634.75
623.77	19960.09
623.92	19377.30
624.07	19297.72
624.23	19520.07
624.38	19110.47
624.53	18448.10
624.68	18375.55
624.83	18581.51
624.98	18417.68
625.13	18349.80
625.29	19213.46
625.44	19183.03
625.59	18888.12
625.74	18869.40
625.89	19653.48
626.04	19396.02
626.19	19358.57
626.34	19016.85
626.49	18359.16
626.65	18441.08
626.80	18565.13
626.95	19119.84
627.10	19227.50
627.25	18927.91
627.40	18338.10
627.55	17191.23
627.70	16954.84
627.85	17434.65
628.00	17937.87
628.15	17867.65
628.30	18153.20
628.45	17797.43
628.60	17537.63
628.76	17855.95
628.91	17678.07
629.06	17752.96
629.21	19309.42
629.36	18097.02
629.51	17572.74
629.66	17029.74
629.81	16893.99
629.96	17469.76
630.11	17085.91
630.26	17685.09
630.41	17729.56
630.56	17376.14
630.71	17811.48
630.86	17163.15
631.01	17303.58
631.16	17710.83
631.31	17287.20
631.46	17310.60
631.61	17282.52
631.76	17184.21
631.91	17329.33
632.06	16933.78
632.21	17701.47
632.36	17376.14
632.51	16884.62
632.66	17319.96
632.81	17151.45
632.96	17331.67
633.10	17317.62
633.25	17331.67
633.40	17111.66
633.55	16070.12
633.70	16599.08
633.85	16407.16
634.00	17118.68
634.15	16943.14
634.30	16636.53
634.45	16695.04
634.60	16952.50
634.75	16444.60
634.90	17013.35
635.05	17556.36
635.19	16957.18
635.34	16989.95
635.49	16823.77
635.64	16610.78
635.79	16980.59
635.94	17191.23
636.09	18340.44
636.24	17734.24
636.39	17135.06
636.53	17942.55
636.68	17170.17
636.83	17444.01
636.98	17092.93
637.13	17310.60
637.28	17839.56
637.43	17900.42
637.57	17678.07
637.72	17352.73
637.87	17216.98
638.02	16341.62
638.17	16870.58
638.32	17699.13
638.46	17345.71
638.61	16540.57
638.76	17057.82
638.91	17195.92
639.06	16540.57
639.20	16893.99
639.35	16369.71
639.50	15903.94
639.65	16332.26
639.80	16058.42
639.94	16067.78
640.09	16510.14
640.24	15733.08
640.39	15384.34
640.54	14930.28
640.68	15749.46
640.83	15426.47
640.98	16290.13
641.13	16491.41
641.27	16381.41
641.42	15756.49
641.57	15985.86
641.72	16035.01
641.86	16334.60
642.01	16365.03
642.16	15983.52
642.31	15585.63
642.45	15487.32
642.60	15480.30
642.75	15382.00
642.90	15719.04
643.04	15461.58
643.19	14925.60
643.34	15012.20
643.48	15391.36
643.63	15192.42
643.78	15000.49
643.93	15044.96
644.07	15290.72
644.22	15304.76
644.37	15183.06
644.51	15051.99
644.66	15154.97
644.81	15417.11
644.95	15665.21
645.10	15054.33
645.25	14960.70
645.39	14422.38
645.54	14878.79
645.69	14361.53
645.83	14445.79
645.98	14827.29
646.13	14815.59
646.27	14593.24
646.42	14834.32
646.57	14764.10
646.71	14537.07
646.86	14471.53
647.00	14207.05
647.15	14347.48
647.30	14183.65
647.44	14171.94
647.59	13678.09
647.74	14026.83
647.88	13832.57
648.03	13664.05
648.17	14031.51
648.32	13774.05
648.47	14478.55
648.61	14941.98
648.76	14384.93
648.90	14143.86
649.05	13706.18
649.20	13287.22
649.34	12842.52
649.49	13013.38
649.63	13212.32
649.78	13448.72
649.92	13776.39
650.07	14148.54
650.21	14019.81
650.36	13902.78
650.51	14033.85
650.65	14670.48
650.80	14764.10
650.94	14373.23
651.09	14003.43
651.23	13694.47
651.38	13090.62
651.52	13263.82
651.67	13797.46
651.81	14267.91
651.96	14457.49
652.10	13951.93
652.25	14174.28
652.39	14057.26
652.54	13846.61
652.68	14169.60
652.83	13956.61
652.97	13664.05
653.12	12989.97
653.26	13507.23
653.41	13102.32
653.55	13816.18
653.70	14111.09
653.84	13582.13
653.99	13996.40
654.13	13245.09
654.27	13287.22
654.42	13486.17
654.56	13628.94
654.71	13151.47
654.85	12842.52
655.00	12713.79
655.14	12503.14
655.29	12400.16
655.43	12241.00
655.57	11531.82
655.72	10560.50
655.86	10160.27
656.01	10195.37
656.15	10413.04
656.30	10998.18
656.44	11185.42
656.58	11281.38
656.73	11833.75
656.87	12060.78
657.01	12496.12
657.16	12051.42
657.30	12374.41
657.45	12870.61
657.59	12266.75
657.73	12184.83
657.88	12514.84
658.02	12985.29
658.16	12704.43
658.31	12716.13
658.45	12755.92
658.60	12568.68
658.74	13579.79
658.88	13153.81
659.03	12758.26
659.17	12809.75
659.31	12388.46
659.46	12276.11
659.60	12940.82
659.74	12533.57
659.89	12503.14
660.03	12655.28
660.17	12552.29
660.32	12402.50
660.46	12453.99
660.60	12507.82
660.74	12414.20
660.89	12688.04
661.03	12732.51
661.17	12835.50
661.32	13097.64
661.46	12849.54
661.60	13111.68
661.74	12798.05
661.89	12982.95
662.03	12566.34
662.17	11978.86
662.31	12262.07
662.46	12105.25
662.60	11679.27
662.74	11578.63
662.88	11410.11
663.03	12161.42
663.17	11861.84
663.31	11239.25
663.45	11714.38
663.60	11793.96
663.74	11384.37
663.88	12119.29
664.02	11709.70
664.17	11625.44
664.31	10986.47
664.45	10988.82
664.59	11737.79
664.73	12381.43
664.88	12252.70
665.02	12690.38
665.16	12748.90
665.30	12784.01
665.44	12774.64
665.59	12250.36
665.73	11847.79
665.87	11555.22
666.01	11405.43
666.15	11346.92
666.29	11548.20
666.44	11875.88
666.58	11693.32
666.72	11595.01
666.86	12035.03
667.00	11796.30
667.14	11002.86
667.28	11515.44
667.43	11353.94
667.57	11648.85
667.71	11829.07
667.85	11709.70
667.99	11698.00
668.13	11602.04
668.27	11630.12
668.41	11335.21
668.56	11419.47
668.70	11367.98
668.84	11625.44
668.98	11805.66
669.12	11307.13
669.26	10750.08
669.40	10686.89
669.54	10939.66
669.68	10359.21
669.82	10693.91
669.96	10796.89
670.10	10869.45
670.25	11105.84
670.39	10604.97
670.53	10464.54
670.67	10642.42
670.81	10335.81
670.95	10190.69
671.09	10310.06
671.23	10160.27
671.37	10263.25
671.51	9893.44
671.65	9935.57
671.79	10277.29
671.93	10881.15
672.07	11096.48
672.21	10068.98
672.35	9944.94
672.49	10087.71
672.63	10148.56
672.77	10012.81
672.91	10157.92
673.05	10134.52
673.19	9813.87
673.33	10333.47
673.47	10665.82
673.61	10237.50
673.75	10045.58
673.89	9500.23
674.03	9514.28
674.17	9652.37
674.31	9940.26
674.45	9722.59
674.59	10174.31
674.73	10015.15
674.87	9767.06
675.01	9273.20
675.15	9088.30
675.29	9563.43
675.43	9252.14
675.56	9111.71
675.70	9348.10
675.84	9596.20
675.98	9207.67
676.12	9123.41
676.26	8823.82
676.40	9034.47
676.54	9067.24
676.68	9132.77
676.82	8802.75
676.96	8723.18
677.10	8954.89
677.23	8819.14
677.37	8734.88
677.51	8746.58
677.65	8493.80
677.79	8477.42
677.93	8402.52
678.07	8578.06
678.21	8821.48
678.34	9174.90
678.48	9142.13
678.62	8526.57
678.76	8889.35
678.90	8510.19
679.04	8814.46
679.18	8753.60
679.31	8821.48
679.45	8446.99
679.59	8496.14
679.73	8381.46
679.87	8512.53
680.00	8636.58
680.14	8709.13
680.28	8793.39
680.42	8383.80
680.56	8058.46
680.70	7913.35
680.83	8030.38
680.97	8402.52
681.11	8451.67
681.25	8283.16
681.39	8542.96
681.52	8327.63
681.66	7932.08
681.80	7693.34
681.94	8060.80
682.07	8252.73
682.21	7728.45
682.35	7967.18
682.49	7810.37
682.62	7700.36
682.76	7611.42
682.90	7176.08
683.04	7148.00
683.17	7185.44
683.31	7396.09
683.45	7747.17
683.59	7227.57
683.72	7260.34
683.86	7136.29
684.00	6752.45
684.13	6712.66
684.27	6871.81
684.41	7131.61
684.55	7286.09
684.68	7187.79
684.82	7349.28
684.96	7316.51
685.09	6979.48
685.23	7159.70
685.37	6815.64
685.50	6909.26
685.64	6970.12
685.78	6799.26
685.91	7066.08
686.05	7346.94
686.19	6820.32
686.32	6033.90
686.46	5490.90
686.60	4933.85
686.73	4290.20
686.87	4149.77
687.01	4180.20
687.14	4440.00
687.28	4985.34
687.42	5160.88
687.55	5149.18
687.69	5380.89
687.82	5607.92
687.96	5465.15
688.10	5589.20
688.23	6085.39
688.37	5905.17
688.50	5275.57
688.64	5174.92
688.78	5198.33
688.91	5561.11
689.05	5284.93
689.18	5289.61
689.32	5430.04
689.46	5085.98
689.59	5137.48
689.73	5486.22
689.86	5343.44
690.00	4964.28
690.13	5357.49
690.27	5298.97
690.41	5048.54
690.54	5256.84
690.68	5310.68
690.81	5465.15
690.95	5617.29
691.08	5596.22
691.22	5638.35
691.35	5430.04
691.49	5373.87
691.62	5469.83
691.76	5359.83
691.89	5284.93
692.03	5069.60
692.16	5069.60
692.30	5228.76
692.43	5088.32
692.57	5111.73
692.70	5090.67
692.84	4983.00
692.97	5128.11
693.11	5027.47
693.24	4650.64
693.38	4924.49
693.51	4931.51
693.65	4992.36
693.78	4695.11
693.92	4580.43
694.05	4622.56
694.19	4456.38
694.32	4315.95
694.45	4531.28
694.59	4596.81
694.72	4606.17
694.86	4833.21
694.99	4833.21
695.13	4627.24
695.26	4943.21
695.39	4727.88
695.53	4592.13
695.66	4847.25
695.80	4435.32
695.93	4709.16
696.07	5029.81
696.20	5277.91
696.33	5228.76
696.47	5111.73
696.60	4751.29
696.73	4664.69
696.87	4697.46
697.00	4800.44
697.14	4938.53
697.27	4755.97
697.40	4547.66
697.54	4430.63
697.67	4542.98
697.80	4545.32
697.94	4706.82
698.07	4751.29
698.21	4168.49
698.34	4124.02
698.47	4142.75
698.61	4079.55
698.74	4234.03
698.87	4201.26
699.01	4170.83
699.14	4245.73
699.27	4454.04
699.40	4437.66
699.54	4353.40
699.67	4187.22
699.80	4418.93
699.94	4147.43
700.07	4100.62
700.20	4016.36
700.34	3871.25
700.47	3782.31
700.60	3688.68
700.73	3854.86
700.87	3648.90
701.00	3693.37
701.13	3786.99
701.26	3733.15
701.40	3712.09
701.53	3609.11
701.66	3763.58
701.79	3655.92
701.93	3606.77
702.06	3602.08
702.19	3524.85
702.32	3527.19
702.46	3286.11
702.59	3541.23
702.72	3632.51
702.85	3700.39
702.99	3808.05
703.12	3714.43
703.25	3740.18
703.38	3569.32
703.51	3576.34
703.65	3616.13
703.78	3695.71
703.91	3545.91
704.04	3527.19
704.17	3501.44
704.31	3627.83
704.44	3510.80
704.57	3681.66
704.70	3566.98
704.83	3412.50
704.96	3435.91
705.10	3485.06
705.23	3332.92
>>>>>End Processed Spectral Data<<<<<
