SpectraSuite Data File
++++++++++++++++++++++++++++++++++++
Date: Mon Oct 07 14:54:59 GMT-05:00 2013
User: price-jones
Dark Spectrum Present: No
Reference Spectrum Present: No
Number of Sampled Component Spectra: 1
Spectrometers: USB2+H05261
Integration Time (usec): 10000 (USB2+H05261)
Spectra Averaged: 1 (USB2+H05261)
Boxcar Smoothing: 0 (USB2+H05261)
Correct for Electrical Dark: No (USB2+H05261)
Strobe/Lamp Enabled: No (USB2+H05261)
Correct for Detector Non-linearity: No (USB2+H05261)
Correct for Stray Light: No (USB2+H05261)
Number of Pixels in Processed Spectrum: 2048
>>>>>Begin Processed Spectral Data<<<<<
365.73	0.00
365.92	0.00
366.12	0.00
366.32	0.00
366.52	0.00
366.72	0.00
366.91	0.00
367.11	0.00
367.31	0.00
367.51	0.00
367.70	0.00
367.90	0.00
368.10	0.00
368.30	0.00
368.49	0.00
368.69	0.00
368.89	0.00
369.09	0.00
369.28	0.00
369.48	0.00
369.68	0.00
369.87	0.00
370.07	0.00
370.27	0.00
370.47	91.28
370.66	1394.96
370.86	1549.43
371.06	1790.51
371.25	1750.72
371.45	1542.41
371.65	1355.17
371.84	1331.76
372.04	1479.22
372.24	1607.95
372.44	1802.21
372.63	1540.07
372.83	1427.73
373.03	1394.96
373.22	1205.38
373.42	1404.32
373.62	1526.03
373.81	1729.66
374.01	1540.07
374.21	1409.00
374.40	1383.26
374.60	1544.75
374.79	1682.85
374.99	1935.62
375.19	1980.09
375.38	2073.71
375.58	1895.83
375.78	1961.37
375.97	1865.41
376.17	2047.97
376.37	2111.16
376.56	2038.61
376.76	2209.47
376.95	2368.62
377.15	2509.05
377.35	2560.55
377.54	2693.96
377.74	2722.04
377.93	2782.90
378.13	2647.15
378.33	2469.27
378.52	2345.22
378.72	2207.13
378.91	2307.77
379.11	2132.23
379.31	2003.50
379.50	2073.71
379.70	2347.56
379.89	2593.31
380.09	2768.85
380.28	2806.30
380.48	2766.51
380.68	2708.00
380.87	2595.65
381.07	2342.88
381.26	2228.19
381.46	2010.52
381.65	1991.80
381.85	1902.86
382.04	1834.98
382.24	1675.82
382.43	1596.25
382.63	1572.84
382.83	1589.22
383.02	1565.82
383.22	1483.90
383.41	1614.97
383.61	1858.39
383.80	2050.31
384.00	2340.54
384.19	2663.53
384.39	2890.56
384.58	2747.79
384.78	2693.96
384.97	2516.08
385.17	2396.71
385.36	2347.56
385.56	2314.79
385.75	2438.84
385.95	2502.03
386.14	2731.41
386.34	2883.54
386.53	2733.75
386.72	2513.74
386.92	2574.59
387.11	2670.55
387.31	2665.87
387.50	2911.63
387.70	2740.77
387.89	2658.85
388.09	2752.47
388.28	2785.24
388.48	2778.22
388.67	2984.18
388.86	3215.90
389.06	3574.00
389.25	3658.26
389.45	3786.99
389.64	3595.06
389.84	3478.04
390.03	3499.10
390.22	3632.51
390.42	3705.07
390.61	4133.39
390.81	4224.67
391.00	4322.97
391.19	4234.03
391.39	4011.68
391.58	3838.48
391.78	3658.26
391.97	3419.52
392.16	3307.18
392.36	2799.28
392.55	2155.63
392.75	1755.40
392.94	1495.60
393.13	1476.88
393.33	1872.43
393.52	2516.08
393.71	2953.76
393.91	3377.39
394.10	3583.36
394.29	3962.53
394.49	4241.05
394.68	4744.27
394.88	4739.58
395.07	4723.20
395.26	4662.35
395.46	4437.66
395.65	4037.42
395.84	3595.06
396.04	2909.29
396.23	2363.94
396.42	2062.01
396.62	2113.50
396.81	2539.48
397.00	3286.11
397.19	4072.53
397.39	4931.51
397.58	5195.99
397.77	5537.71
397.97	5764.74
398.16	5788.14
398.35	5996.45
398.55	6026.88
398.74	6298.38
398.93	6537.12
399.12	6373.28
399.32	6024.54
399.51	6340.51
399.70	6853.09
399.90	6478.60
400.09	6581.59
400.28	6593.29
400.47	6810.96
400.67	7110.55
400.86	7255.66
401.05	7171.40
401.24	7410.14
401.44	7494.40
401.63	7541.21
401.82	7384.39
402.01	7447.58
402.21	7496.74
402.40	7562.27
402.59	7122.25
402.78	6604.99
402.97	6832.02
403.17	7183.10
403.36	7609.08
403.55	7857.18
403.74	7662.91
403.93	7372.69
404.13	6927.99
404.32	7098.84
404.51	7335.24
404.70	7887.61
404.89	7693.34
405.09	7513.12
405.28	7234.60
405.47	7384.39
405.66	7360.98
405.85	6991.18
406.05	6995.86
406.24	7138.63
406.43	7269.70
406.62	7597.38
406.81	7686.32
407.00	7258.00
407.20	7143.32
407.39	7417.16
407.58	7611.42
407.77	8006.97
407.96	8334.65
408.15	8329.97
408.34	8486.78
408.54	8791.05
408.73	8624.87
408.92	8678.71
409.11	8339.33
409.30	7915.69
409.49	7407.80
409.68	7080.12
409.87	7206.51
410.07	7662.91
410.26	7953.14
410.45	8196.56
410.64	8549.98
410.83	8898.72
411.02	9224.05
411.21	9401.93
411.40	8997.02
411.59	9249.80
411.78	9397.25
411.98	8978.30
412.17	9139.79
412.36	9123.41
412.55	9123.41
412.74	9048.51
412.93	8685.73
413.12	9224.05
413.31	9727.27
413.50	9549.39
413.69	9820.89
413.88	9263.84
414.07	9217.03
414.26	9327.03
414.45	9734.29
414.64	9577.47
414.83	9652.37
415.02	9537.68
415.22	9703.86
415.41	10005.79
415.60	10523.05
415.79	10590.92
415.98	10614.33
416.17	10611.99
416.36	10354.53
416.55	10068.98
416.74	9710.88
416.93	9535.34
417.12	9476.83
417.31	9879.40
417.50	10115.80
417.69	10445.81
417.88	10391.98
418.07	10509.01
418.26	10232.82
418.45	10403.68
418.64	10661.14
418.83	11066.05
419.02	10544.11
419.21	10473.90
419.39	9865.36
419.58	9844.29
419.77	9680.46
419.96	10448.15
420.15	11005.20
420.34	11117.54
420.53	11489.69
420.72	11424.15
420.91	11445.22
421.10	11272.02
421.29	11248.61
421.48	10951.37
421.67	11323.51
421.86	10876.47
422.05	9895.78
422.24	9380.87
422.43	9685.14
422.61	10516.03
422.80	11164.36
422.99	10799.23
423.18	10565.18
423.37	10415.38
423.56	10658.80
423.75	10841.36
423.94	10988.82
424.13	10312.40
424.32	10125.16
424.50	10478.58
424.69	10637.73
424.88	10593.26
425.07	10443.47
425.26	10253.89
425.45	10139.20
425.64	10024.51
425.83	10178.99
426.01	10476.24
426.20	10724.33
426.39	10927.96
426.58	9879.40
426.77	9060.21
426.96	8978.30
427.15	9465.13
427.33	10083.03
427.52	10457.51
427.71	10501.98
427.90	10363.89
428.09	10097.07
428.28	9827.91
428.46	9736.63
428.65	9785.78
428.84	9923.87
429.03	9818.55
429.22	9469.81
429.40	8837.86
429.59	8018.68
429.78	7304.81
429.97	7440.56
430.16	7522.48
430.34	7414.82
430.53	7307.15
430.72	7873.56
430.91	8837.86
431.10	10438.79
431.28	12191.85
431.47	12807.41
431.66	12362.71
431.85	11035.63
432.03	10003.45
432.22	10382.62
432.41	10979.45
432.60	11714.38
432.79	12229.30
432.97	12252.70
433.16	11887.58
433.35	10799.23
433.54	9617.26
433.72	9666.41
433.91	9827.91
434.10	11014.56
434.28	11763.53
434.47	12194.19
434.66	11817.36
434.85	11534.16
435.03	11634.80
435.22	11840.77
435.41	12566.34
435.59	12561.66
435.78	12648.26
435.97	13198.28
436.16	13296.58
436.34	12868.27
436.53	12798.05
436.72	12861.24
436.90	11882.90
437.09	12390.80
437.28	12109.93
437.46	12374.41
437.65	12219.94
437.84	10995.84
438.02	10600.29
438.21	10794.55
438.40	10911.58
438.58	12196.53
438.77	12566.34
438.96	12315.90
439.14	13107.00
439.33	13200.62
439.52	13469.78
439.70	13357.44
439.89	12491.44
440.08	12540.59
440.26	12491.44
440.45	12945.50
440.63	14001.08
440.82	14363.87
441.01	14249.18
441.19	14436.42
441.38	14490.26
441.57	14754.74
441.75	14937.30
441.94	15279.02
442.12	15365.62
442.31	15660.52
442.50	15672.23
442.68	15087.09
442.87	14836.66
443.05	14822.61
443.24	14918.57
443.43	15232.21
443.61	15477.96
443.80	15637.12
443.98	14651.75
444.17	14913.89
444.35	15562.22
444.54	15807.98
444.73	15791.59
444.91	14956.02
445.10	14338.12
445.28	13760.01
445.47	13523.62
445.65	13933.21
445.84	14501.96
446.02	14764.10
446.21	15257.95
446.39	15143.27
446.58	15197.10
446.77	15400.72
446.95	15665.21
447.14	15941.39
447.32	16006.92
447.51	15726.06
447.69	15323.49
447.88	15304.76
448.06	15594.99
448.25	15583.29
448.43	15728.40
448.62	15531.80
448.80	15421.79
448.99	15496.69
449.17	15569.24
449.36	16013.95
449.54	16243.32
449.73	16559.29
449.91	16772.28
450.10	16805.05
450.28	17439.33
450.46	17352.73
450.65	17273.15
450.83	17174.85
451.02	16657.59
451.20	17085.91
451.39	16978.25
451.57	17209.96
451.76	16830.79
451.94	16245.66
452.13	16168.42
452.31	15332.85
452.49	14410.68
452.68	14951.34
452.86	14633.03
453.05	14977.09
453.23	15807.98
453.42	16397.79
453.60	16205.87
453.78	16482.05
453.97	16287.79
454.15	16180.12
454.34	15751.81
454.52	15824.36
454.70	15587.97
454.89	16023.31
455.07	16067.78
455.26	16252.68
455.44	16842.50
455.62	17193.58
455.81	17200.60
455.99	16905.69
456.17	16898.67
456.36	17326.99
456.54	17874.67
456.73	17434.65
456.91	17657.00
457.09	17811.48
457.28	18239.79
457.46	17778.71
457.64	17214.64
457.83	16620.14
458.01	16482.05
458.19	16886.97
458.38	17277.83
458.56	17734.24
458.74	17764.67
458.93	17151.45
459.11	17132.72
459.29	16898.67
459.48	16765.26
459.66	16395.45
459.84	16996.97
460.03	17334.01
460.21	17535.29
460.39	18267.88
460.57	18094.68
460.76	18197.67
460.94	18277.24
461.12	17895.74
461.31	17722.54
461.49	18319.37
461.67	17942.55
461.85	18569.81
462.04	18600.24
462.22	18532.36
462.40	18525.34
462.59	18398.95
462.77	18661.09
462.95	18450.44
463.13	18022.12
463.32	17898.08
463.50	17809.14
463.68	17738.92
463.86	17762.33
464.05	17357.41
464.23	17270.81
464.41	17259.11
464.59	16893.99
464.78	17832.54
464.96	17912.12
465.14	17598.49
465.32	18188.30
465.50	18574.49
465.69	18658.75
465.87	17902.76
466.05	17247.41
466.23	16554.61
466.41	16468.01
466.60	17572.74
466.78	17027.40
466.96	17465.08
467.14	17575.08
467.32	17745.94
467.51	17869.99
467.69	16954.84
467.87	17551.68
468.05	17649.98
468.23	17551.68
468.41	17788.07
468.60	17476.78
468.78	18073.62
468.96	17729.56
469.14	18127.45
469.32	18328.74
469.50	17240.39
469.69	17436.99
469.87	16802.71
470.05	17146.76
470.23	17451.03
470.41	17371.46
470.59	17235.70
470.77	17504.87
470.95	18157.88
471.14	18167.24
471.32	18164.90
471.50	19115.16
471.68	19311.76
471.86	19243.88
472.04	19239.20
472.22	19000.47
472.40	18061.91
472.58	18106.38
472.77	18253.84
472.95	18504.28
473.13	19180.69
473.31	18661.09
473.49	18930.25
473.67	19311.76
473.85	19321.12
474.03	19885.19
474.21	19693.27
474.39	20369.68
474.57	20173.08
474.75	20372.02
474.93	19524.75
475.12	19461.55
475.30	19594.96
475.48	19190.05
475.66	19489.64
475.84	19342.19
476.02	19386.66
476.20	18714.92
476.38	19381.98
476.56	20390.75
476.74	20444.58
476.92	20278.40
477.10	20624.80
477.28	21270.79
477.46	21252.06
477.64	21563.36
477.82	21783.37
478.00	22068.91
478.18	21111.63
478.36	21034.39
478.54	21816.13
478.72	21553.99
478.90	22775.75
479.08	22998.10
479.26	22544.04
479.44	22796.82
479.62	22618.94
479.80	22492.55
479.98	23208.75
480.16	23559.83
480.34	22530.00
480.52	23243.86
480.70	23630.05
480.88	23009.81
481.06	23496.64
481.24	23407.70
481.41	24013.90
481.59	25020.33
481.77	24535.84
481.95	24746.48
482.13	24610.73
482.31	24819.04
482.49	25043.73
482.67	24863.51
482.85	24842.45
483.03	25556.31
483.21	25851.22
483.39	25146.72
483.57	24615.41
483.74	24374.34
483.92	24638.82
484.10	25074.16
484.28	25589.08
484.46	25642.91
484.64	25722.49
484.82	24919.68
485.00	24849.47
485.18	24112.20
485.35	22958.31
485.53	20629.48
485.71	19594.96
485.89	19981.15
486.07	20830.77
486.25	22703.20
486.43	24261.99
486.61	24320.51
486.78	24643.50
486.96	24994.58
487.14	26244.43
487.32	25921.43
487.50	27438.10
487.68	27461.51
487.85	28184.73
488.03	28247.93
488.21	27655.77
488.39	26869.35
488.57	25947.18
488.75	26682.11
488.92	27910.89
489.10	29855.87
489.28	29921.41
489.46	30991.03
489.64	30670.38
489.81	30962.95
489.99	30911.46
490.17	30735.92
490.35	30972.31
490.53	30375.47
490.70	29247.33
490.88	29502.45
491.06	30705.49
491.24	30560.37
491.41	29472.03
491.59	28460.91
491.77	27529.38
491.95	28987.53
492.13	30265.47
492.30	31246.15
492.48	32294.71
492.66	32493.66
492.84	31627.66
493.01	31997.46
493.19	31496.59
493.37	31365.52
493.54	31658.09
493.72	33010.92
493.90	32428.12
494.08	33078.79
494.25	34029.05
494.43	34040.75
494.61	34457.37
494.79	33804.36
494.96	33895.64
495.14	32856.44
495.32	32919.63
495.49	32463.23
495.67	33579.67
495.85	34679.72
496.02	35431.03
496.20	35040.16
496.38	34682.06
496.55	34775.68
496.73	35215.70
496.91	35384.22
497.09	36119.15
497.26	35793.81
497.44	35379.54
497.62	34452.69
497.79	34057.14
497.97	32659.84
498.14	33226.24
498.32	34803.77
498.50	35428.69
498.67	34951.22
498.85	35768.07
499.03	36451.50
499.20	36706.62
499.38	36161.28
499.56	36205.75
499.73	35522.31
499.91	33912.02
500.08	33996.28
500.26	32355.57
500.44	33750.52
500.61	34831.85
500.79	34129.69
500.97	33619.46
501.14	33223.90
501.32	33153.69
501.49	33879.25
501.67	33706.05
501.84	34033.73
502.02	34649.29
502.20	34967.60
502.37	35222.72
502.55	35655.72
502.72	35178.25
502.90	36301.71
503.07	35480.18
503.25	34988.67
503.43	34052.45
503.60	33818.40
503.78	33357.32
503.95	34132.03
504.13	36259.58
504.30	37268.35
504.48	35913.18
504.65	35828.92
504.83	35718.92
505.01	36144.89
505.18	36521.72
505.36	36353.20
505.53	37331.54
505.71	38230.31
505.88	38717.14
506.06	37710.71
506.23	37551.56
506.41	36837.69
506.58	37240.26
506.76	36306.39
506.93	36844.71
507.11	35431.03
507.28	36343.84
507.46	35922.54
507.63	35063.57
507.81	34101.61
507.98	35028.46
508.16	36194.04
508.33	37280.05
508.50	37228.56
508.68	37383.04
508.85	39103.33
509.03	38258.40
509.20	37546.87
509.38	35534.01
509.55	36079.36
509.73	36779.18
509.90	36453.84
510.08	36638.75
510.25	36744.07
510.42	36114.47
510.60	36556.83
510.77	37502.40
510.95	39339.72
511.12	37858.17
511.30	39473.13
511.47	38827.15
511.64	38672.67
511.82	38202.22
511.99	36802.58
512.17	36884.50
512.34	36130.85
512.51	37209.84
512.69	36231.49
512.86	36400.01
513.04	37415.80
513.21	37682.62
513.38	36212.77
513.56	34710.14
513.73	33949.47
513.90	35199.32
514.08	34347.36
514.25	36282.98
514.43	36198.73
514.60	36107.44
514.77	35971.69
514.95	37031.96
515.12	36528.74
515.29	36318.09
515.47	36835.35
515.64	37041.32
515.81	37757.52
515.99	36360.22
516.16	33862.87
516.33	31674.47
516.51	30857.62
516.68	29474.37
516.85	29575.01
517.03	30686.76
517.20	33867.55
517.37	36252.56
517.54	36170.64
517.72	34920.79
517.89	32243.22
518.06	31147.85
518.24	32247.90
518.41	33184.12
518.58	35122.08
518.75	35452.09
518.93	35292.94
519.10	35115.06
519.27	35805.52
519.45	36823.65
519.62	37085.79
519.79	36676.19
519.96	37628.79
520.14	36690.24
520.31	35255.49
520.48	35096.33
520.65	35997.44
520.83	37422.83
521.00	37556.24
521.17	36547.47
521.34	37092.81
521.52	37198.13
521.69	36643.43
521.86	37633.47
522.03	37081.11
522.20	35894.46
522.38	35147.82
522.55	36086.38
522.72	36098.08
522.89	35859.35
523.07	36350.86
523.24	36126.17
523.41	38054.77
523.58	38022.00
523.75	37933.06
523.92	38426.92
524.10	38916.09
524.27	38815.44
524.44	38059.45
524.61	38054.77
524.78	37247.29
524.96	36863.44
525.13	36493.63
525.30	37895.61
525.47	38171.80
525.64	38649.27
525.81	37184.09
525.98	34876.32
526.16	34185.86
526.33	32783.88
526.50	31693.19
526.67	31992.78
526.84	32851.76
527.01	34352.04
527.18	35772.75
527.36	37287.07
527.53	36868.12
527.70	36793.22
527.87	36212.77
528.04	37165.37
528.21	36919.61
528.38	38447.98
528.55	39452.07
528.72	39976.35
528.89	39253.12
529.07	38534.58
529.24	37319.84
529.41	36961.74
529.58	37518.79
529.75	37338.57
529.92	38424.57
530.09	38721.82
530.26	38653.95
530.43	39065.88
530.60	38316.91
530.77	38810.76
530.94	38572.03
531.11	37790.29
531.28	36559.17
531.46	36615.34
531.63	36769.82
531.80	36790.88
531.97	35704.87
532.14	34911.43
532.31	34249.06
532.48	34827.17
532.65	34316.93
532.82	35070.59
532.99	37333.89
533.16	37914.34
533.33	37237.92
533.50	35821.90
533.67	36526.40
533.84	36746.41
534.01	36573.21
534.18	36215.11
534.35	37120.90
534.52	35690.83
534.69	37612.41
534.86	37481.34
535.03	36804.92
535.20	37872.21
535.37	38925.45
535.54	39122.05
535.71	38206.90
535.88	37677.94
536.05	36163.62
536.22	37036.64
536.38	36009.14
536.55	34998.03
536.72	34878.66
536.89	35115.06
537.06	35981.06
537.23	38202.22
537.40	37359.63
537.57	37289.42
537.74	37102.17
537.91	37446.23
538.08	36210.43
538.25	36397.67
538.42	37043.66
538.59	36622.36
538.75	35648.70
538.92	35882.75
539.09	36201.07
539.26	35999.78
539.43	35618.27
539.60	35042.50
539.77	36149.57
539.94	34518.22
540.11	33214.54
540.28	33968.19
540.44	33460.30
540.61	34768.66
540.78	35842.96
540.95	36156.60
541.12	36128.51
541.29	36149.57
541.46	35838.28
541.62	36659.81
541.79	36795.56
541.96	36690.24
542.13	34962.92
542.30	34857.60
542.47	35213.36
542.63	34766.32
542.80	35178.25
542.97	35730.62
543.14	35124.42
543.31	35550.40
543.48	36034.89
543.64	36095.74
543.81	37158.34
543.98	37109.19
544.15	35786.79
544.32	35372.52
544.48	36313.41
544.65	36236.17
544.82	36928.97
544.99	35632.32
545.16	35171.23
545.32	35501.25
545.49	36816.63
545.66	36074.68
545.83	35428.69
546.00	34733.55
546.16	35384.22
546.33	35353.79
546.50	34916.11
546.67	36098.08
546.83	35093.99
547.00	34911.43
547.17	34581.42
547.34	34314.59
547.50	34787.38
547.67	35402.94
547.84	35503.59
548.00	35826.58
548.17	35196.98
548.34	34955.90
548.51	35629.98
548.67	35894.46
548.84	35559.76
549.01	36261.92
549.18	35917.86
549.34	35449.75
549.51	35812.54
549.68	36463.21
549.84	35608.91
550.01	35173.57
550.18	35660.40
550.34	34965.26
550.51	35253.15
550.68	34859.94
550.84	35255.49
551.01	34979.31
551.18	35225.06
551.34	36119.15
551.51	34749.93
551.68	35585.50
551.84	36245.54
552.01	36325.11
552.18	34934.84
552.34	34710.14
552.51	34836.53
552.68	34998.03
552.84	35674.45
553.01	34801.43
553.18	34356.72
553.34	34487.79
553.51	35749.34
553.67	34946.54
553.84	34038.41
554.01	34270.12
554.17	34738.23
554.34	35522.31
554.51	34675.04
554.67	34775.68
554.84	35873.39
555.00	34899.73
555.17	34937.18
555.33	34380.13
555.50	35840.62
555.67	33708.40
555.83	33500.09
556.00	32552.17
556.16	33366.68
556.33	33172.41
556.50	34059.48
556.66	34017.35
556.83	34000.96
556.99	33214.54
557.16	33500.09
557.32	34106.29
557.49	34548.65
557.65	34274.80
557.82	34220.97
557.98	33741.16
558.15	33680.31
558.32	32748.78
558.48	31943.63
558.65	32055.98
558.81	30473.78
558.98	31330.41
559.14	32896.23
559.31	33476.68
559.47	32119.17
559.64	31295.30
559.80	30532.29
559.97	31810.22
560.13	32631.75
560.30	33572.64
560.46	34597.80
560.63	35173.57
560.79	35487.20
560.96	33584.35
561.12	31978.74
561.29	32093.43
561.45	31353.82
561.61	31395.95
561.78	31747.03
561.94	32664.52
562.11	32474.93
562.27	33394.76
562.44	33598.39
562.60	33713.08
562.77	33893.30
562.93	33158.37
563.10	32409.40
563.26	32584.94
563.42	32547.49
563.59	31667.45
563.75	31548.08
563.92	31660.43
564.08	32957.08
564.24	31538.72
564.41	31789.16
564.57	32896.23
564.74	32187.05
564.90	31683.83
565.07	30843.58
565.23	30103.97
565.39	30555.69
565.56	30792.09
565.72	30714.85
565.88	30225.68
566.05	30663.36
566.21	31363.18
566.38	30415.26
566.54	31243.81
566.70	31770.43
566.87	31960.02
567.03	31391.26
567.19	31791.50
567.36	31129.12
567.52	30871.67
567.68	31370.20
567.85	30522.93
568.01	28863.49
568.17	30064.18
568.34	30862.30
568.50	30794.43
568.66	31264.88
568.83	30899.75
568.99	30616.55
569.15	30859.96
569.32	31166.57
569.48	30906.77
569.64	29626.50
569.81	30017.37
569.97	29912.05
570.13	30157.80
570.30	29408.83
570.46	29212.23
570.62	28479.64
570.78	28662.20
570.95	29024.98
571.11	29809.06
571.27	30342.70
571.43	30026.73
571.60	29996.31
571.76	30106.31
571.92	30455.05
572.09	29881.62
572.25	30513.56
572.41	31599.57
572.57	32800.27
572.74	32205.77
572.90	30864.64
573.06	29818.42
573.22	29813.74
573.38	28837.74
573.55	29525.86
573.71	28765.18
573.87	29310.53
574.03	29965.88
574.20	30228.02
574.36	30471.43
574.52	31536.38
574.68	29825.45
574.84	28395.38
575.01	28135.58
575.17	28357.93
575.33	29027.32
575.49	27955.36
575.65	29165.42
575.82	29181.80
575.98	28437.51
576.14	28795.61
576.30	28208.14
576.46	28547.51
576.62	29462.66
576.79	29287.12
576.95	28968.81
577.11	28203.46
577.27	28643.48
577.43	28664.54
577.59	28606.03
577.75	28968.81
577.92	27508.32
578.08	27615.98
578.24	28458.57
578.40	27967.06
578.56	27840.67
578.72	28802.63
578.88	28814.34
579.04	28655.18
579.21	28966.47
579.37	28240.90
579.53	29509.47
579.69	29818.42
579.85	28720.71
580.01	27960.04
580.17	27938.97
580.33	28479.64
580.49	28498.36
580.65	27536.40
580.82	27978.76
580.98	28247.93
581.14	28584.96
581.30	27861.74
581.46	27807.90
581.62	28053.66
581.78	28311.12
581.94	28334.53
582.10	28676.24
582.26	28821.36
582.42	28650.50
582.58	28980.51
582.74	28898.59
582.90	28741.78
583.06	29401.81
583.22	28189.41
583.38	28945.41
583.54	28386.02
583.70	28826.04
583.86	28245.58
584.02	28135.58
584.18	29106.90
584.34	29287.12
584.50	28634.11
584.66	27777.48
584.82	28198.77
584.98	28142.60
585.14	27440.44
585.30	27213.41
585.46	26782.75
585.62	26637.64
585.78	26972.33
585.94	27536.40
586.10	26284.22
586.26	26717.22
586.42	27269.58
586.58	27089.36
586.74	27480.23
586.90	27384.27
587.06	27686.20
587.22	27850.03
587.38	27278.94
587.54	27115.11
587.70	26511.25
587.86	25818.45
588.02	25738.87
588.18	25432.26
588.34	24023.26
588.49	22906.82
588.65	22104.02
588.81	23206.41
588.97	22384.88
589.13	22679.79
589.29	22494.89
589.45	22883.42
589.61	23208.75
589.77	24318.17
589.93	24388.38
590.08	25020.33
590.24	25404.17
590.40	24819.04
590.56	24580.31
590.72	24641.16
590.88	24521.79
591.04	24641.16
591.20	24479.66
591.35	25001.60
591.51	25226.29
591.67	26679.77
591.83	25118.63
591.99	24732.44
592.15	25263.74
592.31	25570.35
592.46	24320.51
592.62	25273.10
592.78	25888.67
592.94	25394.81
593.10	25254.38
593.26	25724.83
593.41	24903.30
593.57	24336.89
593.73	24758.19
593.89	24959.47
594.05	24732.44
594.20	24402.43
594.36	24716.06
594.52	23709.63
594.68	23833.68
594.84	24346.25
594.99	24753.51
595.15	23964.75
595.31	24435.19
595.47	24882.24
595.62	24538.18
595.78	24720.74
595.94	24577.97
596.10	23239.18
596.25	23491.96
596.41	24477.32
596.57	24386.04
596.73	24229.23
596.88	25137.35
597.04	24510.09
597.20	23735.37
597.36	23396.00
597.51	24294.76
597.67	23978.79
597.83	24507.75
597.99	24432.85
598.14	23353.87
598.30	23309.40
598.46	23161.94
598.61	24067.73
598.77	23655.79
598.93	23220.45
599.09	23674.52
599.24	24744.14
599.40	23536.43
599.56	24086.45
599.71	24144.97
599.87	23896.87
600.03	23358.55
600.18	23314.08
600.34	22581.49
600.50	23461.53
600.65	23073.00
600.81	23264.92
600.97	23012.15
601.12	22867.03
601.28	22628.30
601.44	23129.17
601.59	23311.74
601.75	22838.95
601.91	23117.47
602.06	23866.44
602.22	23559.83
602.37	23166.62
602.53	24095.82
602.69	23969.43
602.84	23946.02
603.00	23723.67
603.16	24116.88
603.31	24154.33
603.47	23325.78
603.62	23599.62
603.78	23676.86
603.94	23262.58
604.09	23140.88
604.25	24006.87
604.40	23466.21
604.56	24079.43
604.71	24645.84
604.87	24479.66
605.03	23536.43
605.18	23723.67
605.34	23552.81
605.49	22789.80
605.65	23246.20
605.80	23035.55
605.96	23335.14
606.12	23021.51
606.27	23667.50
606.43	23281.31
606.58	23143.22
606.74	23625.37
606.89	23447.49
607.05	22824.90
607.20	22185.94
607.36	22745.33
607.51	22403.61
607.67	22508.93
607.82	22621.28
607.98	22789.80
608.13	22298.28
608.29	22663.41
608.44	22176.58
608.60	22686.81
608.75	21600.80
608.91	21645.27
609.06	22527.66
609.22	22930.23
609.37	23047.26
609.53	22445.74
609.68	21827.84
609.84	21359.73
609.99	21928.48
610.15	20943.11
610.30	21951.88
610.46	21666.34
610.61	21809.11
610.76	21570.38
610.92	21125.68
611.07	22473.82
611.23	22260.84
611.38	22443.40
611.54	22256.15
611.69	21940.18
611.84	22064.23
612.00	21179.51
612.15	21247.38
612.31	21685.06
612.46	21422.92
612.62	21371.43
612.77	21561.02
612.92	21790.39
613.08	21010.99
613.23	20381.38
613.39	19969.45
613.54	20276.06
613.69	20805.02
613.85	21577.40
614.00	20830.77
614.15	20381.38
614.31	21364.41
614.46	21563.36
614.62	21071.84
614.77	20622.46
614.92	20439.90
615.08	21118.65
615.23	20030.30
615.38	20545.22
615.54	20105.20
615.69	19733.06
615.84	19517.73
616.00	19414.74
616.15	19709.65
616.30	18965.36
616.46	19414.74
616.61	19641.78
616.76	20109.88
616.92	20208.19
617.07	20615.44
617.22	19992.86
617.37	19983.49
617.53	20067.75
617.68	20020.94
617.83	19943.70
617.99	19992.86
618.14	20173.08
618.29	19903.92
618.45	19704.97
618.60	19960.09
618.75	19154.94
618.90	19433.47
619.06	19644.12
619.21	19573.90
619.36	20163.72
619.51	19171.33
619.67	19311.76
619.82	20402.45
619.97	20482.03
620.12	20891.62
620.28	20652.89
620.43	20861.19
620.58	19936.68
620.73	20528.84
620.89	20187.12
621.04	19098.77
621.19	18263.20
621.34	18459.81
621.49	19215.80
621.65	19644.12
621.80	19974.13
621.95	19690.93
622.10	18841.31
622.25	18225.75
622.41	18541.72
622.56	17813.82
622.71	17881.69
622.86	18160.22
623.01	17965.95
623.16	17891.06
623.32	18532.36
623.47	18487.89
623.62	19190.05
623.77	19190.05
623.92	18363.84
624.07	18478.53
624.23	18265.54
624.38	18167.24
624.53	17472.10
624.68	17273.15
624.83	17745.94
624.98	17523.59
625.13	17200.60
625.29	18087.66
625.44	17991.70
625.59	17884.03
625.74	17661.68
625.89	18368.52
626.04	18307.67
626.19	17951.91
626.34	18005.74
626.49	17123.36
626.65	17516.57
626.80	17539.97
626.95	17860.63
627.10	17982.34
627.25	17713.17
627.40	17317.62
627.55	16252.68
627.70	16002.24
627.85	16617.80
628.00	16842.50
628.15	16762.92
628.30	17282.52
628.45	17165.49
628.60	16662.27
628.76	16940.80
628.91	16666.95
629.06	16884.62
629.21	17977.65
629.36	17121.02
629.51	16489.07
629.66	16126.29
629.81	16042.03
629.96	16297.15
630.11	16439.92
630.26	16245.66
630.41	16222.25
630.56	16070.12
630.71	16327.58
630.86	16343.96
631.01	16095.86
631.16	16603.76
631.31	15784.57
631.46	16240.98
631.61	16222.25
631.76	15978.84
631.91	16152.04
632.06	16159.06
632.21	16500.78
632.36	15805.64
632.51	15641.80
632.66	16332.26
632.81	15917.98
632.96	16100.55
633.10	16065.44
633.25	16198.85
633.40	16058.42
633.55	15609.03
633.70	15765.85
633.85	15592.65
634.00	16063.10
634.15	16042.03
634.30	15660.52
634.45	15667.55
634.60	15880.53
634.75	15960.11
634.90	16250.34
635.05	16245.66
635.19	16046.71
635.34	16102.89
635.49	16035.01
635.64	15803.30
635.79	15899.26
635.94	16578.01
636.09	17364.43
636.24	16755.90
636.39	16215.23
636.53	16645.89
636.68	16470.35
636.83	16027.99
636.98	16011.60
637.13	16229.27
637.28	16624.83
637.43	16893.99
637.57	16519.50
637.72	15903.94
637.87	16006.92
638.02	15775.21
638.17	15712.02
638.32	16758.24
638.46	16348.64
638.61	15374.98
638.76	15985.86
638.91	15733.08
639.06	15527.11
639.20	15815.00
639.35	15452.22
639.50	14937.30
639.65	15096.46
639.80	14960.70
639.94	15068.37
640.09	15250.93
640.24	14881.13
640.39	14471.53
640.54	14558.13
640.68	15037.94
640.83	14801.55
640.98	15246.25
641.13	15594.99
641.27	15536.48
641.42	14937.30
641.57	14878.79
641.72	15070.71
641.86	15297.74
642.01	15758.83
642.16	15094.11
642.31	14736.01
642.45	14675.16
642.60	14476.21
642.75	14225.78
642.90	14876.44
643.04	14462.17
643.19	14150.88
643.34	13816.18
643.48	14251.52
643.63	14572.18
643.78	14075.98
643.93	13767.03
644.07	14766.44
644.22	14656.43
644.37	14094.71
644.51	13984.70
644.66	14195.35
644.81	14637.71
644.95	14530.05
645.10	14136.84
645.25	13827.88
645.39	13336.37
645.54	13965.98
645.69	13504.89
645.83	13699.16
645.98	13781.07
646.13	14160.24
646.27	13476.80
646.42	14057.26
646.57	14003.43
646.71	13858.31
646.86	13839.59
647.00	13668.73
647.15	13551.70
647.30	13224.03
647.44	13160.83
647.59	13013.38
647.74	13181.90
647.88	12751.24
648.03	13160.83
648.17	13233.39
648.32	13027.42
648.47	13731.92
648.61	13743.63
648.76	13767.03
648.90	12922.10
649.05	12882.31
649.20	12704.43
649.34	12259.73
649.49	12767.62
649.63	12521.87
649.78	12496.12
649.92	12645.91
650.07	13640.64
650.21	13135.09
650.36	13121.04
650.51	13184.24
650.65	13837.25
650.80	13750.65
650.94	13523.62
651.09	13242.75
651.23	12901.03
651.38	12463.35
651.52	12662.30
651.67	13050.83
651.81	13317.65
651.96	13448.72
652.10	13294.24
652.25	13380.84
652.39	13322.33
652.54	12931.46
652.68	13004.02
652.83	12987.63
652.97	12744.22
653.12	12238.66
653.26	12725.49
653.41	12479.74
653.55	12566.34
653.70	13085.94
653.84	12613.15
653.99	13071.89
654.13	12657.62
654.27	12568.68
654.42	12692.73
654.56	12739.54
654.71	12468.03
654.85	12107.59
655.00	11927.37
655.14	11690.98
655.29	11342.24
655.43	11587.99
655.57	11297.77
655.72	10118.14
655.86	9488.53
656.01	9558.75
656.15	9666.41
656.30	10476.24
656.44	10569.86
656.58	10932.64
656.73	11197.12
656.87	11683.95
657.01	11445.22
657.16	11391.39
657.30	11812.68
657.45	11819.71
657.59	11414.79
657.73	11676.93
657.88	11747.15
658.02	12070.14
658.16	11702.68
658.31	11796.30
658.45	11894.60
658.60	11686.29
658.74	12688.04
658.88	12322.92
659.03	11805.66
659.17	11861.84
659.31	11908.65
659.46	11531.82
659.60	11943.75
659.74	12105.25
659.89	11896.94
660.03	11981.20
660.17	11524.80
660.32	11667.57
660.46	11583.31
660.60	11569.27
660.74	11779.92
660.89	11819.71
661.03	12128.66
661.17	11939.07
661.32	12407.18
661.46	11999.93
661.60	12212.92
661.74	12093.55
661.89	11920.35
662.03	12217.60
662.17	11215.85
662.31	11112.86
662.46	11391.39
662.60	11190.10
662.74	10595.61
662.88	10778.17
663.03	10939.66
663.17	11117.54
663.31	10710.29
663.45	11084.78
663.60	11400.75
663.74	11012.22
663.88	11508.41
664.02	10848.38
664.17	11393.73
664.31	10520.71
664.45	10310.06
664.59	10862.43
664.73	11419.47
664.88	11424.15
665.02	11934.39
665.16	11822.05
665.30	11730.76
665.44	12004.61
665.59	11449.90
665.73	10871.79
665.87	10712.63
666.01	10558.16
666.15	10382.62
666.29	10668.16
666.44	10991.16
666.58	10864.77
666.72	11082.44
666.86	11232.23
667.00	11049.67
667.14	10291.34
667.28	10581.56
667.43	10485.60
667.57	10939.66
667.71	11325.85
667.85	10967.75
667.99	11063.71
668.13	11250.96
668.27	11054.35
668.41	11028.60
668.56	10778.17
668.70	10614.33
668.84	10899.87
668.98	10995.84
669.12	10368.57
669.26	10211.76
669.40	9853.66
669.54	10387.30
669.68	10019.83
669.82	10101.75
669.96	10342.83
670.10	9806.84
670.25	10125.16
670.39	9860.68
670.53	9708.54
670.67	9980.04
670.81	9619.60
670.95	9713.22
671.09	9802.16
671.23	9661.73
671.37	9624.28
671.51	9217.03
671.65	9287.25
671.79	9493.21
671.93	10251.55
672.07	10310.06
672.21	9542.36
672.35	9563.43
672.49	9771.74
672.63	9380.87
672.77	9420.66
672.91	9675.77
673.05	9495.55
673.19	9268.52
673.33	9668.75
673.47	9980.04
673.61	9523.64
673.75	9202.99
673.89	9460.45
674.03	9238.09
674.17	9310.65
674.31	9287.25
674.45	9188.94
674.59	9540.02
674.73	9427.68
674.87	9312.99
675.01	8695.09
675.15	8879.99
675.29	9039.15
675.43	8812.12
675.56	8564.02
675.70	8751.26
675.84	9022.77
675.98	8622.53
676.12	8418.91
676.26	8432.95
676.40	8304.22
676.54	8791.05
676.68	8667.00
676.82	8430.61
676.96	8290.18
677.10	8229.32
677.23	8365.07
677.37	8456.36
677.51	8252.73
677.65	8299.54
677.79	8063.15
677.93	8138.04
678.07	8013.99
678.21	8187.19
678.34	8620.19
678.48	8325.29
678.62	8236.35
678.76	8301.88
678.90	8088.89
679.04	8243.37
679.18	8315.92
679.31	8285.50
679.45	7854.84
679.59	7934.42
679.73	8135.70
679.87	8131.02
680.00	8109.96
680.14	7934.42
680.28	8222.30
680.42	7737.81
680.56	7386.73
680.70	7396.09
680.83	7368.01
680.97	7985.91
681.11	7911.01
681.25	7903.99
681.39	7719.09
681.52	7588.02
681.66	7346.94
681.80	7152.68
681.94	7337.58
682.07	7559.93
682.21	7030.97
682.35	7559.93
682.49	7248.64
682.62	7133.95
682.76	7157.36
682.90	6743.08
683.04	6876.49
683.17	6843.73
683.31	7070.76
683.45	7213.53
683.59	6829.68
683.72	6740.74
683.86	6427.11
684.00	6202.42
684.13	6017.52
684.27	6335.83
684.41	6380.30
684.55	6853.09
684.68	6637.76
684.82	6675.21
684.96	6834.36
685.09	6647.12
685.23	6342.85
685.37	6438.81
685.50	6764.15
685.64	6609.67
685.78	6560.52
685.91	6602.65
686.05	6832.02
686.19	6377.96
686.32	5818.57
686.46	5317.70
686.60	4690.43
686.73	4105.30
686.87	3922.74
687.01	3929.76
687.14	4093.60
687.28	4683.41
687.42	4807.46
687.55	4950.23
687.69	5341.10
687.82	5165.56
687.96	5135.14
688.10	5245.14
688.23	5610.26
688.37	5338.76
688.50	4704.48
688.64	4840.23
688.78	4898.74
688.91	5195.99
689.05	4980.66
689.18	4805.12
689.32	4964.28
689.46	4903.42
689.59	4802.78
689.73	5032.15
689.86	5018.11
690.00	4716.18
690.13	4990.02
690.27	4744.27
690.41	4774.69
690.54	4828.53
690.68	4826.18
690.81	5249.82
690.95	5371.53
691.08	5259.18
691.22	5210.03
691.35	5226.42
691.49	5249.82
691.62	4938.53
691.76	5177.26
691.89	5205.35
692.03	4875.34
692.16	4835.55
692.30	5032.15
692.43	4842.57
692.57	4840.23
692.70	4835.55
692.84	4795.76
692.97	4847.25
693.11	4692.77
693.24	4542.98
693.38	4664.69
693.51	4711.50
693.65	4423.61
693.78	4212.96
693.92	4365.10
694.05	4472.76
694.19	4245.73
694.32	4058.49
694.45	4152.11
694.59	4519.57
694.72	4264.46
694.86	4430.63
694.99	4503.19
695.13	4538.30
695.26	4615.54
695.39	4594.47
695.53	4423.61
695.66	4425.95
695.80	4355.74
695.93	4332.33
696.07	4620.22
696.20	4835.55
696.33	4833.21
696.47	5015.77
696.60	4540.64
696.73	4341.69
696.87	4599.15
697.00	4524.26
697.14	4503.19
697.27	4449.36
697.40	4231.69
697.54	4358.08
697.67	4238.71
697.80	4315.95
697.94	4329.99
698.07	4299.56
698.21	4051.47
698.34	3906.35
698.47	3922.74
698.61	3695.71
698.74	3840.82
698.87	4009.34
699.01	3988.27
699.14	4154.45
699.27	4063.17
699.40	4191.90
699.54	4091.26
699.67	4049.13
699.80	4014.02
699.94	3904.01
700.07	3726.13
700.20	3847.84
700.34	3613.79
700.47	3520.17
700.60	3431.23
700.73	3534.21
700.87	3485.06
701.00	3590.38
701.13	3393.78
701.26	3482.72
701.40	3480.38
701.53	3410.16
701.66	3534.21
701.79	3386.76
701.93	3236.96
702.06	3405.48
702.19	3344.63
702.32	3190.15
702.46	3232.28
702.59	3529.53
702.72	3459.31
702.85	3524.85
702.99	3578.68
703.12	3524.85
703.25	3344.63
703.38	3267.39
703.51	3307.18
703.65	3286.11
703.78	3197.17
703.91	3426.54
704.04	3208.87
704.17	3187.81
704.31	3239.30
704.44	3379.73
704.57	3382.07
704.70	3239.30
704.83	3185.47
704.96	3260.37
705.10	3190.15
705.23	3164.40
>>>>>End Processed Spectral Data<<<<<
