SpectraSuite Data File
++++++++++++++++++++++++++++++++++++
Date: Mon Oct 07 14:54:55 GMT-05:00 2013
User: price-jones
Dark Spectrum Present: No
Reference Spectrum Present: No
Number of Sampled Component Spectra: 1
Spectrometers: USB2+H05261
Integration Time (usec): 10000 (USB2+H05261)
Spectra Averaged: 1 (USB2+H05261)
Boxcar Smoothing: 0 (USB2+H05261)
Correct for Electrical Dark: No (USB2+H05261)
Strobe/Lamp Enabled: No (USB2+H05261)
Correct for Detector Non-linearity: No (USB2+H05261)
Correct for Stray Light: No (USB2+H05261)
Number of Pixels in Processed Spectrum: 2048
>>>>>Begin Processed Spectral Data<<<<<
365.73	0.00
365.92	0.00
366.12	0.00
366.32	0.00
366.52	0.00
366.72	0.00
366.91	0.00
367.11	0.00
367.31	0.00
367.51	0.00
367.70	0.00
367.90	0.00
368.10	0.00
368.30	0.00
368.49	0.00
368.69	0.00
368.89	0.00
369.09	0.00
369.28	0.00
369.48	0.00
369.68	0.00
369.87	0.00
370.07	0.00
370.27	0.00
370.47	0.00
370.66	0.00
370.86	0.00
371.06	0.00
371.25	16.38
371.45	84.26
371.65	0.00
371.84	30.43
372.04	0.00
372.24	25.75
372.44	121.71
372.63	133.41
372.83	0.00
373.03	0.00
373.22	0.00
373.42	0.00
373.62	0.00
373.81	72.56
374.01	0.00
374.21	9.36
374.40	23.41
374.60	53.83
374.79	28.09
374.99	67.88
375.19	135.75
375.38	79.58
375.58	128.73
375.78	102.98
375.97	149.79
376.17	60.85
376.37	105.32
376.56	163.84
376.76	114.69
376.95	131.07
377.15	156.82
377.35	187.24
377.54	177.88
377.74	276.18
377.93	173.20
378.13	187.24
378.33	98.30
378.52	138.09
378.72	95.96
378.91	145.11
379.11	154.48
379.31	46.81
379.50	44.47
379.70	84.26
379.89	102.98
380.09	182.56
380.28	140.43
380.48	236.39
380.68	215.33
380.87	245.76
381.07	112.35
381.26	217.67
381.46	44.47
381.65	91.28
381.85	79.58
382.04	44.47
382.24	114.69
382.43	0.00
382.63	0.00
382.83	0.00
383.02	37.45
383.22	0.00
383.41	0.00
383.61	18.72
383.80	149.79
384.00	110.01
384.19	180.22
384.39	215.33
384.58	210.65
384.78	159.16
384.97	145.11
385.17	198.95
385.36	102.98
385.56	205.97
385.75	180.22
385.95	154.48
386.14	222.35
386.34	266.82
386.53	110.01
386.72	9.36
386.92	133.41
387.11	170.86
387.31	182.56
387.50	203.63
387.70	95.96
387.89	147.45
388.09	175.54
388.28	194.26
388.48	168.52
388.67	142.77
388.86	220.01
389.06	222.35
389.25	322.99
389.45	280.86
389.64	264.48
389.84	327.68
390.03	322.99
390.22	311.29
390.42	337.04
390.61	374.49
390.81	341.72
391.00	407.25
391.19	500.87
391.39	358.10
391.58	374.49
391.78	283.20
391.97	355.76
392.16	196.60
392.36	229.37
392.55	149.79
392.75	124.05
392.94	11.70
393.13	0.00
393.33	0.00
393.52	93.62
393.71	224.69
393.91	315.97
394.10	353.42
394.29	374.49
394.49	318.31
394.68	482.15
394.88	365.12
395.07	468.11
395.26	428.32
395.46	418.96
395.65	414.27
395.84	318.31
396.04	203.63
396.23	177.88
396.42	53.83
396.62	0.00
396.81	100.64
397.00	217.67
397.19	248.10
397.39	444.70
397.58	479.81
397.77	559.39
397.97	557.05
398.16	599.18
398.35	575.77
398.55	732.59
398.74	737.27
398.93	655.35
399.12	763.01
399.32	636.63
399.51	629.60
399.70	732.59
399.90	690.46
400.09	739.61
400.28	727.91
400.47	767.70
400.67	805.14
400.86	807.48
401.05	844.93
401.24	858.98
401.44	898.77
401.63	866.00
401.82	809.83
402.01	795.78
402.21	760.67
402.40	786.42
402.59	753.65
402.78	767.70
402.97	734.93
403.17	837.91
403.36	877.70
403.55	830.89
403.74	880.04
403.93	961.96
404.13	690.46
404.32	748.97
404.51	788.76
404.70	863.66
404.89	805.14
405.09	788.76
405.28	751.31
405.47	821.53
405.66	863.66
405.85	720.88
406.05	727.91
406.24	784.08
406.43	739.61
406.62	784.08
406.81	833.23
407.00	784.08
407.20	847.27
407.39	851.96
407.58	814.51
407.77	912.81
407.96	999.41
408.15	898.77
408.34	959.62
408.54	1041.54
408.73	985.37
408.92	1050.90
409.11	971.32
409.30	868.34
409.49	847.27
409.68	793.44
409.87	688.12
410.07	784.08
410.26	826.21
410.45	919.83
410.64	961.96
410.83	990.05
411.02	1095.37
411.21	1018.13
411.40	1050.90
411.59	983.02
411.78	1039.20
411.98	978.34
412.17	1057.92
412.36	1132.82
412.55	1008.77
412.74	1109.41
412.93	896.43
413.12	1032.18
413.31	1104.73
413.50	1097.71
413.69	1146.86
413.88	1025.15
414.07	983.02
414.26	1083.67
414.45	1132.82
414.64	1086.01
414.83	1179.63
415.02	1057.92
415.22	1095.37
415.41	1160.91
415.60	1217.08
415.79	1212.40
415.98	1303.68
416.17	1341.13
416.36	1203.04
416.55	1226.44
416.74	1184.31
416.93	1177.29
417.12	1132.82
417.31	1186.65
417.50	985.37
417.69	1198.35
417.88	1179.63
418.07	1130.48
418.26	1196.01
418.45	1053.24
418.64	1261.55
418.83	1196.01
419.02	1273.25
419.21	1296.66
419.39	1177.29
419.58	1032.18
419.77	1139.84
419.96	1102.39
420.15	1266.23
420.34	1331.76
420.53	1317.72
420.72	1446.45
420.91	1273.25
421.10	1345.81
421.29	1345.81
421.48	1212.40
421.67	1359.85
421.86	1432.41
422.05	1196.01
422.24	1064.94
422.43	945.58
422.61	1172.61
422.80	1207.72
422.99	1193.67
423.18	1186.65
423.37	1240.48
423.56	1219.42
423.75	1224.10
423.94	1263.89
424.13	1200.69
424.32	1123.46
424.50	1156.22
424.69	1193.67
424.88	1121.12
425.07	1221.76
425.26	1149.20
425.45	1174.95
425.64	1153.88
425.83	1111.75
426.01	1249.85
426.20	1240.48
426.39	1224.10
426.58	1121.12
426.77	1067.28
426.96	1008.77
427.15	1039.20
427.33	1095.37
427.52	1217.08
427.71	1268.57
427.90	1186.65
428.09	1249.85
428.28	1207.72
428.46	1057.92
428.65	997.07
428.84	1093.03
429.03	1053.24
429.22	1027.50
429.40	947.92
429.59	889.40
429.78	741.95
429.97	816.85
430.16	716.20
430.34	800.46
430.53	669.39
430.72	816.85
430.91	910.47
431.10	1153.88
431.28	1273.25
431.47	1378.58
431.66	1406.66
431.85	1268.57
432.03	1214.74
432.22	1118.78
432.41	1097.71
432.60	1355.17
432.79	1366.87
432.97	1378.58
433.16	1373.89
433.35	1219.42
433.54	1046.22
433.72	943.24
433.91	990.05
434.10	1177.29
434.28	1254.53
434.47	1329.42
434.66	1387.94
434.85	1303.68
435.03	1219.42
435.22	1364.53
435.41	1420.71
435.59	1451.13
435.78	1336.45
435.97	1406.66
436.16	1481.56
436.34	1483.90
436.53	1277.93
436.72	1430.07
436.90	1390.28
437.09	1245.16
437.28	1324.74
437.46	1378.58
437.65	1275.59
437.84	1165.59
438.02	1156.22
438.21	1036.86
438.40	1327.08
438.58	1324.74
438.77	1373.89
438.96	1254.53
439.14	1448.79
439.33	1376.24
439.52	1488.58
439.70	1504.96
439.89	1350.49
440.08	1313.04
440.26	1252.19
440.45	1364.53
440.63	1547.09
440.82	1638.38
441.01	1652.42
441.19	1596.25
441.38	1675.82
441.57	1696.89
441.75	1605.61
441.94	1739.02
442.12	1743.70
442.31	1783.49
442.50	1724.97
442.68	1678.16
442.87	1701.57
443.05	1603.27
443.24	1682.85
443.43	1657.10
443.61	1717.95
443.80	1739.02
443.98	1753.06
444.17	1586.88
444.35	1715.61
444.54	1741.36
444.73	1776.47
444.91	1626.67
445.10	1699.23
445.28	1542.41
445.47	1497.94
445.65	1561.14
445.84	1607.95
446.02	1614.97
446.21	1734.34
446.39	1680.50
446.58	1818.60
446.77	1661.78
446.95	1654.76
447.14	1778.81
447.32	1788.17
447.51	1727.32
447.69	1732.00
447.88	1739.02
448.06	1638.38
448.25	1774.13
448.43	1680.50
448.62	1762.42
448.80	1692.21
448.99	1654.76
449.17	1727.32
449.36	1764.76
449.54	1839.66
449.73	1811.57
449.91	1863.07
450.10	1975.41
450.28	1933.28
450.46	1984.77
450.65	1820.94
450.83	1895.83
451.02	1849.02
451.20	1940.30
451.39	1900.52
451.57	1832.64
451.76	1792.85
451.94	1743.70
452.13	1739.02
452.31	1624.33
452.49	1528.37
452.68	1767.10
452.86	1654.76
453.05	1750.72
453.23	1703.91
453.42	1678.16
453.60	1874.77
453.78	1849.02
453.97	1827.96
454.15	1818.60
454.34	1802.21
454.52	1813.92
454.70	1682.85
454.89	1741.36
455.07	1713.27
455.26	1774.13
455.44	1881.79
455.62	1893.49
455.81	1879.45
455.99	1916.90
456.17	1774.13
456.36	1799.87
456.54	1804.55
456.73	1895.83
456.91	1928.60
457.09	2005.84
457.28	1865.41
457.46	1928.60
457.64	1858.39
457.83	1853.70
458.01	1842.00
458.19	1806.89
458.38	1846.68
458.56	1912.22
458.74	1984.77
458.93	1783.49
459.11	1846.68
459.29	1823.28
459.48	1877.11
459.66	1783.49
459.84	1937.96
460.03	1849.02
460.21	1769.44
460.39	1930.94
460.57	1961.37
460.76	1998.82
460.94	1961.37
461.12	1926.26
461.31	1928.60
461.49	1870.09
461.67	1905.20
461.85	1949.67
462.04	1977.75
462.22	2097.12
462.40	2026.90
462.59	1982.43
462.77	1942.64
462.95	2038.61
463.13	1851.36
463.32	1940.30
463.50	1909.88
463.68	1963.71
463.86	1930.94
464.05	2043.29
464.23	1895.83
464.41	1844.34
464.59	1844.34
464.78	1785.83
464.96	1877.11
465.14	1900.52
465.32	1914.56
465.50	1909.88
465.69	1963.71
465.87	1912.22
466.05	1956.69
466.23	1708.59
466.41	1750.72
466.60	1757.74
466.78	1799.87
466.96	1813.92
467.14	1940.30
467.32	2022.22
467.51	1874.77
467.69	1867.75
467.87	1942.64
468.05	1856.04
468.23	1961.37
468.41	1916.90
468.60	1970.73
468.78	1902.86
468.96	1909.88
469.14	1912.22
469.32	2010.52
469.50	1928.60
469.69	1818.60
469.87	1743.70
470.05	1895.83
470.23	1893.49
470.41	1905.20
470.59	1923.92
470.77	1865.41
470.95	1907.54
471.14	1982.43
471.32	1856.04
471.50	2003.50
471.68	1942.64
471.86	2080.74
472.04	2113.50
472.22	2148.61
472.40	1905.20
472.58	1937.96
472.77	1905.20
472.95	1947.33
473.13	1954.35
473.31	1914.56
473.49	2052.65
473.67	2029.24
473.85	1961.37
474.03	2209.47
474.21	2092.44
474.39	2040.95
474.57	2071.37
474.75	2064.35
474.93	2080.74
475.12	2148.61
475.30	2120.53
475.48	2066.69
475.66	2125.21
475.84	2047.97
476.02	2052.65
476.20	2064.35
476.38	2017.54
476.56	2026.90
476.74	2204.78
476.92	2104.14
477.10	2251.60
477.28	2282.02
477.46	2223.51
477.64	2361.60
477.82	2230.53
478.00	2335.85
478.18	2300.75
478.36	2279.68
478.54	2253.94
478.72	2328.83
478.90	2319.47
479.08	2354.58
479.26	2422.45
479.44	2352.24
479.62	2359.26
479.80	2436.50
479.98	2331.17
480.16	2499.69
480.34	2485.65
480.52	2469.27
480.70	2497.35
480.88	2455.22
481.06	2567.57
481.24	2469.27
481.41	2487.99
481.59	2586.29
481.77	2590.97
481.95	2586.29
482.13	2509.05
482.31	2516.08
482.49	2764.17
482.67	2703.32
482.85	2448.20
483.03	2490.33
483.21	2759.49
483.39	2757.15
483.57	2569.91
483.74	2651.83
483.92	2670.55
484.10	2590.97
484.28	2675.23
484.46	2708.00
484.64	2754.81
484.82	2743.11
485.00	2670.55
485.18	2644.81
485.35	2553.52
485.53	2321.81
485.71	2113.50
485.89	2043.29
486.07	2139.25
486.25	2354.58
486.43	2513.74
486.61	2569.91
486.78	2600.34
486.96	2534.80
487.14	2782.90
487.32	2822.69
487.50	2928.01
487.68	2967.80
487.85	2904.60
488.03	2998.23
488.21	2988.86
488.39	3000.57
488.57	2754.81
488.75	2778.22
488.92	2956.10
489.10	3070.78
489.28	3136.32
489.46	3356.33
489.64	3311.86
489.81	3208.87
489.99	3208.87
490.17	3246.32
490.35	3243.98
490.53	3234.62
490.70	3213.56
490.88	3211.22
491.06	3302.50
491.24	3213.56
491.41	3164.40
491.59	3061.42
491.77	2902.26
491.95	3035.67
492.13	3269.73
492.30	3316.54
492.48	3456.97
492.66	3515.48
492.84	3389.10
493.01	3534.21
493.19	3295.47
493.37	3302.50
493.54	3332.92
493.72	3346.97
493.90	3538.89
494.08	3660.60
494.25	3604.42
494.43	3513.14
494.61	3599.74
494.79	3723.79
494.96	3688.68
495.14	3700.39
495.32	3578.68
495.49	3335.26
495.67	3555.27
495.85	3667.62
496.02	3707.41
496.20	3681.66
496.38	3618.47
496.55	3641.87
496.73	3569.32
496.91	3667.62
497.09	3908.69
497.26	3822.09
497.44	3698.05
497.62	3569.32
497.79	3463.99
497.97	3332.92
498.14	3440.59
498.32	3634.85
498.50	3871.25
498.67	3819.75
498.85	3873.59
499.03	3723.79
499.20	3730.81
499.38	3756.56
499.56	3763.58
499.73	3623.15
499.91	3714.43
500.08	3489.74
500.26	3541.23
500.44	3672.30
500.61	3630.17
500.79	3749.54
500.97	3510.80
501.14	3454.63
501.32	3375.05
501.49	3510.80
501.67	3524.85
501.84	3562.30
502.02	3578.68
502.20	3672.30
502.37	3709.75
502.55	3515.48
502.72	3714.43
502.90	3845.50
503.07	3925.08
503.25	3768.26
503.43	3599.74
503.60	3691.02
503.78	3447.61
503.95	3559.95
504.13	3662.94
504.30	3803.37
504.48	3901.67
504.65	3716.77
504.83	3686.34
505.01	3784.65
505.18	3971.89
505.36	4025.72
505.53	4025.72
505.71	3943.80
505.88	3967.21
506.06	3906.35
506.23	3812.73
506.41	3740.18
506.58	3700.39
506.76	3812.73
506.93	3742.52
507.11	3875.93
507.28	3740.18
507.46	3644.21
507.63	3627.83
507.81	3653.58
507.98	3625.49
508.16	3648.90
508.33	3817.41
508.50	3840.82
508.68	3927.42
508.85	3948.48
509.03	3901.67
509.20	4044.45
509.38	3840.82
509.55	3737.84
509.73	3840.82
509.90	3911.04
510.08	3971.89
510.25	4011.68
510.42	3878.27
510.60	3995.29
510.77	3805.71
510.95	3969.55
511.12	3946.14
511.30	4011.68
511.47	4227.01
511.64	3927.42
511.82	4053.81
511.99	3847.84
512.17	3885.29
512.34	3693.37
512.51	3803.37
512.69	3859.54
512.86	3911.04
513.04	3957.85
513.21	3824.44
513.38	3864.22
513.56	3592.72
513.73	3559.95
513.90	3721.45
514.08	3782.31
514.25	3850.18
514.43	3896.99
514.60	3810.39
514.77	3744.86
514.95	3941.46
515.12	3880.61
515.29	3861.88
515.47	3969.55
515.64	4030.40
515.81	3843.16
515.99	3892.31
516.16	3644.21
516.33	3260.37
516.51	3061.42
516.68	3122.27
516.85	3007.59
517.03	3014.61
517.20	3358.67
517.37	3620.81
517.54	3782.31
517.72	3812.73
517.89	3382.07
518.06	3180.79
518.24	3155.04
518.41	3382.07
518.58	3644.21
518.75	3665.28
518.93	3632.51
519.10	3679.32
519.27	3637.19
519.45	3707.41
519.62	3749.54
519.79	3749.54
519.96	3775.28
520.14	3836.14
520.31	3815.07
520.48	3679.32
520.65	3728.47
520.83	3960.19
521.00	3859.54
521.17	3794.01
521.34	3772.94
521.52	3775.28
521.69	3969.55
521.86	3784.65
522.03	3812.73
522.20	3784.65
522.38	3527.19
522.55	3503.78
522.72	3571.66
522.89	3662.94
523.07	3716.77
523.24	3817.41
523.41	3932.10
523.58	4058.49
523.75	4021.04
523.92	3976.57
524.10	3976.57
524.27	3969.55
524.44	4053.81
524.61	3911.04
524.78	3866.56
524.96	3936.78
525.13	3894.65
525.30	3775.28
525.47	4114.66
525.64	4105.30
525.81	3812.73
525.98	3578.68
526.16	3454.63
526.33	3323.56
526.50	3281.43
526.67	3290.79
526.84	3248.66
527.01	3489.74
527.18	3646.55
527.36	3758.90
527.53	3941.46
527.70	3922.74
527.87	3779.97
528.04	3775.28
528.21	3920.40
528.38	3955.51
528.55	4060.83
528.72	4053.81
528.89	4067.85
529.07	4039.76
529.24	4060.83
529.41	3885.29
529.58	3768.26
529.75	3695.71
529.92	3688.68
530.09	3784.65
530.26	3911.04
530.43	3817.41
530.60	3957.85
530.77	4093.60
530.94	4163.81
531.11	4014.02
531.28	3850.18
531.46	3831.46
531.63	3896.99
531.80	3873.59
531.97	3838.48
532.14	3609.11
532.31	3623.15
532.48	3428.88
532.65	3353.99
532.82	3669.96
532.99	3681.66
533.16	3843.16
533.33	3880.61
533.50	3911.04
533.67	3794.01
533.84	3639.53
534.01	3749.54
534.18	3726.13
534.35	3777.62
534.52	3934.44
534.69	3845.50
534.86	3803.37
535.03	3719.11
535.20	3967.21
535.37	4084.23
535.54	3976.57
535.71	3964.87
535.88	3899.33
536.05	3808.05
536.22	3595.06
536.38	3735.50
536.55	3604.42
536.72	3583.36
536.89	3616.13
537.06	3545.91
537.23	3660.60
537.40	3822.09
537.57	3779.97
537.74	3836.14
537.91	3789.33
538.08	3730.81
538.25	3709.75
538.42	3920.40
538.59	3794.01
538.75	3658.26
538.92	3571.66
539.09	3623.15
539.26	3595.06
539.43	3515.48
539.60	3716.77
539.77	3625.49
539.94	3765.92
540.11	3499.10
540.28	3543.57
540.44	3414.84
540.61	3503.78
540.78	3597.40
540.95	3433.57
541.12	3592.72
541.29	3789.33
541.46	3634.85
541.62	3585.70
541.79	3662.94
541.96	3599.74
542.13	3566.98
542.30	3590.38
542.47	3737.84
542.63	3709.75
542.80	3499.10
542.97	3599.74
543.14	3538.89
543.31	3634.85
543.48	3728.47
543.64	3735.50
543.81	3812.73
543.98	3981.25
544.15	3644.21
544.32	3555.27
544.48	3590.38
544.65	3698.05
544.82	3737.84
544.99	3777.62
545.16	3613.79
545.32	3632.51
545.49	3763.58
545.66	3901.67
545.83	3747.20
546.00	3693.37
546.16	3564.64
546.33	3723.79
546.50	3538.89
546.67	3693.37
546.83	3566.98
547.00	3578.68
547.17	3531.87
547.34	3480.38
547.50	3389.10
547.67	3545.91
547.84	3513.14
548.00	3510.80
548.17	3562.30
548.34	3630.17
548.51	3510.80
548.67	3623.15
548.84	3744.86
549.01	3588.04
549.18	3588.04
549.34	3557.61
549.51	3597.40
549.68	3562.30
549.84	3440.59
550.01	3543.57
550.18	3562.30
550.34	3452.29
550.51	3466.33
550.68	3513.14
550.84	3421.86
551.01	3440.59
551.18	3454.63
551.34	3538.89
551.51	3417.18
551.68	3651.24
551.84	3545.91
552.01	3698.05
552.18	3602.08
552.34	3445.27
552.51	3407.82
552.68	3318.88
552.84	3435.91
553.01	3494.42
553.18	3295.47
553.34	3330.58
553.51	3590.38
553.67	3611.45
553.84	3517.83
554.01	3379.73
554.17	3466.33
554.34	3529.53
554.51	3595.06
554.67	3517.83
554.84	3543.57
555.00	3447.61
555.17	3459.31
555.33	3412.50
555.50	3349.31
555.67	3503.78
555.83	3461.65
556.00	3321.22
556.16	3400.80
556.33	3269.73
556.50	3375.05
556.66	3356.33
556.83	3297.81
556.99	3419.52
557.16	3187.81
557.32	3307.18
557.49	3365.69
557.65	3382.07
557.82	3342.28
557.98	3260.37
558.15	3176.11
558.32	3178.45
558.48	3110.57
558.65	3094.19
558.81	3180.79
558.98	3227.60
559.14	3339.94
559.31	3316.54
559.47	3194.83
559.64	3180.79
559.80	3126.96
559.97	3126.96
560.13	3243.98
560.30	3276.75
560.46	3356.33
560.63	3463.99
560.79	3365.69
560.96	3435.91
561.12	3124.62
561.29	3112.91
561.45	3084.83
561.61	3183.13
561.78	3213.56
561.94	3260.37
562.11	3201.85
562.27	3131.64
562.44	3208.87
562.60	3185.47
562.77	3192.49
562.93	3339.94
563.10	3353.99
563.26	3241.64
563.42	3344.63
563.59	3152.70
563.75	3246.32
563.92	3066.10
564.08	3215.90
564.24	3180.79
564.41	3213.56
564.57	3215.90
564.74	3110.57
564.90	3232.28
565.07	3272.07
565.23	3162.06
565.39	3056.74
565.56	3049.72
565.72	2909.29
565.88	2942.05
566.05	3159.72
566.21	3061.42
566.38	3145.68
566.54	3091.85
566.70	3082.49
566.87	3150.36
567.03	3117.59
567.19	3199.51
567.36	3117.59
567.52	3105.89
567.68	3124.62
567.85	2909.29
568.01	3049.72
568.17	2904.60
568.34	2806.30
568.50	3042.70
568.66	3030.99
568.83	2951.42
568.99	3077.80
569.15	3122.27
569.32	3073.12
569.48	2911.63
569.64	2949.08
569.81	2930.35
569.97	2813.32
570.13	2871.84
570.30	2764.17
570.46	2860.13
570.62	2698.64
570.78	2834.39
570.95	2754.81
571.11	2801.62
571.27	2918.65
571.43	2928.01
571.60	2897.58
571.76	3019.29
571.92	2930.35
572.09	3073.12
572.25	2984.18
572.41	2939.71
572.57	2965.46
572.74	3000.57
572.90	2890.56
573.06	2953.76
573.22	2836.73
573.38	2916.31
573.55	2965.46
573.71	2935.03
573.87	3012.27
574.03	2752.47
574.20	3009.93
574.36	2761.83
574.52	2853.11
574.68	2857.79
574.84	2895.24
575.01	2820.35
575.17	2846.09
575.33	2747.79
575.49	2836.73
575.65	2813.32
575.82	2773.53
575.98	2635.44
576.14	2801.62
576.30	2822.69
576.46	2913.97
576.62	2759.49
576.79	2752.47
576.95	2733.75
577.11	2775.88
577.27	2904.60
577.43	2761.83
577.59	2663.53
577.75	2679.91
577.92	2663.53
578.08	2595.65
578.24	2637.78
578.40	2541.82
578.56	2722.04
578.72	2602.68
578.88	2637.78
579.04	2698.64
579.21	2647.15
579.37	2717.36
579.53	2794.60
579.69	2855.45
579.85	2651.83
580.01	2902.26
580.17	2745.45
580.33	2806.30
580.49	2630.76
580.65	2558.21
580.82	2686.94
580.98	2703.32
581.14	2696.30
581.30	2857.79
581.46	2658.85
581.62	2752.47
581.78	2597.99
581.94	2689.28
582.10	2736.09
582.26	2764.17
582.42	2752.47
582.58	2773.53
582.74	2834.39
582.90	2700.98
583.06	2679.91
583.22	2637.78
583.38	2794.60
583.54	2675.23
583.70	2668.21
583.86	2642.46
584.02	2757.15
584.18	2705.66
584.34	2649.49
584.50	2551.18
584.66	2712.68
584.82	2654.17
584.98	2759.49
585.14	2558.21
585.30	2509.05
585.46	2485.65
585.62	2506.71
585.78	2609.70
585.94	2478.63
586.10	2506.71
586.26	2537.14
586.42	2527.78
586.58	2602.68
586.74	2675.23
586.90	2497.35
587.06	2649.49
587.22	2555.86
587.38	2640.12
587.54	2396.71
587.70	2511.39
587.86	2588.63
588.02	2424.80
588.18	2478.63
588.34	2375.64
588.49	2190.74
588.65	2092.44
588.81	2087.76
588.97	2029.24
589.13	2111.16
589.29	2169.68
589.45	2113.50
589.61	2026.90
589.77	2328.83
589.93	2377.98
590.08	2410.75
590.24	2331.17
590.40	2385.01
590.56	2394.37
590.72	2427.14
590.88	2389.69
591.04	2363.94
591.20	2331.17
591.35	2284.36
591.51	2476.29
591.67	2403.73
591.83	2387.35
591.99	2406.07
592.15	2394.37
592.31	2349.90
592.46	2392.03
592.62	2401.39
592.78	2356.92
592.94	2530.12
593.10	2370.96
593.26	2445.86
593.41	2415.43
593.57	2333.51
593.73	2342.88
593.89	2396.71
594.05	2368.62
594.20	2324.15
594.36	2244.57
594.52	2200.10
594.68	2232.87
594.84	2279.68
594.99	2399.05
595.15	2331.17
595.31	2291.38
595.47	2392.03
595.62	2319.47
595.78	2286.70
595.94	2331.17
596.10	2300.75
596.25	2335.85
596.41	2251.60
596.57	2340.54
596.73	2333.51
596.88	2249.25
597.04	2307.77
597.20	2359.26
597.36	2319.47
597.51	2312.45
597.67	2232.87
597.83	2321.81
597.99	2340.54
598.14	2225.85
598.30	2289.04
598.46	2258.62
598.61	2228.19
598.77	2237.55
598.93	2225.85
599.09	2338.20
599.24	2195.42
599.40	2377.98
599.56	2279.68
599.71	2284.36
599.87	2197.76
600.03	2389.69
600.18	2239.89
600.34	2277.34
600.50	2136.91
600.65	2253.94
600.81	2150.95
600.97	2169.68
601.12	2036.27
601.28	2211.81
601.44	2167.34
601.59	2122.87
601.75	2202.44
601.91	2251.60
602.06	2111.16
602.22	2150.95
602.37	2260.96
602.53	2223.51
602.69	2125.21
602.84	2331.17
603.00	2179.04
603.16	2291.38
603.31	2333.51
603.47	2263.30
603.62	2200.10
603.78	2270.32
603.94	2183.72
604.09	2190.74
604.25	2204.78
604.40	2143.93
604.56	2239.89
604.71	2146.27
604.87	2083.08
605.03	2129.89
605.18	2104.14
605.34	2076.06
605.49	2083.08
605.65	2172.02
605.80	2080.74
605.96	2141.59
606.12	2237.55
606.27	2157.97
606.43	2122.87
606.58	2129.89
606.74	2073.71
606.89	2057.33
607.05	2005.84
607.20	2033.93
607.36	2062.01
607.51	2083.08
607.67	2099.46
607.82	2026.90
607.98	2031.58
608.13	2052.65
608.29	1973.07
608.44	2050.31
608.60	2033.93
608.75	1970.73
608.91	2047.97
609.06	2097.12
609.22	2036.27
609.37	2057.33
609.53	1937.96
609.68	2064.35
609.84	2008.18
609.99	1977.75
610.15	2043.29
610.30	2022.22
610.46	2054.99
610.61	2113.50
610.76	2083.08
610.92	2221.17
611.07	2122.87
611.23	2073.71
611.38	2083.08
611.54	1937.96
611.69	1956.69
611.84	1916.90
612.00	1952.01
612.15	2036.27
612.31	2062.01
612.46	2005.84
612.62	1914.56
612.77	1926.26
612.92	2090.10
613.08	1893.49
613.23	1963.71
613.39	1952.01
613.54	1900.52
613.69	1839.66
613.85	1867.75
614.00	1891.15
614.15	1949.67
614.31	1895.83
614.46	1886.47
614.62	1921.58
614.77	1872.43
614.92	1853.70
615.08	1900.52
615.23	1863.07
615.38	1902.86
615.54	1881.79
615.69	1846.68
615.84	1701.57
616.00	1849.02
616.15	1619.65
616.30	1806.89
616.46	1844.34
616.61	1785.83
616.76	1769.44
616.92	1760.08
617.07	1809.23
617.22	1781.15
617.37	1881.79
617.53	1846.68
617.68	1940.30
617.83	1809.23
617.99	1827.96
618.14	1792.85
618.29	1858.39
618.45	1771.79
618.60	1837.32
618.75	1720.29
618.90	1792.85
619.06	1846.68
619.21	1832.64
619.36	1753.06
619.51	1813.92
619.67	1703.91
619.82	1776.47
619.97	1863.07
620.12	1806.89
620.28	1816.26
620.43	1799.87
620.58	1863.07
620.73	1823.28
620.89	1809.23
621.04	1806.89
621.19	1802.21
621.34	1750.72
621.49	1657.10
621.65	1795.19
621.80	1696.89
621.95	1790.51
622.10	1746.04
622.25	1694.55
622.41	1809.23
622.56	1633.69
622.71	1771.79
622.86	1621.99
623.01	1659.44
623.16	1645.40
623.32	1736.68
623.47	1675.82
623.62	1696.89
623.77	1692.21
623.92	1624.33
624.07	1661.78
624.23	1668.80
624.38	1600.93
624.53	1579.86
624.68	1638.38
624.83	1596.25
624.98	1593.90
625.13	1528.37
625.29	1607.95
625.44	1624.33
625.59	1600.93
625.74	1535.39
625.89	1530.71
626.04	1605.61
626.19	1584.54
626.34	1519.01
626.49	1500.28
626.65	1647.74
626.80	1621.99
626.95	1589.22
627.10	1540.07
627.25	1556.46
627.40	1544.75
627.55	1486.24
627.70	1490.92
627.85	1432.41
628.00	1465.18
628.15	1493.26
628.30	1474.54
628.45	1448.79
628.60	1420.71
628.76	1453.47
628.91	1561.14
629.06	1521.35
629.21	1591.56
629.36	1476.88
629.51	1521.35
629.66	1453.47
629.81	1458.15
629.96	1474.54
630.11	1572.84
630.26	1430.07
630.41	1488.58
630.56	1409.00
630.71	1434.75
630.86	1441.77
631.01	1448.79
631.16	1362.19
631.31	1558.80
631.46	1359.85
631.61	1348.15
631.76	1423.05
631.91	1533.05
632.06	1584.54
632.21	1544.75
632.36	1439.43
632.51	1413.68
632.66	1416.02
632.81	1577.52
632.96	1504.96
633.10	1488.58
633.25	1313.04
633.40	1338.79
633.55	1462.83
633.70	1437.09
633.85	1497.94
634.00	1509.65
634.15	1423.05
634.30	1439.43
634.45	1439.43
634.60	1299.00
634.75	1460.49
634.90	1343.47
635.05	1320.06
635.19	1355.17
635.34	1320.06
635.49	1432.41
635.64	1366.87
635.79	1273.25
635.94	1376.24
636.09	1355.17
636.24	1336.45
636.39	1446.45
636.53	1448.79
636.68	1390.28
636.83	1434.75
636.98	1399.64
637.13	1401.98
637.28	1401.98
637.43	1399.64
637.57	1359.85
637.72	1387.94
637.87	1411.34
638.02	1444.11
638.17	1448.79
638.32	1490.92
638.46	1523.69
638.61	1465.18
638.76	1376.24
638.91	1343.47
639.06	1413.68
639.20	1362.19
639.35	1308.36
639.50	1242.82
639.65	1324.74
639.80	1366.87
639.94	1399.64
640.09	1296.66
640.24	1406.66
640.39	1277.93
640.54	1289.64
640.68	1231.12
640.83	1203.04
640.98	1226.44
641.13	1245.16
641.27	1341.13
641.42	1259.21
641.57	1214.74
641.72	1299.00
641.86	1336.45
642.01	1273.25
642.16	1336.45
642.31	1240.48
642.45	1252.19
642.60	1296.66
642.75	1179.63
642.90	1193.67
643.04	1238.14
643.19	1242.82
643.34	1385.60
643.48	1210.06
643.63	1200.69
643.78	1142.18
643.93	1317.72
644.07	1240.48
644.22	1193.67
644.37	1284.95
644.51	1177.29
644.66	1165.59
644.81	1247.51
644.95	1235.80
645.10	1186.65
645.25	1259.21
645.39	1181.97
645.54	1121.12
645.69	1207.72
645.83	1170.27
645.98	1235.80
646.13	1071.97
646.27	1132.82
646.42	1212.40
646.57	1158.57
646.71	1301.34
646.86	1214.74
647.00	1144.52
647.15	1196.01
647.30	1104.73
647.44	1128.14
647.59	1139.84
647.74	1226.44
647.88	1151.54
648.03	1165.59
648.17	1191.33
648.32	1203.04
648.47	1193.67
648.61	1130.48
648.76	1025.15
648.90	1249.85
649.05	1064.94
649.20	945.58
649.34	1004.09
649.49	1100.05
649.63	1121.12
649.78	1114.10
649.92	1165.59
650.07	1095.37
650.21	1132.82
650.36	1144.52
650.51	1200.69
650.65	1184.31
650.80	1163.25
650.94	1135.16
651.09	1158.57
651.23	990.05
651.38	983.02
651.52	1032.18
651.67	1053.24
651.81	1032.18
651.96	1067.28
652.10	1118.78
652.25	1081.33
652.39	1174.95
652.54	1027.50
652.68	1088.35
652.83	1074.31
652.97	1146.86
653.12	1067.28
653.26	1104.73
653.41	1181.97
653.55	1123.46
653.70	1069.62
653.84	1032.18
653.99	1090.69
654.13	1043.88
654.27	1048.56
654.42	980.68
654.56	1004.09
654.71	1043.88
654.85	1039.20
655.00	1048.56
655.14	1097.71
655.29	976.00
655.43	922.17
655.57	980.68
655.72	788.76
655.86	784.08
656.01	709.18
656.15	770.04
656.30	786.42
656.44	772.38
656.58	866.00
656.73	947.92
656.87	968.98
657.01	1041.54
657.16	1118.78
657.30	919.83
657.45	1022.81
657.59	987.71
657.73	973.66
657.88	1043.88
658.02	1004.09
658.16	1034.52
658.31	978.34
658.45	936.21
658.60	1011.11
658.74	1032.18
658.88	952.60
659.03	851.96
659.17	978.34
659.31	894.08
659.46	966.64
659.60	976.00
659.74	992.39
659.89	1081.33
660.03	1039.20
660.17	1001.75
660.32	957.28
660.46	912.81
660.60	1001.75
660.74	1008.77
660.89	952.60
661.03	938.55
661.17	917.49
661.32	987.71
661.46	976.00
661.60	959.62
661.74	926.85
661.89	1074.31
662.03	992.39
662.17	983.02
662.31	945.58
662.46	987.71
662.60	1053.24
662.74	964.30
662.88	1093.03
663.03	933.87
663.17	1022.81
663.31	854.30
663.45	943.24
663.60	976.00
663.74	901.11
663.88	856.64
664.02	961.96
664.17	866.00
664.31	912.81
664.45	866.00
664.59	896.43
664.73	903.45
664.88	936.21
665.02	952.60
665.16	877.70
665.30	844.93
665.44	952.60
665.59	894.08
665.73	870.68
665.87	940.90
666.01	889.40
666.15	894.08
666.29	912.81
666.44	802.80
666.58	830.89
666.72	734.93
666.86	807.48
667.00	814.51
667.14	821.53
667.28	854.30
667.43	833.23
667.57	856.64
667.71	858.98
667.85	812.17
667.99	805.14
668.13	781.74
668.27	814.51
668.41	772.38
668.56	884.72
668.70	844.93
668.84	837.91
668.98	849.61
669.12	744.29
669.26	840.25
669.40	830.89
669.54	833.23
669.68	863.66
669.82	805.14
669.96	812.17
670.10	732.59
670.25	823.87
670.39	938.55
670.53	828.55
670.67	758.33
670.81	746.63
670.95	833.23
671.09	816.85
671.23	730.25
671.37	709.18
671.51	716.20
671.65	751.31
671.79	706.84
671.93	753.65
672.07	695.14
672.21	704.50
672.35	788.76
672.49	704.50
672.63	695.14
672.77	669.39
672.91	784.08
673.05	730.25
673.19	685.78
673.33	606.20
673.47	718.54
673.61	681.10
673.75	688.12
673.89	741.95
674.03	748.97
674.17	716.20
674.31	730.25
674.45	706.84
674.59	781.74
674.73	788.76
674.87	657.69
675.01	613.22
675.15	702.16
675.29	643.65
675.43	718.54
675.56	678.76
675.70	688.12
675.84	671.73
675.98	648.33
676.12	634.29
676.26	674.07
676.40	718.54
676.54	589.82
676.68	727.91
676.82	669.39
676.96	561.73
677.10	599.18
677.23	671.73
677.37	676.41
677.51	615.56
677.65	573.43
677.79	650.67
677.93	617.90
678.07	631.94
678.21	627.26
678.34	713.86
678.48	617.90
678.62	601.52
678.76	629.60
678.90	636.63
679.04	589.82
679.18	624.92
679.31	608.54
679.45	575.77
679.59	592.16
679.73	557.05
679.87	624.92
680.00	638.97
680.14	573.43
680.28	533.64
680.42	505.56
680.56	510.24
680.70	603.86
680.83	575.77
680.97	575.77
681.11	505.56
681.25	559.39
681.39	582.79
681.52	617.90
681.66	517.26
681.80	538.32
681.94	540.66
682.07	561.73
682.21	514.92
682.35	592.16
682.49	449.38
682.62	519.60
682.76	517.26
682.90	559.39
683.04	470.45
683.17	449.38
683.31	484.49
683.45	599.18
683.59	528.96
683.72	538.32
683.86	475.13
684.00	416.62
684.13	379.17
684.27	465.77
684.41	421.30
684.55	514.92
684.68	475.13
684.82	512.58
684.96	440.02
685.09	468.11
685.23	362.78
685.37	449.38
685.50	500.87
685.64	447.04
685.78	437.68
685.91	407.25
686.05	468.11
686.19	517.26
686.32	390.87
686.46	280.86
686.60	231.71
686.73	166.18
686.87	201.29
687.01	180.22
687.14	212.99
687.28	229.37
687.42	203.63
687.55	212.99
687.69	367.46
687.82	330.02
687.96	334.70
688.10	276.18
688.23	369.80
688.37	341.72
688.50	276.18
688.64	285.55
688.78	301.93
688.91	266.82
689.05	266.82
689.18	259.80
689.32	205.97
689.46	280.86
689.59	269.16
689.73	292.57
689.86	276.18
690.00	304.27
690.13	322.99
690.27	320.65
690.41	222.35
690.54	259.80
690.68	294.91
690.81	283.20
690.95	227.03
691.08	278.52
691.22	212.99
691.35	269.16
691.49	283.20
691.62	234.05
691.76	341.72
691.89	304.27
692.03	311.29
692.16	248.10
692.30	313.63
692.43	304.27
692.57	301.93
692.70	255.12
692.84	287.89
692.97	236.39
693.11	229.37
693.24	252.78
693.38	269.16
693.51	210.65
693.65	320.65
693.78	234.05
693.92	227.03
694.05	227.03
694.19	257.46
694.32	217.67
694.45	215.33
694.59	212.99
694.72	210.65
694.86	241.08
694.99	166.18
695.13	278.52
695.26	152.13
695.39	248.10
695.53	299.59
695.66	205.97
695.80	234.05
695.93	215.33
696.07	194.26
696.20	161.50
696.33	201.29
696.47	215.33
696.60	280.86
696.73	292.57
696.87	250.44
697.00	257.46
697.14	262.14
697.27	210.65
697.40	259.80
697.54	231.71
697.67	161.50
697.80	210.65
697.94	152.13
698.07	220.01
698.21	220.01
698.34	138.09
698.47	234.05
698.61	180.22
698.74	210.65
698.87	255.12
699.01	140.43
699.14	231.71
699.27	187.24
699.40	278.52
699.54	124.05
699.67	145.11
699.80	100.64
699.94	166.18
700.07	175.54
700.20	149.79
700.34	175.54
700.47	154.48
700.60	203.63
700.73	168.52
700.87	133.41
701.00	177.88
701.13	53.83
701.26	147.45
701.40	161.50
701.53	145.11
701.66	168.52
701.79	100.64
701.93	124.05
702.06	149.79
702.19	79.58
702.32	18.72
702.46	18.72
702.59	102.98
702.72	173.20
702.85	105.32
702.99	147.45
703.12	156.82
703.25	236.39
703.38	175.54
703.51	166.18
703.65	138.09
703.78	112.35
703.91	133.41
704.04	112.35
704.17	84.26
704.31	86.60
704.44	81.92
704.57	145.11
704.70	11.70
704.83	184.90
704.96	79.58
705.10	100.64
705.23	95.96
>>>>>End Processed Spectral Data<<<<<
