SpectraSuite Data File
++++++++++++++++++++++++++++++++++++
Date: Mon Oct 07 14:54:55 GMT-05:00 2013
User: price-jones
Dark Spectrum Present: No
Reference Spectrum Present: No
Number of Sampled Component Spectra: 1
Spectrometers: USB2+H05261
Integration Time (usec): 10000 (USB2+H05261)
Spectra Averaged: 1 (USB2+H05261)
Boxcar Smoothing: 0 (USB2+H05261)
Correct for Electrical Dark: No (USB2+H05261)
Strobe/Lamp Enabled: No (USB2+H05261)
Correct for Detector Non-linearity: No (USB2+H05261)
Correct for Stray Light: No (USB2+H05261)
Number of Pixels in Processed Spectrum: 2048
>>>>>Begin Processed Spectral Data<<<<<
365.73	0.00
365.92	0.00
366.12	0.00
366.32	0.00
366.52	0.00
366.72	0.00
366.91	0.00
367.11	0.00
367.31	0.00
367.51	0.00
367.70	0.00
367.90	0.00
368.10	0.00
368.30	0.00
368.49	0.00
368.69	0.00
368.89	0.00
369.09	0.00
369.28	0.00
369.48	0.00
369.68	0.00
369.87	0.00
370.07	0.00
370.27	0.00
370.47	0.00
370.66	0.00
370.86	35.11
371.06	35.11
371.25	4.68
371.45	0.00
371.65	0.00
371.84	7.02
372.04	18.72
372.24	0.00
372.44	0.00
372.63	53.83
372.83	0.00
373.03	0.00
373.22	0.00
373.42	0.00
373.62	0.00
373.81	0.00
374.01	21.06
374.21	121.71
374.40	0.00
374.60	35.11
374.79	53.83
374.99	81.92
375.19	2.34
375.38	30.43
375.58	42.13
375.78	126.39
375.97	25.75
376.17	121.71
376.37	53.83
376.56	65.54
376.76	100.64
376.95	187.24
377.15	231.71
377.35	194.26
377.54	126.39
377.74	184.90
377.93	152.13
378.13	210.65
378.33	156.82
378.52	119.37
378.72	142.77
378.91	102.98
379.11	32.77
379.31	110.01
379.50	105.32
379.70	163.84
379.89	142.77
380.09	140.43
380.28	156.82
380.48	182.56
380.68	86.60
380.87	135.75
381.07	194.26
381.26	173.20
381.46	161.50
381.65	74.90
381.85	102.98
382.04	0.00
382.24	21.06
382.43	2.34
382.63	0.00
382.83	0.00
383.02	21.06
383.22	0.00
383.41	23.41
383.61	0.00
383.80	112.35
384.00	117.03
384.19	222.35
384.39	133.41
384.58	215.33
384.78	102.98
384.97	154.48
385.17	149.79
385.36	102.98
385.56	145.11
385.75	93.62
385.95	196.60
386.14	224.69
386.34	243.42
386.53	215.33
386.72	177.88
386.92	91.28
387.11	191.92
387.31	194.26
387.50	79.58
387.70	142.77
387.89	177.88
388.09	208.31
388.28	159.16
388.48	126.39
388.67	234.05
388.86	131.07
389.06	264.48
389.25	315.97
389.45	241.08
389.64	362.78
389.84	250.44
390.03	332.36
390.22	313.63
390.42	334.70
390.61	318.31
390.81	376.83
391.00	433.00
391.19	355.76
391.39	435.34
391.58	358.10
391.78	264.48
391.97	287.89
392.16	245.76
392.36	285.55
392.55	93.62
392.75	72.56
392.94	9.36
393.13	0.00
393.33	0.00
393.52	184.90
393.71	194.26
393.91	264.48
394.10	252.78
394.29	315.97
394.49	360.44
394.68	461.09
394.88	454.06
395.07	498.53
395.26	454.06
395.46	339.38
395.65	379.17
395.84	332.36
396.04	236.39
396.23	121.71
396.42	37.45
396.62	74.90
396.81	126.39
397.00	198.95
397.19	339.38
397.39	491.51
397.58	547.69
397.77	491.51
397.97	557.05
398.16	653.01
398.35	648.33
398.55	580.45
398.74	723.23
398.93	718.54
399.12	793.44
399.32	730.25
399.51	688.12
399.70	718.54
399.90	734.93
400.09	770.04
400.28	723.23
400.47	746.63
400.67	805.14
400.86	734.93
401.05	830.89
401.24	744.29
401.44	732.59
401.63	795.78
401.82	828.55
402.01	858.98
402.21	884.72
402.40	835.57
402.59	800.46
402.78	770.04
402.97	730.25
403.17	695.14
403.36	793.44
403.55	957.28
403.74	910.47
403.93	826.21
404.13	800.46
404.32	826.21
404.51	798.12
404.70	875.36
404.89	901.11
405.09	858.98
405.28	936.21
405.47	840.25
405.66	819.19
405.85	847.27
406.05	767.70
406.24	870.68
406.43	828.55
406.62	929.19
406.81	786.42
407.00	814.51
407.20	802.80
407.39	812.17
407.58	788.76
407.77	887.06
407.96	889.40
408.15	922.17
408.34	791.10
408.54	1022.81
408.73	1069.62
408.92	924.51
409.11	931.53
409.30	954.94
409.49	840.25
409.68	725.57
409.87	739.61
410.07	748.97
410.26	898.77
410.45	959.62
410.64	968.98
410.83	896.43
411.02	1043.88
411.21	1048.56
411.40	1076.65
411.59	1027.50
411.78	1142.18
411.98	1064.94
412.17	1053.24
412.36	1100.05
412.55	1041.54
412.74	1046.22
412.93	1071.97
413.12	994.73
413.31	1137.50
413.50	1095.37
413.69	1217.08
413.88	1130.48
414.07	1055.58
414.26	1104.73
414.45	1132.82
414.64	1053.24
414.83	1071.97
415.02	1064.94
415.22	1149.20
415.41	1109.41
415.60	1191.33
415.79	1207.72
415.98	1205.38
416.17	1301.34
416.36	1266.23
416.55	1224.10
416.74	1083.67
416.93	1071.97
417.12	1130.48
417.31	1210.06
417.50	1191.33
417.69	1212.40
417.88	1193.67
418.07	1102.39
418.26	1172.61
418.45	1163.25
418.64	1245.16
418.83	1224.10
419.02	1228.78
419.21	1210.06
419.39	1156.22
419.58	1135.16
419.77	1090.69
419.96	1114.10
420.15	1242.82
420.34	1219.42
420.53	1299.00
420.72	1313.04
420.91	1299.00
421.10	1224.10
421.29	1205.38
421.48	1256.87
421.67	1301.34
421.86	1348.15
422.05	1203.04
422.24	1011.11
422.43	1055.58
422.61	1163.25
422.80	1242.82
422.99	1310.70
423.18	1114.10
423.37	1153.88
423.56	1097.71
423.75	1167.93
423.94	1217.08
424.13	1219.42
424.32	1193.67
424.50	1242.82
424.69	1139.84
424.88	1121.12
425.07	1142.18
425.26	1254.53
425.45	1118.78
425.64	1062.60
425.83	1039.20
426.01	1170.27
426.20	1214.74
426.39	1205.38
426.58	1062.60
426.77	1004.09
426.96	936.21
427.15	1013.45
427.33	1163.25
427.52	1130.48
427.71	1093.03
427.90	1186.65
428.09	1188.99
428.28	1118.78
428.46	1128.14
428.65	1008.77
428.84	1006.43
429.03	1071.97
429.22	1022.81
429.40	971.32
429.59	908.13
429.78	870.68
429.97	791.10
430.16	755.99
430.34	744.29
430.53	664.71
430.72	809.83
430.91	786.42
431.10	987.71
431.28	1299.00
431.47	1486.24
431.66	1320.06
431.85	1184.31
432.03	1212.40
432.22	1076.65
432.41	1135.16
432.60	1210.06
432.79	1387.94
432.97	1392.62
433.16	1350.49
433.35	1299.00
433.54	1074.31
433.72	1032.18
433.91	971.32
434.10	1153.88
434.28	1266.23
434.47	1362.19
434.66	1242.82
434.85	1299.00
435.03	1256.87
435.22	1362.19
435.41	1362.19
435.59	1423.05
435.78	1507.30
435.97	1617.31
436.16	1509.65
436.34	1439.43
436.53	1406.66
436.72	1439.43
436.90	1390.28
437.09	1320.06
437.28	1256.87
437.46	1348.15
437.65	1348.15
437.84	1221.76
438.02	1074.31
438.21	1128.14
438.40	1193.67
438.58	1270.91
438.77	1390.28
438.96	1310.70
439.14	1385.60
439.33	1444.11
439.52	1495.60
439.70	1451.13
439.89	1556.46
440.08	1490.92
440.26	1369.21
440.45	1371.55
440.63	1437.09
440.82	1558.80
441.01	1654.76
441.19	1629.01
441.38	1699.23
441.57	1661.78
441.75	1724.97
441.94	1680.50
442.12	1600.93
442.31	1708.59
442.50	1713.27
442.68	1643.06
442.87	1724.97
443.05	1678.16
443.24	1696.89
443.43	1703.91
443.61	1589.22
443.80	1713.27
443.98	1664.12
444.17	1593.90
444.35	1746.04
444.54	1813.92
444.73	1739.02
444.91	1556.46
445.10	1530.71
445.28	1511.99
445.47	1542.41
445.65	1528.37
445.84	1575.18
446.02	1589.22
446.21	1647.74
446.39	1631.35
446.58	1629.01
446.77	1797.53
446.95	1598.59
447.14	1727.32
447.32	1687.53
447.51	1734.34
447.69	1624.33
447.88	1528.37
448.06	1671.14
448.25	1722.63
448.43	1741.36
448.62	1739.02
448.80	1689.87
448.99	1626.67
449.17	1570.50
449.36	1724.97
449.54	1757.74
449.73	1881.79
449.91	1771.79
450.10	1872.43
450.28	1977.75
450.46	1870.09
450.65	1849.02
450.83	1806.89
451.02	1919.24
451.20	1839.66
451.39	1846.68
451.57	1849.02
451.76	1959.03
451.94	1842.00
452.13	1813.92
452.31	1626.67
452.49	1603.27
452.68	1603.27
452.86	1591.56
453.05	1706.25
453.23	1717.95
453.42	1727.32
453.60	1820.94
453.78	1827.96
453.97	1666.46
454.15	1732.00
454.34	1743.70
454.52	1715.61
454.70	1706.25
454.89	1764.76
455.07	1673.48
455.26	1914.56
455.44	1792.85
455.62	1895.83
455.81	1849.02
455.99	1872.43
456.17	1884.13
456.36	1891.15
456.54	1984.77
456.73	1870.09
456.91	1881.79
457.09	1930.94
457.28	1989.46
457.46	1853.70
457.64	1799.87
457.83	1809.23
458.01	1699.23
458.19	1736.68
458.38	1898.17
458.56	1874.77
458.74	1811.57
458.93	1717.95
459.11	1863.07
459.29	1851.36
459.48	1860.73
459.66	1802.21
459.84	1975.41
460.03	1825.62
460.21	2052.65
460.39	1912.22
460.57	1881.79
460.76	1912.22
460.94	1966.05
461.12	1996.48
461.31	1975.41
461.49	1996.48
461.67	1912.22
461.85	2113.50
462.04	1912.22
462.22	1970.73
462.40	1984.77
462.59	2001.16
462.77	2017.54
462.95	1954.35
463.13	1846.68
463.32	1851.36
463.50	1991.80
463.68	2010.52
463.86	1842.00
464.05	1923.92
464.23	1762.42
464.41	1708.59
464.59	1827.96
464.78	1968.39
464.96	1987.11
465.14	1844.34
465.32	2005.84
465.50	1921.58
465.69	2026.90
465.87	1858.39
466.05	1893.49
466.23	1734.34
466.41	1699.23
466.60	1767.10
466.78	1839.66
466.96	1839.66
467.14	1863.07
467.32	1914.56
467.51	1954.35
467.69	1809.23
467.87	1935.62
468.05	1881.79
468.23	1806.89
468.41	1954.35
468.60	1973.07
468.78	1914.56
468.96	1994.14
469.14	1970.73
469.32	1895.83
469.50	1739.02
469.69	1867.75
469.87	1732.00
470.05	1837.32
470.23	1898.17
470.41	1895.83
470.59	1879.45
470.77	1788.17
470.95	1881.79
471.14	1856.04
471.32	1912.22
471.50	2043.29
471.68	2078.40
471.86	2094.78
472.04	2062.01
472.22	2127.55
472.40	2010.52
472.58	1940.30
472.77	1961.37
472.95	2073.71
473.13	2078.40
473.31	1933.28
473.49	1998.82
473.67	1961.37
473.85	1975.41
474.03	2062.01
474.21	2157.97
474.39	2085.42
474.57	2172.02
474.75	2092.44
474.93	2150.95
475.12	2153.29
475.30	2094.78
475.48	2176.70
475.66	2118.18
475.84	2214.15
476.02	2214.15
476.20	2078.40
476.38	2033.93
476.56	2155.63
476.74	2155.63
476.92	2122.87
477.10	2291.38
477.28	2310.11
477.46	2251.60
477.64	2246.91
477.82	2340.54
478.00	2305.43
478.18	2296.07
478.36	2310.11
478.54	2258.62
478.72	2195.42
478.90	2382.67
479.08	2363.94
479.26	2448.20
479.44	2448.20
479.62	2331.17
479.80	2352.24
479.98	2389.69
480.16	2487.99
480.34	2445.86
480.52	2377.98
480.70	2401.39
480.88	2506.71
481.06	2434.16
481.24	2490.33
481.41	2546.50
481.59	2506.71
481.77	2612.04
481.95	2605.02
482.13	2633.10
482.31	2527.78
482.49	2555.86
482.67	2537.14
482.85	2640.12
483.03	2567.57
483.21	2595.65
483.39	2548.84
483.57	2581.61
483.74	2478.63
483.92	2651.83
484.10	2621.40
484.28	2675.23
484.46	2712.68
484.64	2834.39
484.82	2684.59
485.00	2640.12
485.18	2574.59
485.35	2495.01
485.53	2312.45
485.71	2047.97
485.89	2078.40
486.07	2136.91
486.25	2415.43
486.43	2612.04
486.61	2595.65
486.78	2436.50
486.96	2633.10
487.14	2644.81
487.32	2740.77
487.50	2874.18
487.68	2857.79
487.85	2977.16
488.03	2974.82
488.21	2930.35
488.39	2782.90
488.57	2813.32
488.75	2703.32
488.92	2904.60
489.10	3028.65
489.28	3248.66
489.46	3253.34
489.64	3145.68
489.81	3229.94
489.99	3229.94
490.17	3220.58
490.35	3421.86
490.53	3222.92
490.70	3159.72
490.88	3110.57
491.06	3262.71
491.24	3171.43
491.41	3087.17
491.59	2930.35
491.77	2834.39
491.95	2951.42
492.13	3052.06
492.30	3265.05
492.48	3445.27
492.66	3569.32
492.84	3459.31
493.01	3496.76
493.19	3314.20
493.37	3239.30
493.54	3145.68
493.72	3391.44
493.90	3471.01
494.08	3515.48
494.25	3485.06
494.43	3552.93
494.61	3604.42
494.79	3676.98
494.96	3618.47
495.14	3712.09
495.32	3494.42
495.49	3438.25
495.67	3386.76
495.85	3634.85
496.02	3702.73
496.20	3674.64
496.38	3674.64
496.55	3627.83
496.73	3655.92
496.91	3562.30
497.09	3667.62
497.26	3868.91
497.44	3625.49
497.62	3585.70
497.79	3492.08
497.97	3286.11
498.14	3463.99
498.32	3473.36
498.50	3618.47
498.67	3826.78
498.85	3726.13
499.03	3749.54
499.20	3740.18
499.38	3751.88
499.56	3655.92
499.73	3850.18
499.91	3637.19
500.08	3520.17
500.26	3365.69
500.44	3461.65
500.61	3620.81
500.79	3676.98
500.97	3393.78
501.14	3400.80
501.32	3417.18
501.49	3449.95
501.67	3449.95
501.84	3552.93
502.02	3627.83
502.20	3616.13
502.37	3728.47
502.55	3513.14
502.72	3662.94
502.90	3721.45
503.07	3805.71
503.25	3730.81
503.43	3466.33
503.60	3513.14
503.78	3513.14
503.95	3522.51
504.13	3599.74
504.30	3843.16
504.48	3756.56
504.65	3733.15
504.83	3672.30
505.01	3964.87
505.18	3911.04
505.36	3850.18
505.53	4060.83
505.71	3885.29
505.88	4060.83
506.06	3906.35
506.23	3913.38
506.41	3768.26
506.58	3838.48
506.76	3744.86
506.93	3684.00
507.11	3815.07
507.28	3770.60
507.46	3705.07
507.63	3639.53
507.81	3503.78
507.98	3791.67
508.16	3784.65
508.33	3908.69
508.50	3920.40
508.68	4004.66
508.85	4107.64
509.03	3985.93
509.20	3960.19
509.38	3913.38
509.55	3747.20
509.73	3648.90
509.90	3679.32
510.08	3789.33
510.25	3871.25
510.42	3779.97
510.60	3946.14
510.77	3801.03
510.95	4058.49
511.12	4060.83
511.30	4070.19
511.47	4091.26
511.64	4025.72
511.82	4049.13
511.99	3960.19
512.17	3978.91
512.34	3693.37
512.51	3712.09
512.69	3719.11
512.86	3801.03
513.04	3885.29
513.21	3730.81
513.38	3789.33
513.56	3618.47
513.73	3728.47
513.90	3733.15
514.08	3744.86
514.25	3751.88
514.43	3892.31
514.60	3684.00
514.77	3786.99
514.95	3737.84
515.12	3911.04
515.29	3887.63
515.47	3885.29
515.64	3887.63
515.81	3810.39
515.99	3808.05
516.16	3513.14
516.33	3281.43
516.51	3119.93
516.68	2967.80
516.85	3016.95
517.03	2984.18
517.20	3330.58
517.37	3784.65
517.54	3796.35
517.72	3801.03
517.89	3531.87
518.06	3131.64
518.24	3063.76
518.41	3405.48
518.58	3499.10
518.75	3688.68
518.93	3665.28
519.10	3634.85
519.27	3779.97
519.45	3805.71
519.62	3777.62
519.79	3829.12
519.96	3934.44
520.14	3681.66
520.31	3728.47
520.48	3536.55
520.65	3644.21
520.83	3796.35
521.00	3833.80
521.17	3808.05
521.34	3714.43
521.52	3761.24
521.69	3742.52
521.86	3894.65
522.03	3962.53
522.20	3658.26
522.38	3566.98
522.55	3583.36
522.72	3737.84
522.89	3674.64
523.07	3676.98
523.24	3845.50
523.41	3913.38
523.58	3868.91
523.75	3995.29
523.92	3859.54
524.10	3978.91
524.27	4037.42
524.44	4100.62
524.61	3899.33
524.78	3920.40
524.96	3861.88
525.13	3822.09
525.30	3936.78
525.47	4042.11
525.64	4011.68
525.81	3768.26
525.98	3833.80
526.16	3449.95
526.33	3361.01
526.50	3265.05
526.67	3260.37
526.84	3412.50
527.01	3449.95
527.18	3712.09
527.36	3667.62
527.53	3925.08
527.70	3929.76
527.87	3761.24
528.04	3749.54
528.21	3784.65
528.38	3880.61
528.55	4030.40
528.72	4004.66
528.89	4025.72
529.07	3941.46
529.24	3878.27
529.41	3714.43
529.58	3733.15
529.75	3796.35
529.92	3887.63
530.09	3875.93
530.26	3829.12
530.43	3850.18
530.60	3962.53
530.77	4093.60
530.94	4035.08
531.11	3957.85
531.28	3911.04
531.46	3843.16
531.63	3871.25
531.80	3885.29
531.97	3698.05
532.14	3665.28
532.31	3581.02
532.48	3463.99
532.65	3417.18
532.82	3653.58
532.99	3791.67
533.16	3801.03
533.33	3840.82
533.50	3873.59
533.67	3728.47
533.84	3808.05
534.01	3737.84
534.18	3906.35
534.35	3728.47
534.52	3639.53
534.69	3810.39
534.86	3918.06
535.03	3974.23
535.20	3988.27
535.37	3978.91
535.54	4065.51
535.71	3997.64
535.88	3850.18
536.05	3691.02
536.22	3726.13
536.38	3595.06
536.55	3623.15
536.72	3524.85
536.89	3377.39
537.06	3646.55
537.23	3723.79
537.40	3819.75
537.57	3730.81
537.74	3810.39
537.91	3826.78
538.08	3854.86
538.25	3803.37
538.42	3772.94
538.59	3751.88
538.75	3770.60
538.92	3616.13
539.09	3630.17
539.26	3691.02
539.43	3623.15
539.60	3559.95
539.77	3632.51
539.94	3625.49
540.11	3475.70
540.28	3323.56
540.44	3473.36
540.61	3454.63
540.78	3471.01
540.95	3571.66
541.12	3646.55
541.29	3529.53
541.46	3707.41
541.62	3698.05
541.79	3658.26
541.96	3496.76
542.13	3494.42
542.30	3529.53
542.47	3653.58
542.63	3803.37
542.80	3641.87
542.97	3564.64
543.14	3578.68
543.31	3616.13
543.48	3639.53
543.64	3840.82
543.81	3836.14
543.98	3665.28
544.15	3693.37
544.32	3564.64
544.48	3489.74
544.65	3618.47
544.82	3693.37
544.99	3632.51
545.16	3655.92
545.32	3590.38
545.49	3604.42
545.66	3784.65
545.83	3688.68
546.00	3662.94
546.16	3754.22
546.33	3627.83
546.50	3566.98
546.67	3581.02
546.83	3620.81
547.00	3660.60
547.17	3471.01
547.34	3370.37
547.50	3510.80
547.67	3487.40
547.84	3393.78
548.00	3475.70
548.17	3634.85
548.34	3644.21
548.51	3548.25
548.67	3597.40
548.84	3669.96
549.01	3545.91
549.18	3534.21
549.34	3578.68
549.51	3557.61
549.68	3471.01
549.84	3513.14
550.01	3431.23
550.18	3370.37
550.34	3590.38
550.51	3482.72
550.68	3487.40
550.84	3583.36
551.01	3555.27
551.18	3304.84
551.34	3433.57
551.51	3686.34
551.68	3562.30
551.84	3534.21
552.01	3522.51
552.18	3627.83
552.34	3461.65
552.51	3377.39
552.68	3368.03
552.84	3445.27
553.01	3435.91
553.18	3559.95
553.34	3396.12
553.51	3428.88
553.67	3428.88
553.84	3524.85
554.01	3510.80
554.17	3412.50
554.34	3508.46
554.51	3517.83
554.67	3545.91
554.84	3412.50
555.00	3335.26
555.17	3473.36
555.33	3520.17
555.50	3456.97
555.67	3412.50
555.83	3583.36
556.00	3297.81
556.16	3243.98
556.33	3356.33
556.50	3236.96
556.66	3293.13
556.83	3304.84
556.99	3405.48
557.16	3241.64
557.32	3288.45
557.49	3323.56
557.65	3234.62
557.82	3325.90
557.98	3452.29
558.15	3192.49
558.32	3267.39
558.48	3103.55
558.65	3056.74
558.81	3126.96
558.98	3176.11
559.14	3194.83
559.31	3178.45
559.47	3176.11
559.64	3159.72
559.80	3185.47
559.97	3138.66
560.13	3162.06
560.30	3258.03
560.46	3435.91
560.63	3424.20
560.79	3421.86
560.96	3478.04
561.12	3124.62
561.29	3162.06
561.45	3178.45
561.61	3251.00
561.78	3204.19
561.94	3110.57
562.11	3087.17
562.27	3112.91
562.44	3101.21
562.60	3353.99
562.77	3379.73
562.93	3258.03
563.10	3227.60
563.26	3234.62
563.42	3262.71
563.59	3169.09
563.75	3199.51
563.92	3215.90
564.08	3152.70
564.24	3152.70
564.41	3110.57
564.57	3155.04
564.74	3185.47
564.90	3131.64
565.07	3094.19
565.23	3033.33
565.39	2956.10
565.56	3012.27
565.72	2850.77
565.88	2972.48
566.05	3033.33
566.21	3052.06
566.38	3030.99
566.54	3030.99
566.70	3073.12
566.87	3187.81
567.03	3187.81
567.19	3145.68
567.36	2995.89
567.52	3059.08
567.68	3101.21
567.85	3000.57
568.01	2946.73
568.17	3061.42
568.34	2881.20
568.50	3007.59
568.66	3019.29
568.83	2883.54
568.99	3038.02
569.15	3042.70
569.32	3040.36
569.48	2878.86
569.64	2925.67
569.81	2979.50
569.97	3068.44
570.13	2834.39
570.30	2775.88
570.46	2766.51
570.62	2789.92
570.78	2684.59
570.95	2794.60
571.11	2916.31
571.27	2881.20
571.43	3002.91
571.60	2813.32
571.76	2984.18
571.92	3082.49
572.09	2902.26
572.25	2918.65
572.41	2974.82
572.57	2883.54
572.74	2991.20
572.90	2895.24
573.06	2972.48
573.22	2981.84
573.38	2899.92
573.55	2892.90
573.71	2853.11
573.87	2867.16
574.03	2860.13
574.20	2981.84
574.36	2883.54
574.52	2738.43
574.68	2839.07
574.84	2750.13
575.01	2764.17
575.17	2698.64
575.33	2726.72
575.49	2708.00
575.65	2780.56
575.82	2700.98
575.98	2722.04
576.14	2743.11
576.30	2888.22
576.46	2768.85
576.62	2853.11
576.79	2867.16
576.95	2775.88
577.11	2747.79
577.27	2754.81
577.43	2700.98
577.59	2686.94
577.75	2588.63
577.92	2663.53
578.08	2609.70
578.24	2654.17
578.40	2621.40
578.56	2703.32
578.72	2698.64
578.88	2689.28
579.04	2759.49
579.21	2700.98
579.37	2773.53
579.53	2782.90
579.69	2668.21
579.85	2708.00
580.01	2719.70
580.17	2693.96
580.33	2668.21
580.49	2822.69
580.65	2649.49
580.82	2703.32
580.98	2768.85
581.14	2752.47
581.30	2712.68
581.46	2745.45
581.62	2696.30
581.78	2782.90
581.94	2693.96
582.10	2619.06
582.26	2689.28
582.42	2679.91
582.58	2698.64
582.74	2731.41
582.90	2778.22
583.06	2818.00
583.22	2637.78
583.38	2736.09
583.54	2619.06
583.70	2726.72
583.86	2633.10
584.02	2677.57
584.18	2708.00
584.34	2605.02
584.50	2757.15
584.66	2654.17
584.82	2628.42
584.98	2672.89
585.14	2581.61
585.30	2534.80
585.46	2368.62
585.62	2417.77
585.78	2490.33
585.94	2396.71
586.10	2441.18
586.26	2551.18
586.42	2476.29
586.58	2567.57
586.74	2518.42
586.90	2665.87
587.06	2595.65
587.22	2558.21
587.38	2555.86
587.54	2544.16
587.70	2478.63
587.86	2553.52
588.02	2504.37
588.18	2429.48
588.34	2389.69
588.49	2239.89
588.65	2209.47
588.81	2181.38
588.97	2080.74
589.13	1989.46
589.29	2038.61
589.45	2111.16
589.61	2326.49
589.77	2333.51
589.93	2394.37
590.08	2394.37
590.24	2499.69
590.40	2366.28
590.56	2487.99
590.72	2457.56
590.88	2448.20
591.04	2342.88
591.20	2455.22
591.35	2415.43
591.51	2380.32
591.67	2338.20
591.83	2373.30
591.99	2326.49
592.15	2356.92
592.31	2464.58
592.46	2289.04
592.62	2385.01
592.78	2359.26
592.94	2249.25
593.10	2368.62
593.26	2385.01
593.41	2380.32
593.57	2256.28
593.73	2298.41
593.89	2228.19
594.05	2207.13
594.20	2340.54
594.36	2324.15
594.52	2251.60
594.68	2246.91
594.84	2305.43
594.99	2361.60
595.15	2338.20
595.31	2380.32
595.47	2370.96
595.62	2387.35
595.78	2305.43
595.94	2403.73
596.10	2319.47
596.25	2232.87
596.41	2253.94
596.57	2272.66
596.73	2303.09
596.88	2310.11
597.04	2303.09
597.20	2256.28
597.36	2230.53
597.51	2305.43
597.67	2204.78
597.83	2202.44
597.99	2216.49
598.14	2211.81
598.30	2267.98
598.46	2225.85
598.61	2174.36
598.77	2195.42
598.93	2256.28
599.09	2265.64
599.24	2310.11
599.40	2319.47
599.56	2267.98
599.71	2190.74
599.87	2230.53
600.03	2176.70
600.18	2293.72
600.34	2216.49
600.50	2097.12
600.65	2188.40
600.81	2223.51
600.97	2155.63
601.12	2176.70
601.28	2183.72
601.44	2176.70
601.59	2162.66
601.75	2136.91
601.91	2045.63
602.06	2125.21
602.22	2225.85
602.37	2071.37
602.53	2127.55
602.69	2172.02
602.84	2115.84
603.00	2073.71
603.16	2293.72
603.31	2181.38
603.47	2193.08
603.62	2267.98
603.78	2223.51
603.94	2202.44
604.09	2193.08
604.25	2099.46
604.40	2179.04
604.56	2169.68
604.71	2260.96
604.87	2111.16
605.03	2246.91
605.18	2122.87
605.34	2106.48
605.49	2183.72
605.65	2176.70
605.80	2087.76
605.96	2134.57
606.12	2022.22
606.27	2078.40
606.43	2071.37
606.58	2059.67
606.74	2066.69
606.89	2174.36
607.05	2193.08
607.20	2197.76
607.36	2031.58
607.51	2284.36
607.67	2017.54
607.82	2031.58
607.98	2015.20
608.13	2099.46
608.29	1968.39
608.44	1893.49
608.60	2005.84
608.75	2064.35
608.91	2165.00
609.06	1860.73
609.22	2019.88
609.37	2104.14
609.53	2176.70
609.68	2010.52
609.84	2015.20
609.99	1954.35
610.15	1959.03
610.30	1980.09
610.46	1970.73
610.61	1961.37
610.76	2162.66
610.92	2160.31
611.07	2134.57
611.23	2197.76
611.38	2066.69
611.54	2059.67
611.69	1980.09
611.84	1968.39
612.00	1907.54
612.15	1984.77
612.31	1973.07
612.46	2040.95
612.62	2017.54
612.77	2083.08
612.92	1872.43
613.08	1947.33
613.23	1940.30
613.39	1860.73
613.54	1849.02
613.69	1811.57
613.85	1832.64
614.00	1823.28
614.15	1914.56
614.31	1914.56
614.46	1923.92
614.62	1930.94
614.77	1916.90
614.92	1774.13
615.08	1949.67
615.23	1923.92
615.38	1785.83
615.54	1856.04
615.69	1755.40
615.84	1715.61
616.00	1774.13
616.15	1675.82
616.30	1722.63
616.46	1729.66
616.61	1713.27
616.76	1736.68
616.92	1827.96
617.07	1804.55
617.22	1748.38
617.37	1839.66
617.53	1624.33
617.68	1757.74
617.83	1832.64
617.99	1687.53
618.14	1825.62
618.29	1933.28
618.45	1724.97
618.60	1792.85
618.75	1727.32
618.90	1750.72
619.06	1790.51
619.21	1734.34
619.36	1778.81
619.51	1823.28
619.67	1760.08
619.82	1720.29
619.97	1743.70
620.12	1689.87
620.28	1675.82
620.43	1898.17
620.58	1816.26
620.73	1797.53
620.89	1771.79
621.04	1783.49
621.19	1710.93
621.34	1666.46
621.49	1804.55
621.65	1685.19
621.80	1701.57
621.95	1706.25
622.10	1579.86
622.25	1668.80
622.41	1699.23
622.56	1753.06
622.71	1696.89
622.86	1600.93
623.01	1593.90
623.16	1734.34
623.32	1607.95
623.47	1654.76
623.62	1645.40
623.77	1696.89
623.92	1633.69
624.07	1535.39
624.23	1614.97
624.38	1633.69
624.53	1703.91
624.68	1617.31
624.83	1626.67
624.98	1549.43
625.13	1610.29
625.29	1692.21
625.44	1502.62
625.59	1582.20
625.74	1708.59
625.89	1598.59
626.04	1533.05
626.19	1568.16
626.34	1600.93
626.49	1575.18
626.65	1504.96
626.80	1570.50
626.95	1582.20
627.10	1521.35
627.25	1516.67
627.40	1493.26
627.55	1465.18
627.70	1385.60
627.85	1455.81
628.00	1469.86
628.15	1434.75
628.30	1521.35
628.45	1502.62
628.60	1558.80
628.76	1509.65
628.91	1514.33
629.06	1490.92
629.21	1568.16
629.36	1528.37
629.51	1397.30
629.66	1416.02
629.81	1521.35
629.96	1441.77
630.11	1451.13
630.26	1502.62
630.41	1359.85
630.56	1493.26
630.71	1448.79
630.86	1502.62
631.01	1404.32
631.16	1514.33
631.31	1427.73
631.46	1380.92
631.61	1596.25
631.76	1441.77
631.91	1364.53
632.06	1437.09
632.21	1514.33
632.36	1486.24
632.51	1488.58
632.66	1476.88
632.81	1329.42
632.96	1526.03
633.10	1451.13
633.25	1474.54
633.40	1411.34
633.55	1371.55
633.70	1345.81
633.85	1401.98
634.00	1392.62
634.15	1294.32
634.30	1509.65
634.45	1504.96
634.60	1465.18
634.75	1392.62
634.90	1430.07
635.05	1451.13
635.19	1371.55
635.34	1441.77
635.49	1460.49
635.64	1432.41
635.79	1277.93
635.94	1352.83
636.09	1500.28
636.24	1413.68
636.39	1406.66
636.53	1355.17
636.68	1350.49
636.83	1345.81
636.98	1399.64
637.13	1331.76
637.28	1371.55
637.43	1439.43
637.57	1451.13
637.72	1437.09
637.87	1427.73
638.02	1378.58
638.17	1327.08
638.32	1392.62
638.46	1320.06
638.61	1336.45
638.76	1327.08
638.91	1280.27
639.06	1315.38
639.20	1313.04
639.35	1406.66
639.50	1284.95
639.65	1291.98
639.80	1331.76
639.94	1362.19
640.09	1207.72
640.24	1252.19
640.39	1268.57
640.54	1240.48
640.68	1238.14
640.83	1181.97
640.98	1193.67
641.13	1245.16
641.27	1334.11
641.42	1308.36
641.57	1203.04
641.72	1231.12
641.86	1170.27
642.01	1228.78
642.16	1331.76
642.31	1224.10
642.45	1324.74
642.60	1214.74
642.75	1203.04
642.90	1254.53
643.04	1299.00
643.19	1277.93
643.34	1301.34
643.48	1261.55
643.63	1245.16
643.78	1247.51
643.93	1275.59
644.07	1270.91
644.22	1205.38
644.37	1097.71
644.51	1331.76
644.66	1174.95
644.81	1256.87
644.95	1221.76
645.10	1179.63
645.25	1235.80
645.39	1193.67
645.54	1247.51
645.69	1181.97
645.83	1247.51
645.98	1188.99
646.13	1196.01
646.27	1198.35
646.42	1235.80
646.57	1184.31
646.71	1139.84
646.86	1158.57
647.00	1181.97
647.15	1174.95
647.30	1165.59
647.44	1088.35
647.59	1210.06
647.74	1139.84
647.88	1125.80
648.03	1071.97
648.17	1170.27
648.32	1191.33
648.47	1153.88
648.61	1100.05
648.76	1008.77
648.90	1071.97
649.05	1020.47
649.20	1011.11
649.34	987.71
649.49	968.98
649.63	1144.52
649.78	1060.26
649.92	1086.01
650.07	1107.07
650.21	1121.12
650.36	1067.28
650.51	1165.59
650.65	1055.58
650.80	1142.18
650.94	1076.65
651.09	1174.95
651.23	983.02
651.38	1062.60
651.52	1107.07
651.67	1093.03
651.81	1086.01
651.96	1130.48
652.10	1132.82
652.25	1083.67
652.39	1217.08
652.54	1086.01
652.68	1011.11
652.83	1165.59
652.97	1137.50
653.12	1132.82
653.26	1165.59
653.41	1090.69
653.55	1076.65
653.70	1100.05
653.84	1004.09
653.99	1102.39
654.13	1043.88
654.27	976.00
654.42	1062.60
654.56	959.62
654.71	945.58
654.85	1006.43
655.00	999.41
655.14	1067.28
655.29	1029.84
655.43	987.71
655.57	840.25
655.72	828.55
655.86	826.21
656.01	770.04
656.15	610.88
656.30	685.78
656.44	849.61
656.58	917.49
656.73	884.72
656.87	905.79
657.01	922.17
657.16	947.92
657.30	1001.75
657.45	945.58
657.59	990.05
657.73	959.62
657.88	945.58
658.02	903.45
658.16	891.74
658.31	1013.45
658.45	1018.13
658.60	968.98
658.74	884.72
658.88	929.19
659.03	971.32
659.17	915.15
659.31	1006.43
659.46	933.87
659.60	971.32
659.74	964.30
659.89	1029.84
660.03	945.58
660.17	971.32
660.32	961.96
660.46	1006.43
660.60	968.98
660.74	980.68
660.89	950.26
661.03	1001.75
661.17	980.68
661.32	938.55
661.46	968.98
661.60	889.40
661.74	1069.62
661.89	1015.79
662.03	968.98
662.17	959.62
662.31	922.17
662.46	919.83
662.60	924.51
662.74	978.34
662.88	950.26
663.03	933.87
663.17	884.72
663.31	891.74
663.45	936.21
663.60	880.04
663.74	954.94
663.88	802.80
664.02	847.27
664.17	854.30
664.31	952.60
664.45	870.68
664.59	978.34
664.73	957.28
664.88	870.68
665.02	905.79
665.16	929.19
665.30	837.91
665.44	905.79
665.59	842.59
665.73	849.61
665.87	856.64
666.01	805.14
666.15	718.54
666.29	823.87
666.44	833.23
666.58	830.89
666.72	791.10
666.86	861.32
667.00	840.25
667.14	882.38
667.28	861.32
667.43	812.17
667.57	901.11
667.71	798.12
667.85	840.25
667.99	851.96
668.13	826.21
668.27	786.42
668.41	826.21
668.56	779.40
668.70	842.59
668.84	891.74
668.98	849.61
669.12	758.33
669.26	786.42
669.40	798.12
669.54	800.46
669.68	772.38
669.82	727.91
669.96	917.49
670.10	765.36
670.25	739.61
670.39	770.04
670.53	800.46
670.67	739.61
670.81	814.51
670.95	739.61
671.09	723.23
671.23	758.33
671.37	812.17
671.51	763.01
671.65	741.95
671.79	763.01
671.93	706.84
672.07	800.46
672.21	849.61
672.35	753.65
672.49	788.76
672.63	706.84
672.77	795.78
672.91	779.40
673.05	688.12
673.19	800.46
673.33	706.84
673.47	688.12
673.61	695.14
673.75	711.52
673.89	669.39
674.03	791.10
674.17	699.82
674.31	730.25
674.45	629.60
674.59	622.58
674.73	692.80
674.87	716.20
675.01	753.65
675.15	662.37
675.29	688.12
675.43	620.24
675.56	788.76
675.70	695.14
675.84	683.44
675.98	690.46
676.12	606.20
676.26	641.31
676.40	676.41
676.54	627.26
676.68	582.79
676.82	634.29
676.96	601.52
677.10	634.29
677.23	631.94
677.37	650.67
677.51	638.97
677.65	620.24
677.79	643.65
677.93	587.47
678.07	629.60
678.21	578.11
678.34	573.43
678.48	571.09
678.62	547.69
678.76	615.56
678.90	496.19
679.04	615.56
679.18	664.71
679.31	573.43
679.45	580.45
679.59	564.07
679.73	547.69
679.87	636.63
680.00	631.94
680.14	596.84
680.28	606.20
680.42	482.15
680.56	470.45
680.70	573.43
680.83	608.54
680.97	505.56
681.11	535.98
681.25	550.03
681.39	540.66
681.52	575.77
681.66	596.84
681.80	545.34
681.94	468.11
682.07	561.73
682.21	538.32
682.35	564.07
682.49	535.98
682.62	528.96
682.76	517.26
682.90	512.58
683.04	568.75
683.17	510.24
683.31	575.77
683.45	493.85
683.59	550.03
683.72	468.11
683.86	458.74
684.00	493.85
684.13	503.22
684.27	517.26
684.41	475.13
684.55	447.04
684.68	458.74
684.82	514.92
684.96	491.51
685.09	477.47
685.23	388.53
685.37	440.02
685.50	374.49
685.64	465.77
685.78	395.55
685.91	496.19
686.05	484.49
686.19	468.11
686.32	397.89
686.46	325.33
686.60	238.73
686.73	168.52
686.87	210.65
687.01	180.22
687.14	220.01
687.28	229.37
687.42	259.80
687.55	315.97
687.69	257.46
687.82	301.93
687.96	376.83
688.10	315.97
688.23	276.18
688.37	264.48
688.50	330.02
688.64	304.27
688.78	238.73
688.91	264.48
689.05	283.20
689.18	311.29
689.32	273.84
689.46	220.01
689.59	264.48
689.73	264.48
689.86	287.89
690.00	257.46
690.13	264.48
690.27	278.52
690.41	355.76
690.54	236.39
690.68	318.31
690.81	250.44
690.95	332.36
691.08	250.44
691.22	266.82
691.35	255.12
691.49	297.25
691.62	355.76
691.76	311.29
691.89	325.33
692.03	346.40
692.16	304.27
692.30	290.23
692.43	252.78
692.57	182.56
692.70	311.29
692.84	287.89
692.97	201.29
693.11	255.12
693.24	243.42
693.38	278.52
693.51	243.42
693.65	266.82
693.78	287.89
693.92	257.46
694.05	222.35
694.19	271.50
694.32	248.10
694.45	142.77
694.59	154.48
694.72	212.99
694.86	184.90
694.99	222.35
695.13	194.26
695.26	140.43
695.39	220.01
695.53	278.52
695.66	131.07
695.80	318.31
695.93	119.37
696.07	320.65
696.20	252.78
696.33	266.82
696.47	201.29
696.60	266.82
696.73	231.71
696.87	201.29
697.00	224.69
697.14	273.84
697.27	257.46
697.40	203.63
697.54	147.45
697.67	243.42
697.80	280.86
697.94	238.73
698.07	196.60
698.21	133.41
698.34	121.71
698.47	229.37
698.61	248.10
698.74	191.92
698.87	135.75
699.01	224.69
699.14	210.65
699.27	140.43
699.40	138.09
699.54	161.50
699.67	194.26
699.80	231.71
699.94	142.77
700.07	124.05
700.20	135.75
700.34	51.49
700.47	142.77
700.60	77.24
700.73	173.20
700.87	131.07
701.00	149.79
701.13	119.37
701.26	121.71
701.40	166.18
701.53	145.11
701.66	138.09
701.79	131.07
701.93	133.41
702.06	175.54
702.19	133.41
702.32	74.90
702.46	145.11
702.59	100.64
702.72	159.16
702.85	149.79
702.99	152.13
703.12	180.22
703.25	161.50
703.38	107.66
703.51	112.35
703.65	156.82
703.78	154.48
703.91	161.50
704.04	100.64
704.17	110.01
704.31	42.13
704.44	100.64
704.57	159.16
704.70	170.86
704.83	112.35
704.96	191.92
705.10	39.79
705.23	39.79
>>>>>End Processed Spectral Data<<<<<
