SpectraSuite Data File
++++++++++++++++++++++++++++++++++++
Date: Mon Oct 07 14:54:55 GMT-05:00 2013
User: price-jones
Dark Spectrum Present: No
Reference Spectrum Present: No
Number of Sampled Component Spectra: 1
Spectrometers: USB2+H05261
Integration Time (usec): 10000 (USB2+H05261)
Spectra Averaged: 1 (USB2+H05261)
Boxcar Smoothing: 0 (USB2+H05261)
Correct for Electrical Dark: No (USB2+H05261)
Strobe/Lamp Enabled: No (USB2+H05261)
Correct for Detector Non-linearity: No (USB2+H05261)
Correct for Stray Light: No (USB2+H05261)
Number of Pixels in Processed Spectrum: 2048
>>>>>Begin Processed Spectral Data<<<<<
365.73	0.00
365.92	0.00
366.12	0.00
366.32	0.00
366.52	0.00
366.72	0.00
366.91	0.00
367.11	0.00
367.31	0.00
367.51	0.00
367.70	0.00
367.90	0.00
368.10	0.00
368.30	0.00
368.49	0.00
368.69	0.00
368.89	0.00
369.09	0.00
369.28	0.00
369.48	0.00
369.68	0.00
369.87	0.00
370.07	0.00
370.27	0.00
370.47	0.00
370.66	0.00
370.86	2.34
371.06	0.00
371.25	0.00
371.45	44.47
371.65	0.00
371.84	42.13
372.04	0.00
372.24	72.56
372.44	7.02
372.63	72.56
372.83	56.17
373.03	14.04
373.22	0.00
373.42	21.06
373.62	4.68
373.81	56.17
374.01	46.81
374.21	18.72
374.40	0.00
374.60	25.75
374.79	23.41
374.99	112.35
375.19	135.75
375.38	142.77
375.58	110.01
375.78	63.19
375.97	117.03
376.17	105.32
376.37	21.06
376.56	51.49
376.76	175.54
376.95	147.45
377.15	243.42
377.35	292.57
377.54	173.20
377.74	191.92
377.93	149.79
378.13	229.37
378.33	210.65
378.52	175.54
378.72	102.98
378.91	149.79
379.11	105.32
379.31	124.05
379.50	100.64
379.70	177.88
379.89	93.62
380.09	159.16
380.28	229.37
380.48	210.65
380.68	191.92
380.87	217.67
381.07	102.98
381.26	77.24
381.46	91.28
381.65	53.83
381.85	84.26
382.04	105.32
382.24	0.00
382.43	35.11
382.63	0.00
382.83	0.00
383.02	88.94
383.22	0.00
383.41	16.38
383.61	30.43
383.80	81.92
384.00	93.62
384.19	194.26
384.39	217.67
384.58	276.18
384.78	133.41
384.97	187.24
385.17	102.98
385.36	114.69
385.56	159.16
385.75	156.82
385.95	271.50
386.14	236.39
386.34	168.52
386.53	133.41
386.72	229.37
386.92	173.20
387.11	210.65
387.31	262.14
387.50	138.09
387.70	243.42
387.89	88.94
388.09	194.26
388.28	180.22
388.48	234.05
388.67	234.05
388.86	283.20
389.06	262.14
389.25	278.52
389.45	393.21
389.64	269.16
389.84	320.65
390.03	285.55
390.22	315.97
390.42	358.10
390.61	381.51
390.81	374.49
391.00	472.79
391.19	461.09
391.39	498.53
391.58	400.23
391.78	379.17
391.97	292.57
392.16	245.76
392.36	245.76
392.55	121.71
392.75	16.38
392.94	23.41
393.13	0.00
393.33	65.54
393.52	95.96
393.71	131.07
393.91	255.12
394.10	297.25
394.29	339.38
394.49	365.12
394.68	400.23
394.88	416.62
395.07	559.39
395.26	468.11
395.46	435.34
395.65	458.74
395.84	341.72
396.04	220.01
396.23	154.48
396.42	74.90
396.62	72.56
396.81	121.71
397.00	259.80
397.19	433.00
397.39	498.53
397.58	512.58
397.77	613.22
397.97	552.37
398.16	582.79
398.35	655.35
398.55	636.63
398.74	816.85
398.93	770.04
399.12	641.31
399.32	746.63
399.51	725.57
399.70	744.29
399.90	716.20
400.09	795.78
400.28	744.29
400.47	748.97
400.67	849.61
400.86	922.17
401.05	833.23
401.24	802.80
401.44	910.47
401.63	919.83
401.82	894.08
402.01	802.80
402.21	847.27
402.40	961.96
402.59	854.30
402.78	828.55
402.97	748.97
403.17	767.70
403.36	880.04
403.55	889.40
403.74	945.58
403.93	863.66
404.13	889.40
404.32	821.53
404.51	751.31
404.70	931.53
404.89	922.17
405.09	922.17
405.28	821.53
405.47	863.66
405.66	875.36
405.85	856.64
406.05	730.25
406.24	758.33
406.43	816.85
406.62	847.27
406.81	873.02
407.00	983.02
407.20	898.77
407.39	856.64
407.58	873.02
407.77	877.70
407.96	926.85
408.15	866.00
408.34	1062.60
408.54	1055.58
408.73	973.66
408.92	1067.28
409.11	971.32
409.30	952.60
409.49	849.61
409.68	798.12
409.87	837.91
410.07	751.31
410.26	868.34
410.45	994.73
410.64	994.73
410.83	945.58
411.02	1025.15
411.21	1151.54
411.40	1125.80
411.59	1102.39
411.78	1158.57
411.98	1114.10
412.17	1193.67
412.36	1071.97
412.55	1095.37
412.74	1088.35
412.93	952.60
413.12	990.05
413.31	1170.27
413.50	1097.71
413.69	1198.35
413.88	1053.24
414.07	1069.62
414.26	1116.44
414.45	1198.35
414.64	1167.93
414.83	1142.18
415.02	1132.82
415.22	1097.71
415.41	1172.61
415.60	1259.21
415.79	1291.98
415.98	1149.20
416.17	1308.36
416.36	1362.19
416.55	1280.27
416.74	1184.31
416.93	1139.84
417.12	1107.07
417.31	1188.99
417.50	1214.74
417.69	1291.98
417.88	1207.72
418.07	1184.31
418.26	1153.88
418.45	1160.91
418.64	1249.85
418.83	1301.34
419.02	1273.25
419.21	1334.11
419.39	1186.65
419.58	1043.88
419.77	1011.11
419.96	1233.46
420.15	1256.87
420.34	1287.29
420.53	1392.62
420.72	1411.34
420.91	1387.94
421.10	1394.96
421.29	1261.55
421.48	1359.85
421.67	1380.92
421.86	1299.00
422.05	1125.80
422.24	1055.58
422.43	1111.75
422.61	1219.42
422.80	1277.93
422.99	1252.19
423.18	1233.46
423.37	1233.46
423.56	1217.08
423.75	1158.57
423.94	1233.46
424.13	1193.67
424.32	1137.50
424.50	1210.06
424.69	1193.67
424.88	1203.04
425.07	1121.12
425.26	1165.59
425.45	1160.91
425.64	1191.33
425.83	1160.91
426.01	1109.41
426.20	1261.55
426.39	1268.57
426.58	1174.95
426.77	1088.35
426.96	973.66
427.15	1041.54
427.33	1228.78
427.52	1198.35
427.71	1268.57
427.90	1184.31
428.09	1167.93
428.28	1233.46
428.46	1032.18
428.65	1090.69
428.84	1053.24
429.03	1013.45
429.22	1121.12
429.40	1020.47
429.59	931.53
429.78	730.25
429.97	781.74
430.16	835.57
430.34	765.36
430.53	744.29
430.72	755.99
430.91	826.21
431.10	1090.69
431.28	1240.48
431.47	1425.39
431.66	1572.84
431.85	1280.27
432.03	1151.54
432.22	1123.46
432.41	1144.52
432.60	1362.19
432.79	1476.88
432.97	1458.15
433.16	1348.15
433.35	1259.21
433.54	1132.82
433.72	1053.24
433.91	1184.31
434.10	1149.20
434.28	1320.06
434.47	1320.06
434.66	1334.11
434.85	1303.68
435.03	1317.72
435.22	1406.66
435.41	1521.35
435.59	1343.47
435.78	1479.22
435.97	1476.88
436.16	1584.54
436.34	1556.46
436.53	1455.81
436.72	1493.26
436.90	1387.94
437.09	1291.98
437.28	1334.11
437.46	1434.75
437.65	1439.43
437.84	1268.57
438.02	1125.80
438.21	1050.90
438.40	1329.42
438.58	1371.55
438.77	1317.72
438.96	1490.92
439.14	1495.60
439.33	1430.07
439.52	1682.85
439.70	1488.58
439.89	1423.05
440.08	1411.34
440.26	1455.81
440.45	1441.77
440.63	1659.44
440.82	1673.48
441.01	1572.84
441.19	1659.44
441.38	1753.06
441.57	1692.21
441.75	1692.21
441.94	1764.76
442.12	1734.34
442.31	1736.68
442.50	1792.85
442.68	1612.63
442.87	1696.89
443.05	1708.59
443.24	1685.19
443.43	1743.70
443.61	1849.02
443.80	1757.74
443.98	1671.14
444.17	1753.06
444.35	1795.19
444.54	1823.28
444.73	1797.53
444.91	1764.76
445.10	1638.38
445.28	1582.20
445.47	1483.90
445.65	1624.33
445.84	1664.12
446.02	1661.78
446.21	1610.29
446.39	1755.40
446.58	1764.76
446.77	1739.02
446.95	1823.28
447.14	1816.26
447.32	1996.48
447.51	1830.30
447.69	1631.35
447.88	1692.21
448.06	1708.59
448.25	1844.34
448.43	1767.10
448.62	1687.53
448.80	1694.55
448.99	1816.26
449.17	1914.56
449.36	1675.82
449.54	1928.60
449.73	1827.96
449.91	1956.69
450.10	1966.05
450.28	1996.48
450.46	2001.16
450.65	1907.54
450.83	1970.73
451.02	1914.56
451.20	1975.41
451.39	1989.46
451.57	1942.64
451.76	1954.35
451.94	1879.45
452.13	1879.45
452.31	1776.47
452.49	1675.82
452.68	1673.48
452.86	1706.25
453.05	1778.81
453.23	1582.20
453.42	1809.23
453.60	1809.23
453.78	1942.64
453.97	1846.68
454.15	1816.26
454.34	1757.74
454.52	1944.99
454.70	1724.97
454.89	1874.77
455.07	1839.66
455.26	1902.86
455.44	1823.28
455.62	1806.89
455.81	1947.33
455.99	1921.58
456.17	1907.54
456.36	1963.71
456.54	1963.71
456.73	1963.71
456.91	2052.65
457.09	1956.69
457.28	2022.22
457.46	1921.58
457.64	1952.01
457.83	1907.54
458.01	1755.40
458.19	1825.62
458.38	1827.96
458.56	1912.22
458.74	2008.18
458.93	1881.79
459.11	1954.35
459.29	1870.09
459.48	1952.01
459.66	1827.96
459.84	1853.70
460.03	1912.22
460.21	1870.09
460.39	2003.50
460.57	1905.20
460.76	2050.31
460.94	2003.50
461.12	2076.06
461.31	2078.40
461.49	2054.99
461.67	2029.24
461.85	2026.90
462.04	2080.74
462.22	2047.97
462.40	2073.71
462.59	2078.40
462.77	2036.27
462.95	2017.54
463.13	2064.35
463.32	1944.99
463.50	2017.54
463.68	1998.82
463.86	2045.63
464.05	1989.46
464.23	1888.81
464.41	1912.22
464.59	1860.73
464.78	1886.47
464.96	2005.84
465.14	1996.48
465.32	1996.48
465.50	2069.03
465.69	2101.80
465.87	1996.48
466.05	2026.90
466.23	1849.02
466.41	1865.41
466.60	1825.62
466.78	1865.41
466.96	1956.69
467.14	1921.58
467.32	1863.07
467.51	1909.88
467.69	1944.99
467.87	1851.36
468.05	1916.90
468.23	1994.14
468.41	2001.16
468.60	2064.35
468.78	1963.71
468.96	1942.64
469.14	2043.29
469.32	1947.33
469.50	1937.96
469.69	2010.52
469.87	2008.18
470.05	1963.71
470.23	1961.37
470.41	1799.87
470.59	1905.20
470.77	1954.35
470.95	1959.03
471.14	1980.09
471.32	2085.42
471.50	2186.06
471.68	2246.91
471.86	2246.91
472.04	2157.97
472.22	2127.55
472.40	2022.22
472.58	2022.22
472.77	2012.86
472.95	2148.61
473.13	2040.95
473.31	2054.99
473.49	2066.69
473.67	2165.00
473.85	2073.71
474.03	2157.97
474.21	2134.57
474.39	2127.55
474.57	2157.97
474.75	2104.14
474.93	2167.34
475.12	2162.66
475.30	2197.76
475.48	2162.66
475.66	2195.42
475.84	2108.82
476.02	2118.18
476.20	2129.89
476.38	2169.68
476.56	2333.51
476.74	2197.76
476.92	2328.83
477.10	2303.09
477.28	2179.04
477.46	2406.07
477.64	2420.11
477.82	2363.94
478.00	2389.69
478.18	2368.62
478.36	2406.07
478.54	2328.83
478.72	2377.98
478.90	2387.35
479.08	2590.97
479.26	2565.23
479.44	2523.10
479.62	2534.80
479.80	2527.78
479.98	2420.11
480.16	2539.48
480.34	2429.48
480.52	2612.04
480.70	2485.65
480.88	2527.78
481.06	2719.70
481.24	2532.46
481.41	2738.43
481.59	2722.04
481.77	2686.94
481.95	2698.64
482.13	2693.96
482.31	2679.91
482.49	2661.19
482.67	2581.61
482.85	2593.31
483.03	2801.62
483.21	2799.28
483.39	2738.43
483.57	2656.51
483.74	2724.38
483.92	2703.32
484.10	2757.15
484.28	2761.83
484.46	2841.41
484.64	2967.80
484.82	2857.79
485.00	2874.18
485.18	2677.57
485.35	2708.00
485.53	2324.15
485.71	2148.61
485.89	1973.07
486.07	2211.81
486.25	2483.31
486.43	2633.10
486.61	2642.46
486.78	2679.91
486.96	2602.68
487.14	2794.60
487.32	3026.31
487.50	2993.55
487.68	2906.95
487.85	3082.49
488.03	3087.17
488.21	3061.42
488.39	2993.55
488.57	2885.88
488.75	2895.24
488.92	2951.42
489.10	3129.30
489.28	3251.00
489.46	3398.46
489.64	3393.78
489.81	3309.52
489.99	3485.06
490.17	3267.39
490.35	3403.14
490.53	3288.45
490.70	3358.67
490.88	3389.10
491.06	3358.67
491.24	3309.52
491.41	3190.15
491.59	3096.53
491.77	3026.31
491.95	3232.28
492.13	3199.51
492.30	3389.10
492.48	3499.10
492.66	3597.40
492.84	3520.17
493.01	3445.27
493.19	3403.14
493.37	3459.31
493.54	3447.61
493.72	3400.80
493.90	3552.93
494.08	3679.32
494.25	3840.82
494.43	3770.60
494.61	3719.11
494.79	3796.35
494.96	3908.69
495.14	3763.58
495.32	3613.79
495.49	3485.06
495.67	3595.06
495.85	3749.54
496.02	3829.12
496.20	3836.14
496.38	3595.06
496.55	3665.28
496.73	3875.93
496.91	3784.65
497.09	3899.33
497.26	4074.87
497.44	3992.95
497.62	3840.82
497.79	3674.64
497.97	3623.15
498.14	3581.02
498.32	3611.45
498.50	3740.18
498.67	3990.61
498.85	3782.31
499.03	3988.27
499.20	3913.38
499.38	3932.10
499.56	3911.04
499.73	3812.73
499.91	3782.31
500.08	3791.67
500.26	3609.11
500.44	3655.92
500.61	3784.65
500.79	3648.90
500.97	3714.43
501.14	3599.74
501.32	3637.19
501.49	3655.92
501.67	3660.60
501.84	3838.48
502.02	3779.97
502.20	3812.73
502.37	3894.65
502.55	3882.95
502.72	3850.18
502.90	3983.59
503.07	3983.59
503.25	3971.89
503.43	3684.00
503.60	3655.92
503.78	3604.42
503.95	3620.81
504.13	3929.76
504.30	3896.99
504.48	3999.98
504.65	3822.09
504.83	3892.31
505.01	4133.39
505.18	3901.67
505.36	4248.07
505.53	4098.28
505.71	4224.67
505.88	4372.12
506.06	4058.49
506.23	3932.10
506.41	4058.49
506.58	3934.44
506.76	3953.16
506.93	4021.04
507.11	3882.95
507.28	3964.87
507.46	4007.00
507.63	3833.80
507.81	3854.86
507.98	3819.75
508.16	3840.82
508.33	3969.55
508.50	4112.32
508.68	4077.21
508.85	4166.15
509.03	4236.37
509.20	4105.30
509.38	4128.70
509.55	4014.02
509.73	4081.89
509.90	4131.05
510.08	4133.39
510.25	4053.81
510.42	3971.89
510.60	4037.42
510.77	4004.66
510.95	4234.03
511.12	4187.22
511.30	4156.79
511.47	4152.11
511.64	4271.48
511.82	4297.22
511.99	4028.06
512.17	4018.70
512.34	3768.26
512.51	3824.44
512.69	4014.02
512.86	3964.87
513.04	3913.38
513.21	4039.76
513.38	3899.33
513.56	3882.95
513.73	3716.77
513.90	3918.06
514.08	3950.82
514.25	3901.67
514.43	3922.74
514.60	3950.82
514.77	4009.34
514.95	3992.95
515.12	3985.93
515.29	3852.52
515.47	3983.59
515.64	4098.28
515.81	4014.02
515.99	3950.82
516.16	3763.58
516.33	3529.53
516.51	3215.90
516.68	3321.22
516.85	3169.09
517.03	3157.38
517.20	3391.44
517.37	3810.39
517.54	3873.59
517.72	3887.63
517.89	3599.74
518.06	3246.32
518.24	3300.16
518.41	3578.68
518.58	3880.61
518.75	3850.18
518.93	3735.50
519.10	3679.32
519.27	3789.33
519.45	3803.37
519.62	3941.46
519.79	4093.60
519.96	3983.59
520.14	3899.33
520.31	3843.16
520.48	4009.34
520.65	3892.31
520.83	3915.72
521.00	4119.34
521.17	3882.95
521.34	3953.16
521.52	4053.81
521.69	3981.25
521.86	4257.43
522.03	4053.81
522.20	3866.56
522.38	3826.78
522.55	3719.11
522.72	3815.07
522.89	3786.99
523.07	3864.22
523.24	3971.89
523.41	4091.26
523.58	4117.00
523.75	4079.55
523.92	4039.76
524.10	3957.85
524.27	4229.35
524.44	4196.58
524.61	4021.04
524.78	4039.76
524.96	4009.34
525.13	4105.30
525.30	4161.47
525.47	4140.41
525.64	4102.96
525.81	4114.66
525.98	3859.54
526.16	3625.49
526.33	3379.73
526.50	3487.40
526.67	3307.18
526.84	3487.40
527.01	3684.00
527.18	3674.64
527.36	3749.54
527.53	4140.41
527.70	4112.32
527.87	4121.68
528.04	3904.01
528.21	3974.23
528.38	4058.49
528.55	4236.37
528.72	4074.87
528.89	4215.30
529.07	4215.30
529.24	4138.07
529.41	4016.36
529.58	3801.03
529.75	3786.99
529.92	3995.29
530.09	4077.21
530.26	4131.05
530.43	4222.33
530.60	4205.94
530.77	4156.79
530.94	4227.01
531.11	4140.41
531.28	4032.74
531.46	4107.64
531.63	4007.00
531.80	4109.98
531.97	3889.97
532.14	3974.23
532.31	3651.24
532.48	3684.00
532.65	3700.39
532.82	3770.60
532.99	4009.34
533.16	4016.36
533.33	4126.36
533.50	3995.29
533.67	3929.76
533.84	3857.20
534.01	3908.69
534.18	4018.70
534.35	3990.61
534.52	4007.00
534.69	3943.80
534.86	4095.94
535.03	4147.43
535.20	4060.83
535.37	4161.47
535.54	4184.88
535.71	4140.41
535.88	4114.66
536.05	4063.17
536.22	3932.10
536.38	3882.95
536.55	3936.78
536.72	3772.94
536.89	3737.84
537.06	3765.92
537.23	3943.80
537.40	3955.51
537.57	3934.44
537.74	3946.14
537.91	3939.12
538.08	3873.59
538.25	3971.89
538.42	4011.68
538.59	3992.95
538.75	3857.20
538.92	3819.75
539.09	3765.92
539.26	3681.66
539.43	3822.09
539.60	3686.34
539.77	3838.48
539.94	3779.97
540.11	3749.54
540.28	3578.68
540.44	3665.28
540.61	3548.25
540.78	3559.95
540.95	3658.26
541.12	3866.56
541.29	3913.38
541.46	3789.33
541.62	3915.72
541.79	3829.12
541.96	3733.15
542.13	3707.41
542.30	3845.50
542.47	3826.78
542.63	3772.94
542.80	3763.58
542.97	3730.81
543.14	3653.58
543.31	3817.41
543.48	3796.35
543.64	3901.67
543.81	4021.04
543.98	3985.93
544.15	3838.48
544.32	3784.65
544.48	3702.73
544.65	3843.16
544.82	3934.44
544.99	3798.69
545.16	3625.49
545.32	3658.26
545.49	3918.06
545.66	3885.29
545.83	3889.97
546.00	3864.22
546.16	3747.20
546.33	3789.33
546.50	3801.03
546.67	3847.84
546.83	3845.50
547.00	3712.09
547.17	3709.75
547.34	3609.11
547.50	3564.64
547.67	3452.29
547.84	3702.73
548.00	3609.11
548.17	3824.44
548.34	3779.97
548.51	3719.11
548.67	3833.80
548.84	3868.91
549.01	3681.66
549.18	3810.39
549.34	3634.85
549.51	3653.58
549.68	3803.37
549.84	3740.18
550.01	3691.02
550.18	3550.59
550.34	3609.11
550.51	3632.51
550.68	3761.24
550.84	3634.85
551.01	3627.83
551.18	3662.94
551.34	3630.17
551.51	3770.60
551.68	3693.37
551.84	3829.12
552.01	3733.15
552.18	3623.15
552.34	3534.21
552.51	3534.21
552.68	3480.38
552.84	3583.36
553.01	3695.71
553.18	3496.76
553.34	3681.66
553.51	3782.31
553.67	3646.55
553.84	3761.24
554.01	3712.09
554.17	3744.86
554.34	3583.36
554.51	3648.90
554.67	3714.43
554.84	3627.83
555.00	3712.09
555.17	3712.09
555.33	3574.00
555.50	3674.64
555.67	3581.02
555.83	3379.73
556.00	3489.74
556.16	3597.40
556.33	3492.08
556.50	3588.04
556.66	3494.42
556.83	3471.01
556.99	3503.78
557.16	3391.44
557.32	3431.23
557.49	3468.67
557.65	3471.01
557.82	3508.46
557.98	3391.44
558.15	3449.95
558.32	3300.16
558.48	3206.53
558.65	3286.11
558.81	3375.05
558.98	3365.69
559.14	3396.12
559.31	3361.01
559.47	3225.26
559.64	3304.84
559.80	3279.09
559.97	3258.03
560.13	3323.56
560.30	3620.81
560.46	3421.86
560.63	3487.40
560.79	3508.46
560.96	3487.40
561.12	3384.41
561.29	3222.92
561.45	3358.67
561.61	3215.90
561.78	3363.35
561.94	3262.71
562.11	3276.75
562.27	3309.52
562.44	3279.09
562.60	3499.10
562.77	3424.20
562.93	3407.82
563.10	3513.14
563.26	3262.71
563.42	3307.18
563.59	3314.20
563.75	3267.39
563.92	3288.45
564.08	3185.47
564.24	3485.06
564.41	3375.05
564.57	3316.54
564.74	3300.16
564.90	3239.30
565.07	3126.96
565.23	3283.77
565.39	3103.55
565.56	3155.04
565.72	3089.51
565.88	3073.12
566.05	3239.30
566.21	3295.47
566.38	3232.28
566.54	3206.53
566.70	3208.87
566.87	3344.63
567.03	3251.00
567.19	3449.95
567.36	3346.97
567.52	3281.43
567.68	3246.32
567.85	3143.34
568.01	3080.14
568.17	3089.51
568.34	3066.10
568.50	3038.02
568.66	3171.43
568.83	3150.36
568.99	3094.19
569.15	3262.71
569.32	3105.89
569.48	3225.26
569.64	3030.99
569.81	3122.27
569.97	3026.31
570.13	3068.44
570.30	3026.31
570.46	3026.31
570.62	2822.69
570.78	3023.97
570.95	3005.25
571.11	2904.60
571.27	2902.26
571.43	2881.20
571.60	3042.70
571.76	3098.87
571.92	3117.59
572.09	3126.96
572.25	3103.55
572.41	3115.25
572.57	3049.72
572.74	3190.15
572.90	3056.74
573.06	3019.29
573.22	3042.70
573.38	3084.83
573.55	3124.62
573.71	3077.80
573.87	3108.23
574.03	3178.45
574.20	3066.10
574.36	3019.29
574.52	2932.69
574.68	2965.46
574.84	2789.92
575.01	2972.48
575.17	2789.92
575.33	2853.11
575.49	2935.03
575.65	2988.86
575.82	2958.44
575.98	2862.48
576.14	3009.93
576.30	2984.18
576.46	3122.27
576.62	2888.22
576.79	2911.63
576.95	2876.52
577.11	2881.20
577.27	3007.59
577.43	3019.29
577.59	2916.31
577.75	2935.03
577.92	2693.96
578.08	2829.71
578.24	2743.11
578.40	2733.75
578.56	2827.37
578.72	2860.13
578.88	2946.73
579.04	2846.09
579.21	2839.07
579.37	2960.78
579.53	2850.77
579.69	2789.92
579.85	2920.99
580.01	2974.82
580.17	2818.00
580.33	2810.98
580.49	2841.41
580.65	2825.03
580.82	2902.26
580.98	2843.75
581.14	2925.67
581.30	2942.05
581.46	2827.37
581.62	2815.66
581.78	2853.11
581.94	2864.82
582.10	2843.75
582.26	2871.84
582.42	2928.01
582.58	2902.26
582.74	2738.43
582.90	2848.43
583.06	2881.20
583.22	2883.54
583.38	2853.11
583.54	2846.09
583.70	2825.03
583.86	2918.65
584.02	2768.85
584.18	2820.35
584.34	2799.28
584.50	2780.56
584.66	2799.28
584.82	2864.82
584.98	2686.94
585.14	2668.21
585.30	2768.85
585.46	2729.06
585.62	2677.57
585.78	2719.70
585.94	2654.17
586.10	2731.41
586.26	2729.06
586.42	2700.98
586.58	2839.07
586.74	2853.11
586.90	2782.90
587.06	2654.17
587.22	2698.64
587.38	2621.40
587.54	2654.17
587.70	2581.61
587.86	2593.31
588.02	2560.55
588.18	2530.12
588.34	2518.42
588.49	2242.23
588.65	2216.49
588.81	2190.74
588.97	2134.57
589.13	2193.08
589.29	2282.02
589.45	2136.91
589.61	2275.00
589.77	2413.09
589.93	2445.86
590.08	2408.41
590.24	2630.76
590.40	2574.59
590.56	2546.50
590.72	2565.23
590.88	2516.08
591.04	2616.72
591.20	2532.46
591.35	2513.74
591.51	2502.03
591.67	2541.82
591.83	2455.22
591.99	2516.08
592.15	2602.68
592.31	2616.72
592.46	2499.69
592.62	2586.29
592.78	2530.12
592.94	2495.01
593.10	2506.71
593.26	2415.43
593.41	2499.69
593.57	2516.08
593.73	2576.93
593.89	2518.42
594.05	2413.09
594.20	2413.09
594.36	2396.71
594.52	2361.60
594.68	2366.28
594.84	2403.73
594.99	2523.10
595.15	2394.37
595.31	2487.99
595.47	2443.52
595.62	2471.61
595.78	2450.54
595.94	2600.34
596.10	2368.62
596.25	2478.63
596.41	2459.90
596.57	2450.54
596.73	2509.05
596.88	2469.27
597.04	2502.03
597.20	2502.03
597.36	2387.35
597.51	2319.47
597.67	2359.26
597.83	2356.92
597.99	2427.14
598.14	2392.03
598.30	2363.94
598.46	2275.00
598.61	2307.77
598.77	2321.81
598.93	2246.91
599.09	2347.56
599.24	2312.45
599.40	2413.09
599.56	2335.85
599.71	2417.77
599.87	2260.96
600.03	2363.94
600.18	2394.37
600.34	2363.94
600.50	2249.25
600.65	2300.75
600.81	2387.35
600.97	2347.56
601.12	2314.79
601.28	2399.05
601.44	2263.30
601.59	2279.68
601.75	2291.38
601.91	2342.88
602.06	2328.83
602.22	2296.07
602.37	2347.56
602.53	2162.66
602.69	2256.28
602.84	2394.37
603.00	2457.56
603.16	2265.64
603.31	2356.92
603.47	2417.77
603.62	2347.56
603.78	2338.20
603.94	2401.39
604.09	2303.09
604.25	2335.85
604.40	2310.11
604.56	2326.49
604.71	2375.64
604.87	2251.60
605.03	2342.88
605.18	2260.96
605.34	2321.81
605.49	2340.54
605.65	2267.98
605.80	2223.51
605.96	2296.07
606.12	2275.00
606.27	2172.02
606.43	2331.17
606.58	2293.72
606.74	2134.57
606.89	2303.09
607.05	2289.04
607.20	2272.66
607.36	2305.43
607.51	2129.89
607.67	2188.40
607.82	2176.70
607.98	2251.60
608.13	2153.29
608.29	2195.42
608.44	2172.02
608.60	2167.34
608.75	2108.82
608.91	2160.31
609.06	2146.27
609.22	2183.72
609.37	2080.74
609.53	2153.29
609.68	2232.87
609.84	2157.97
609.99	2104.14
610.15	2148.61
610.30	2106.48
610.46	2186.06
610.61	2139.25
610.76	2284.36
610.92	2143.93
611.07	2132.23
611.23	2172.02
611.38	2136.91
611.54	2204.78
611.69	2143.93
611.84	2078.40
612.00	1984.77
612.15	2024.56
612.31	2054.99
612.46	2127.55
612.62	2047.97
612.77	2062.01
612.92	1921.58
613.08	2071.37
613.23	2043.29
613.39	1813.92
613.54	1944.99
613.69	1886.47
613.85	2005.84
614.00	1991.80
614.15	1963.71
614.31	1966.05
614.46	2073.71
614.62	2078.40
614.77	2087.76
614.92	2043.29
615.08	1898.17
615.23	2047.97
615.38	1959.03
615.54	1874.77
615.69	1966.05
615.84	1916.90
616.00	1895.83
616.15	1947.33
616.30	1942.64
616.46	1893.49
616.61	1942.64
616.76	1914.56
616.92	1884.13
617.07	2040.95
617.22	1888.81
617.37	1935.62
617.53	1900.52
617.68	1982.43
617.83	1991.80
617.99	1914.56
618.14	1935.62
618.29	1919.24
618.45	1895.83
618.60	1961.37
618.75	1879.45
618.90	1842.00
619.06	1956.69
619.21	1977.75
619.36	1877.11
619.51	1956.69
619.67	1954.35
619.82	1884.13
619.97	1884.13
620.12	2010.52
620.28	1811.57
620.43	1947.33
620.58	1977.75
620.73	1839.66
620.89	1853.70
621.04	1816.26
621.19	1860.73
621.34	1797.53
621.49	1858.39
621.65	1724.97
621.80	1907.54
621.95	1851.36
622.10	1781.15
622.25	1746.04
622.41	1732.00
622.56	1863.07
622.71	1661.78
622.86	1710.93
623.01	1797.53
623.16	1696.89
623.32	1753.06
623.47	1710.93
623.62	1682.85
623.77	1755.40
623.92	1750.72
624.07	1778.81
624.23	1647.74
624.38	1724.97
624.53	1631.35
624.68	1774.13
624.83	1767.10
624.98	1614.97
625.13	1678.16
625.29	1612.63
625.44	1638.38
625.59	1748.38
625.74	1720.29
625.89	1638.38
626.04	1774.13
626.19	1678.16
626.34	1764.76
626.49	1675.82
626.65	1750.72
626.80	1687.53
626.95	1652.42
627.10	1582.20
627.25	1577.52
627.40	1533.05
627.55	1490.92
627.70	1511.99
627.85	1607.95
628.00	1610.29
628.15	1556.46
628.30	1535.39
628.45	1561.14
628.60	1577.52
628.76	1561.14
628.91	1577.52
629.06	1603.27
629.21	1577.52
629.36	1556.46
629.51	1509.65
629.66	1577.52
629.81	1467.52
629.96	1617.31
630.11	1504.96
630.26	1584.54
630.41	1561.14
630.56	1654.76
630.71	1650.08
630.86	1570.50
631.01	1432.41
631.16	1556.46
631.31	1526.03
631.46	1418.36
631.61	1497.94
631.76	1537.73
631.91	1509.65
632.06	1624.33
632.21	1600.93
632.36	1533.05
632.51	1497.94
632.66	1409.00
632.81	1636.03
632.96	1593.90
633.10	1533.05
633.25	1556.46
633.40	1537.73
633.55	1589.22
633.70	1479.22
633.85	1446.45
634.00	1413.68
634.15	1561.14
634.30	1493.26
634.45	1490.92
634.60	1640.72
634.75	1514.33
634.90	1530.71
635.05	1448.79
635.19	1481.56
635.34	1540.07
635.49	1345.81
635.64	1387.94
635.79	1500.28
635.94	1486.24
636.09	1507.30
636.24	1504.96
636.39	1554.12
636.53	1385.60
636.68	1551.78
636.83	1495.60
636.98	1390.28
637.13	1479.22
637.28	1514.33
637.43	1350.49
637.57	1448.79
637.72	1467.52
637.87	1509.65
638.02	1378.58
638.17	1528.37
638.32	1460.49
638.46	1495.60
638.61	1504.96
638.76	1511.99
638.91	1453.47
639.06	1434.75
639.20	1483.90
639.35	1444.11
639.50	1352.83
639.65	1369.21
639.80	1380.92
639.94	1493.26
640.09	1455.81
640.24	1338.79
640.39	1315.38
640.54	1322.40
640.68	1362.19
640.83	1401.98
640.98	1437.09
641.13	1338.79
641.27	1214.74
641.42	1315.38
641.57	1245.16
641.72	1322.40
641.86	1404.32
642.01	1352.83
642.16	1364.53
642.31	1385.60
642.45	1341.13
642.60	1317.72
642.75	1320.06
642.90	1425.39
643.04	1313.04
643.19	1287.29
643.34	1249.85
643.48	1294.32
643.63	1245.16
643.78	1273.25
643.93	1322.40
644.07	1364.53
644.22	1282.61
644.37	1256.87
644.51	1355.17
644.66	1315.38
644.81	1331.76
644.95	1357.51
645.10	1343.47
645.25	1226.44
645.39	1226.44
645.54	1322.40
645.69	1226.44
645.83	1212.40
645.98	1261.55
646.13	1247.51
646.27	1219.42
646.42	1238.14
646.57	1231.12
646.71	1188.99
646.86	1345.81
647.00	1287.29
647.15	1153.88
647.30	1259.21
647.44	1205.38
647.59	1238.14
647.74	1224.10
647.88	1146.86
648.03	1238.14
648.17	1221.76
648.32	1167.93
648.47	1179.63
648.61	1249.85
648.76	1306.02
648.90	1123.46
649.05	1064.94
649.20	1139.84
649.34	1032.18
649.49	1142.18
649.63	1097.71
649.78	1179.63
649.92	1170.27
650.07	1170.27
650.21	1203.04
650.36	1212.40
650.51	1118.78
650.65	1163.25
650.80	1270.91
650.94	1158.57
651.09	1043.88
651.23	1074.31
651.38	1191.33
651.52	1153.88
651.67	1151.54
651.81	1102.39
651.96	1158.57
652.10	1137.50
652.25	1130.48
652.39	1041.54
652.54	1149.20
652.68	1142.18
652.83	1153.88
652.97	1111.75
653.12	1198.35
653.26	1153.88
653.41	1109.41
653.55	1160.91
653.70	1137.50
653.84	1196.01
653.99	1139.84
654.13	1060.26
654.27	1046.22
654.42	1050.90
654.56	1020.47
654.71	1083.67
654.85	1097.71
655.00	1027.50
655.14	1008.77
655.29	976.00
655.43	1069.62
655.57	997.07
655.72	901.11
655.86	791.10
656.01	741.95
656.15	695.14
656.30	849.61
656.44	861.32
656.58	910.47
656.73	966.64
656.87	1022.81
657.01	1081.33
657.16	1097.71
657.30	1062.60
657.45	1032.18
657.59	997.07
657.73	1057.92
657.88	1137.50
658.02	1060.26
658.16	1032.18
658.31	990.05
658.45	992.39
658.60	1008.77
658.74	1086.01
658.88	1116.44
659.03	1029.84
659.17	957.28
659.31	1039.20
659.46	1046.22
659.60	1013.45
659.74	1006.43
659.89	1057.92
660.03	1020.47
660.17	1109.41
660.32	1001.75
660.46	1064.94
660.60	1041.54
660.74	959.62
660.89	1001.75
661.03	1022.81
661.17	968.98
661.32	1057.92
661.46	1039.20
661.60	1130.48
661.74	966.64
661.89	1053.24
662.03	1022.81
662.17	1013.45
662.31	1022.81
662.46	1055.58
662.60	1046.22
662.74	976.00
662.88	985.37
663.03	891.74
663.17	929.19
663.31	994.73
663.45	922.17
663.60	917.49
663.74	973.66
663.88	924.51
664.02	976.00
664.17	997.07
664.31	1001.75
664.45	908.13
664.59	980.68
664.73	947.92
664.88	950.26
665.02	858.98
665.16	919.83
665.30	1029.84
665.44	943.24
665.59	954.94
665.73	976.00
665.87	896.43
666.01	945.58
666.15	966.64
666.29	873.02
666.44	947.92
666.58	889.40
666.72	985.37
666.86	954.94
667.00	1015.79
667.14	840.25
667.28	896.43
667.43	894.08
667.57	882.38
667.71	842.59
667.85	924.51
667.99	877.70
668.13	875.36
668.27	880.04
668.41	891.74
668.56	858.98
668.70	924.51
668.84	830.89
668.98	924.51
669.12	842.59
669.26	938.55
669.40	877.70
669.54	901.11
669.68	802.80
669.82	945.58
669.96	795.78
670.10	854.30
670.25	807.48
670.39	849.61
670.53	772.38
670.67	856.64
670.81	856.64
670.95	800.46
671.09	718.54
671.23	844.93
671.37	823.87
671.51	791.10
671.65	819.19
671.79	837.91
671.93	751.31
672.07	720.88
672.21	798.12
672.35	844.93
672.49	823.87
672.63	737.27
672.77	851.96
672.91	763.01
673.05	798.12
673.19	704.50
673.33	751.31
673.47	732.59
673.61	770.04
673.75	755.99
673.89	695.14
674.03	767.70
674.17	709.18
674.31	819.19
674.45	795.78
674.59	723.23
674.73	767.70
674.87	753.65
675.01	678.76
675.15	774.72
675.29	697.48
675.43	727.91
675.56	711.52
675.70	737.27
675.84	716.20
675.98	709.18
676.12	688.12
676.26	718.54
676.40	692.80
676.54	725.57
676.68	725.57
676.82	767.70
676.96	669.39
677.10	660.03
677.23	627.26
677.37	662.37
677.51	688.12
677.65	704.50
677.79	683.44
677.93	601.52
678.07	645.99
678.21	596.84
678.34	645.99
678.48	669.39
678.62	667.05
678.76	697.48
678.90	653.01
679.04	685.78
679.18	599.18
679.31	660.03
679.45	653.01
679.59	599.18
679.73	763.01
679.87	631.94
680.00	629.60
680.14	552.37
680.28	655.35
680.42	620.24
680.56	622.58
680.70	592.16
680.83	617.90
680.97	561.73
681.11	608.54
681.25	503.22
681.39	596.84
681.52	615.56
681.66	575.77
681.80	636.63
681.94	608.54
682.07	606.20
682.21	552.37
682.35	489.17
682.49	521.94
682.62	587.47
682.76	545.34
682.90	557.05
683.04	489.17
683.17	608.54
683.31	533.64
683.45	470.45
683.59	521.94
683.72	524.28
683.86	559.39
684.00	521.94
684.13	514.92
684.27	519.60
684.41	496.19
684.55	503.22
684.68	503.22
684.82	496.19
684.96	489.17
685.09	521.94
685.23	383.85
685.37	414.27
685.50	554.71
685.64	505.56
685.78	524.28
685.91	472.79
686.05	451.72
686.19	500.87
686.32	365.12
686.46	283.20
686.60	299.59
686.73	266.82
686.87	234.05
687.01	290.23
687.14	210.65
687.28	149.79
687.42	224.69
687.55	280.86
687.69	348.74
687.82	351.08
687.96	330.02
688.10	346.40
688.23	400.23
688.37	320.65
688.50	252.78
688.64	327.68
688.78	383.85
688.91	276.18
689.05	271.50
689.18	292.57
689.32	301.93
689.46	341.72
689.59	283.20
689.73	290.23
689.86	292.57
690.00	276.18
690.13	325.33
690.27	393.21
690.41	344.06
690.54	348.74
690.68	276.18
690.81	337.04
690.95	388.53
691.08	414.27
691.22	339.38
691.35	299.59
691.49	283.20
691.62	440.02
691.76	313.63
691.89	311.29
692.03	325.33
692.16	294.91
692.30	304.27
692.43	304.27
692.57	322.99
692.70	269.16
692.84	264.48
692.97	266.82
693.11	283.20
693.24	243.42
693.38	311.29
693.51	325.33
693.65	313.63
693.78	334.70
693.92	315.97
694.05	266.82
694.19	212.99
694.32	243.42
694.45	252.78
694.59	234.05
694.72	257.46
694.86	313.63
694.99	234.05
695.13	273.84
695.26	105.32
695.39	271.50
695.53	290.23
695.66	243.42
695.80	255.12
695.93	292.57
696.07	271.50
696.20	299.59
696.33	285.55
696.47	234.05
696.60	287.89
696.73	290.23
696.87	220.01
697.00	294.91
697.14	273.84
697.27	238.73
697.40	266.82
697.54	191.92
697.67	198.95
697.80	203.63
697.94	245.76
698.07	208.31
698.21	243.42
698.34	212.99
698.47	203.63
698.61	269.16
698.74	175.54
698.87	152.13
699.01	210.65
699.14	112.35
699.27	184.90
699.40	245.76
699.54	138.09
699.67	201.29
699.80	189.58
699.94	210.65
700.07	180.22
700.20	203.63
700.34	241.08
700.47	175.54
700.60	201.29
700.73	189.58
700.87	175.54
701.00	159.16
701.13	140.43
701.26	145.11
701.40	177.88
701.53	269.16
701.66	210.65
701.79	91.28
701.93	84.26
702.06	131.07
702.19	126.39
702.32	149.79
702.46	205.97
702.59	30.43
702.72	182.56
702.85	121.71
702.99	95.96
703.12	112.35
703.25	166.18
703.38	98.30
703.51	147.45
703.65	163.84
703.78	147.45
703.91	124.05
704.04	114.69
704.17	220.01
704.31	154.48
704.44	182.56
704.57	166.18
704.70	112.35
704.83	149.79
704.96	177.88
705.10	175.54
705.23	37.45
>>>>>End Processed Spectral Data<<<<<
