SpectraSuite Data File
++++++++++++++++++++++++++++++++++++
Date: Mon Oct 07 14:54:58 GMT-05:00 2013
User: price-jones
Dark Spectrum Present: No
Reference Spectrum Present: No
Number of Sampled Component Spectra: 1
Spectrometers: USB2+H05261
Integration Time (usec): 10000 (USB2+H05261)
Spectra Averaged: 1 (USB2+H05261)
Boxcar Smoothing: 0 (USB2+H05261)
Correct for Electrical Dark: No (USB2+H05261)
Strobe/Lamp Enabled: No (USB2+H05261)
Correct for Detector Non-linearity: No (USB2+H05261)
Correct for Stray Light: No (USB2+H05261)
Number of Pixels in Processed Spectrum: 2048
>>>>>Begin Processed Spectral Data<<<<<
365.73	0.00
365.92	0.00
366.12	0.00
366.32	0.00
366.52	0.00
366.72	0.00
366.91	0.00
367.11	0.00
367.31	0.00
367.51	0.00
367.70	0.00
367.90	0.00
368.10	0.00
368.30	0.00
368.49	0.00
368.69	0.00
368.89	0.00
369.09	0.00
369.28	0.00
369.48	0.00
369.68	0.00
369.87	0.00
370.07	0.00
370.27	0.00
370.47	156.82
370.66	1453.47
370.86	1746.04
371.06	1748.38
371.25	1802.21
371.45	1668.80
371.65	1280.27
371.84	1331.76
372.04	1607.95
372.24	1633.69
372.44	1633.69
372.63	1558.80
372.83	1516.67
373.03	1266.23
373.22	1273.25
373.42	1359.85
373.62	1511.99
373.81	1636.03
374.01	1657.10
374.21	1469.86
374.40	1362.19
374.60	1495.60
374.79	1685.19
374.99	2010.52
375.19	2146.27
375.38	2069.03
375.58	1926.26
375.78	1942.64
375.97	1844.34
376.17	1928.60
376.37	1863.07
376.56	2012.86
376.76	2207.13
376.95	2310.11
377.15	2354.58
377.35	2684.59
377.54	2775.88
377.74	2803.96
377.93	2738.43
378.13	2609.70
378.33	2427.14
378.52	2321.81
378.72	2160.31
378.91	2165.00
379.11	2209.47
379.31	2087.76
379.50	2029.24
379.70	2284.36
379.89	2502.03
380.09	2544.16
380.28	2630.76
380.48	2764.17
380.68	2621.40
380.87	2464.58
381.07	2265.64
381.26	2066.69
381.46	1937.96
381.65	1898.17
381.85	2031.58
382.04	1724.97
382.24	1675.82
382.43	1636.03
382.63	1509.65
382.83	1467.52
383.02	1626.67
383.22	1572.84
383.41	1530.71
383.61	1692.21
383.80	2033.93
384.00	2373.30
384.19	2480.97
384.39	2733.75
384.58	2672.89
384.78	2607.36
384.97	2565.23
385.17	2392.03
385.36	2366.28
385.56	2141.59
385.75	2438.84
385.95	2691.62
386.14	2717.36
386.34	2759.49
386.53	2588.63
386.72	2583.95
386.92	2630.76
387.11	2691.62
387.31	2736.09
387.50	2647.15
387.70	2616.72
387.89	2605.02
388.09	2509.05
388.28	2553.52
388.48	2757.15
388.67	2984.18
388.86	3363.35
389.06	3363.35
389.25	3627.83
389.45	3733.15
389.64	3630.17
389.84	3632.51
390.03	3611.45
390.22	3466.33
390.42	3723.79
390.61	3906.35
390.81	4210.62
391.00	4112.32
391.19	4198.92
391.39	4044.45
391.58	3716.77
391.78	3480.38
391.97	3316.54
392.16	3052.06
392.36	2642.46
392.55	2125.21
392.75	1673.48
392.94	1437.09
393.13	1460.49
393.33	1830.30
393.52	2457.56
393.71	2857.79
393.91	3323.56
394.10	3599.74
394.29	4046.79
394.49	4039.76
394.68	4402.55
394.88	4472.76
395.07	4592.13
395.26	4451.70
395.46	4250.41
395.65	3896.99
395.84	3426.54
396.04	2771.19
396.23	2200.10
396.42	1886.47
396.62	1989.46
396.81	2548.84
397.00	3283.77
397.19	3922.74
397.39	4697.46
397.58	5064.92
397.77	5394.93
397.97	5439.40
398.16	5610.26
398.35	5650.05
398.55	6080.71
398.74	6118.16
398.93	6242.21
399.12	6263.27
399.32	6047.94
399.51	6143.91
399.70	6579.25
399.90	6438.81
400.09	6415.41
400.28	6759.47
400.47	6621.38
400.67	6986.50
400.86	6991.18
401.05	6986.50
401.24	6960.75
401.44	7187.79
401.63	7192.47
401.82	7042.67
402.01	7316.51
402.21	7162.04
402.40	7075.44
402.59	6986.50
402.78	6609.67
402.97	6637.76
403.17	6899.90
403.36	7304.81
403.55	7506.10
403.74	7541.21
403.93	7169.06
404.13	6565.20
404.32	6794.58
404.51	6974.80
404.70	7309.49
404.89	7426.52
405.09	7159.70
405.28	7112.89
405.47	7241.62
405.66	7066.08
405.85	6684.57
406.05	6382.64
406.24	6827.34
406.43	7265.02
406.62	7302.47
406.81	7393.75
407.00	6951.39
407.20	6878.83
407.39	7007.56
407.58	7623.12
407.77	7868.88
407.96	7824.41
408.15	7819.73
408.34	8173.15
408.54	8379.12
408.73	8468.06
408.92	8128.68
409.11	7735.47
409.30	7606.74
409.49	7183.10
409.68	6768.83
409.87	6637.76
410.07	7211.19
410.26	7368.01
410.45	8013.99
410.64	8229.32
410.83	8332.31
411.02	8844.88
411.21	8994.68
411.40	8819.14
411.59	8826.16
411.78	8671.68
411.98	8351.03
412.17	8791.05
412.36	8739.56
412.55	8627.21
412.74	8311.24
412.93	8446.99
413.12	8695.09
413.31	9254.48
413.50	9467.47
413.69	9212.35
413.88	8741.90
414.07	8875.31
414.26	8992.34
414.45	9170.22
414.64	9240.44
414.83	9291.93
415.02	9231.07
415.22	9179.58
415.41	9383.21
415.60	9460.45
415.79	9879.40
415.98	10129.84
416.17	10174.31
416.36	9657.05
416.55	9757.69
416.74	9226.39
416.93	9174.90
417.12	9387.89
417.31	9357.46
417.50	9352.78
417.69	9415.98
417.88	9675.77
418.07	9472.15
418.26	9504.92
418.45	9774.08
418.64	10111.11
418.83	10258.57
419.02	10073.67
419.21	9792.80
419.39	9336.40
419.58	9067.24
419.77	9165.54
419.96	9666.41
420.15	10174.31
420.34	10445.81
420.53	10998.18
420.72	10932.64
420.91	10752.42
421.10	10782.85
421.29	10792.21
421.48	10340.49
421.67	10841.36
421.86	10354.53
422.05	9423.00
422.24	8755.94
422.43	8795.73
422.61	9919.19
422.80	10071.33
422.99	10040.90
423.18	9879.40
423.37	9809.19
423.56	10101.75
423.75	10038.56
423.94	10494.96
424.13	9617.26
424.32	9626.62
424.50	9774.08
424.69	9823.23
424.88	9891.10
425.07	9645.35
425.26	9783.44
425.45	9413.63
425.64	9320.01
425.83	9626.62
426.01	10108.77
426.20	10129.84
426.39	10071.33
426.58	9188.94
426.77	8484.44
426.96	8449.33
427.15	8755.94
427.33	9579.81
427.52	9753.01
427.71	9863.02
427.90	9366.82
428.09	9439.38
428.28	9280.22
428.46	9025.11
428.65	9142.13
428.84	9240.44
429.03	9041.49
429.22	8589.77
429.40	8142.72
429.59	7353.96
429.78	6738.40
429.97	6846.07
430.16	6738.40
430.34	6445.84
430.53	6658.82
430.72	7122.25
430.91	8271.45
431.10	9530.66
431.28	10705.61
431.47	11349.26
431.66	11424.15
431.85	9877.06
432.03	9387.89
432.22	9628.96
432.41	10211.76
432.60	10600.29
432.79	11206.48
432.97	11314.15
433.16	10764.12
433.35	10071.33
433.54	8894.04
433.72	8887.01
433.91	9305.97
434.10	10300.70
434.28	10782.85
434.47	11178.40
434.66	10813.28
434.85	10729.02
435.03	11049.67
435.22	11098.82
435.41	11555.22
435.59	11604.38
435.78	11758.85
435.97	11896.94
436.16	12079.50
436.34	11775.24
436.53	11786.94
436.72	11770.55
436.90	10864.77
437.09	11180.74
437.28	11052.01
437.46	11318.83
437.65	11077.76
437.84	10099.41
438.02	9750.67
438.21	10036.22
438.40	10347.51
438.58	10808.59
438.77	11288.40
438.96	11225.21
439.14	12245.68
439.33	12182.49
439.52	12212.92
439.70	11768.21
439.89	11527.14
440.08	11538.84
440.26	11459.26
440.45	12006.95
440.63	12793.37
440.82	13317.65
441.01	12894.01
441.19	12985.29
441.38	13446.38
441.57	13790.44
441.75	13455.74
441.94	13965.98
442.12	13474.46
442.31	13991.72
442.50	14071.30
442.68	13809.16
442.87	13799.80
443.05	13633.62
443.24	13984.70
443.43	13811.50
443.61	13870.01
443.80	14499.62
443.98	13420.63
444.17	13954.27
444.35	14860.06
444.54	14588.56
444.73	14443.45
444.91	13497.87
445.10	13041.46
445.28	12753.58
445.47	12465.69
445.65	12451.65
445.84	13060.19
446.02	13582.13
446.21	13745.97
446.39	13769.37
446.58	14228.12
446.77	14384.93
446.95	14242.16
447.14	14520.68
447.32	14801.55
447.51	14277.27
447.69	13809.16
447.88	13694.47
448.06	13921.51
448.25	14204.71
448.43	14295.99
448.62	14097.05
448.80	13518.93
448.99	13937.89
449.17	14253.86
449.36	14214.07
449.54	14661.12
449.73	14890.49
449.91	15023.90
450.10	15653.50
450.28	15599.67
450.46	15257.95
450.65	15140.93
450.83	15269.66
451.02	15295.40
451.20	14387.27
451.39	14728.99
451.57	14714.95
451.76	14822.61
451.94	14705.59
452.13	14469.19
452.31	13530.64
452.49	13263.82
452.68	13486.17
452.86	13554.04
453.05	13839.59
453.23	14263.22
453.42	14532.39
453.60	14714.95
453.78	14738.35
453.97	14288.97
454.15	14490.26
454.34	14111.09
454.52	14288.97
454.70	14176.62
454.89	14260.88
455.07	14024.49
455.26	14642.39
455.44	14831.97
455.62	15105.82
455.81	15374.98
455.99	15096.46
456.17	15159.65
456.36	15587.97
456.54	15548.18
456.73	15412.43
456.91	15793.94
457.09	15864.15
457.28	16173.10
457.46	15625.42
457.64	15468.60
457.83	14848.36
458.01	14614.30
458.19	15295.40
458.38	15140.93
458.56	15241.57
458.74	15407.75
458.93	15140.93
459.11	14860.06
459.29	14670.48
459.48	14834.32
459.66	14705.59
459.84	14998.15
460.03	15831.38
460.21	15295.40
460.39	15899.26
460.57	15854.79
460.76	15894.58
460.94	15901.60
461.12	15932.03
461.31	15550.52
461.49	15999.90
461.67	15967.13
461.85	16198.85
462.04	16137.99
462.22	16376.73
462.40	16198.85
462.59	15646.48
462.77	16009.26
462.95	16027.99
463.13	16224.59
463.32	15536.48
463.50	15674.57
463.68	15672.23
463.86	15812.66
464.05	15597.33
464.23	15295.40
464.41	15049.64
464.59	14925.60
464.78	15398.38
464.96	15386.68
465.14	15241.57
465.32	15847.77
465.50	16189.49
465.69	16390.77
465.87	15693.29
466.05	15253.27
466.23	14677.50
466.41	14834.32
466.60	15316.47
466.78	15328.17
466.96	14747.72
467.14	15241.57
467.32	15529.45
467.51	15611.37
467.69	15066.03
467.87	15112.84
468.05	15494.35
468.23	15431.15
468.41	15613.71
468.60	15639.46
468.78	15477.96
468.96	15592.65
469.14	16056.08
469.32	15960.11
469.50	15246.25
469.69	14993.47
469.87	14647.07
470.05	14911.55
470.23	14941.98
470.41	15386.68
470.59	15623.08
470.77	15192.42
470.95	15279.02
471.14	15819.68
471.32	15878.19
471.50	16704.40
471.68	16465.67
471.86	16652.91
472.04	16868.24
472.22	16479.71
472.40	16276.09
472.58	16482.05
472.77	15784.57
472.95	16531.20
473.13	16613.12
473.31	16198.85
473.49	16425.88
473.67	16685.68
473.85	16580.36
474.03	16690.36
474.21	16802.71
474.39	17095.27
474.57	16999.31
474.75	17256.77
474.93	17156.13
475.12	16966.54
475.30	17001.65
475.48	16615.46
475.66	17184.21
475.84	16725.47
476.02	16966.54
476.20	16552.27
476.38	17097.61
476.56	17284.86
476.74	17666.36
476.92	17862.97
477.10	18061.91
477.28	18574.49
477.46	18310.01
477.64	18267.88
477.82	18211.71
478.00	18506.62
478.18	18242.14
478.36	18541.72
478.54	17994.04
478.72	18698.54
478.90	19159.63
479.08	19424.11
479.26	19499.00
479.44	19044.94
479.62	19541.13
479.80	19936.68
479.98	19613.69
480.16	20191.80
480.34	19564.54
480.52	19520.07
480.70	19648.80
480.88	19709.65
481.06	20339.26
481.24	20552.24
481.41	21717.83
481.59	21628.89
481.77	20886.94
481.95	20318.19
482.13	21160.78
482.31	20505.43
482.49	20996.95
482.67	20608.42
482.85	20657.57
483.03	21071.84
483.21	21160.78
483.39	21336.32
483.57	21280.15
483.74	20980.56
483.92	20858.85
484.10	21802.09
484.28	21820.81
484.46	22132.11
484.64	21495.48
484.82	21497.82
485.00	21266.11
485.18	20491.39
485.35	19892.21
485.53	17514.23
485.71	16475.03
485.89	17500.19
486.07	18047.87
486.25	19400.70
486.43	20353.30
486.61	19901.58
486.78	20327.55
486.96	20695.02
487.14	21664.00
487.32	22106.36
487.50	22522.98
487.68	21996.35
487.85	23300.03
488.03	23616.01
488.21	22632.98
488.39	21895.71
488.57	22258.49
488.75	21994.01
488.92	23421.74
489.10	25179.48
489.28	25628.87
489.46	26394.22
489.64	26462.10
489.81	25820.79
489.99	25465.03
490.17	25883.98
490.35	26061.87
490.53	25647.59
490.70	25333.96
490.88	25493.12
491.06	26209.32
491.24	26211.66
491.41	24692.65
491.59	24203.48
491.77	23220.45
491.95	24095.82
492.13	24868.19
492.30	25832.49
492.48	27058.93
492.66	27414.69
492.84	26555.72
493.01	26658.70
493.19	25748.23
493.37	24709.04
493.54	25811.43
493.72	26417.63
493.90	27175.96
494.08	28034.94
494.25	29015.62
494.43	28664.54
494.61	29638.20
494.79	29315.21
494.96	29090.52
495.14	27693.22
495.32	26988.72
495.49	27063.61
495.67	27229.79
495.85	29111.58
496.02	29055.41
496.20	29888.64
496.38	29397.13
496.55	28954.77
496.73	29010.94
496.91	28477.30
497.09	29411.17
497.26	29827.79
497.44	29869.92
497.62	29235.63
497.79	28374.31
497.97	27358.52
498.14	27665.13
498.32	28549.85
498.50	28945.41
498.67	29434.58
498.85	29144.35
499.03	28528.79
499.20	29287.12
499.38	28774.55
499.56	28369.63
499.73	28662.20
499.91	28109.83
500.08	27285.97
500.26	26962.97
500.44	27623.00
500.61	28755.82
500.79	27873.44
500.97	27775.14
501.14	27386.61
501.32	27246.18
501.49	26995.74
501.67	27920.25
501.84	28552.20
502.02	29074.13
502.20	28444.53
502.37	29319.89
502.55	29928.43
502.72	30103.97
502.90	30560.37
503.07	29675.65
503.25	28954.77
503.43	28570.92
503.60	27365.54
503.78	26939.57
503.95	27955.36
504.13	28811.99
504.30	30199.93
504.48	30476.12
504.65	29570.33
504.83	29682.67
505.01	29408.83
505.18	29446.28
505.36	30838.90
505.53	30895.07
505.71	31206.36
505.88	30986.35
506.06	31189.98
506.23	30057.16
506.41	30094.61
506.58	29907.37
506.76	29443.94
506.93	30206.95
507.11	28826.04
507.28	29394.79
507.46	29205.20
507.63	28786.25
507.81	28140.26
507.98	28559.22
508.16	29305.85
508.33	30419.94
508.50	29696.72
508.68	30843.58
508.85	31248.49
509.03	30881.03
509.20	30162.48
509.38	29738.85
509.55	29345.64
509.73	30068.86
509.90	30941.88
510.08	29626.50
510.25	29575.01
510.42	29706.08
510.60	29743.53
510.77	30639.95
510.95	31133.81
511.12	30251.42
511.30	30974.65
511.47	31763.41
511.64	30937.20
511.82	31189.98
511.99	30127.38
512.17	30146.10
512.34	29806.72
512.51	29317.55
512.69	29376.06
512.86	30480.80
513.04	30644.63
513.21	30017.37
513.38	30059.50
513.56	29486.07
513.73	28290.06
513.90	28236.22
514.08	28851.78
514.25	29315.21
514.43	30068.86
514.60	29963.54
514.77	29575.01
514.95	29310.53
515.12	29605.44
515.29	30155.46
515.47	30625.91
515.64	30298.23
515.81	30431.65
515.99	29975.24
516.16	27082.34
516.33	25256.72
516.51	24044.32
516.68	23655.79
516.85	23281.31
517.03	24215.18
517.20	26270.17
517.37	28699.65
517.54	28638.80
517.72	26918.50
517.89	25631.21
518.06	24652.86
518.24	25434.60
518.41	26946.59
518.58	28105.15
518.75	27955.36
518.93	28535.81
519.10	28044.30
519.27	28144.94
519.45	29298.83
519.62	29841.83
519.79	30293.55
519.96	29972.90
520.14	28765.18
520.31	28601.35
520.48	28236.22
520.65	28673.90
520.83	29708.42
521.00	29378.40
521.17	28987.53
521.34	28446.87
521.52	28793.27
521.69	29837.15
521.86	30127.38
522.03	29385.43
522.20	28294.74
522.38	27370.22
522.55	27674.49
522.72	28137.92
522.89	27878.12
523.07	28264.31
523.24	29558.63
523.41	29642.88
523.58	29827.79
523.75	29647.57
523.92	30075.88
524.10	30665.70
524.27	30462.07
524.44	30228.02
524.61	31197.00
524.78	30780.39
524.96	30415.26
525.13	29825.45
525.30	31005.08
525.47	31363.18
525.64	31033.16
525.81	28386.02
525.98	27695.56
526.16	25883.98
526.33	25752.91
526.50	26047.82
526.67	26078.25
526.84	26298.26
527.01	27482.57
527.18	28477.30
527.36	28774.55
527.53	29900.34
527.70	29322.23
527.87	28128.56
528.04	28243.24
528.21	29083.50
528.38	29352.66
528.55	30986.35
528.72	30747.62
528.89	30679.74
529.07	31023.80
529.24	28912.64
529.41	29266.06
529.58	28922.00
529.75	28950.09
529.92	28889.23
530.09	29181.80
530.26	29394.79
530.43	28896.25
530.60	30424.62
530.77	30628.25
530.94	31440.42
531.11	30106.31
531.28	29610.12
531.46	29525.86
531.63	30349.73
531.80	30260.79
531.97	28746.46
532.14	27620.66
532.31	26501.89
532.48	26237.41
532.65	26228.04
532.82	27342.14
532.99	28315.80
533.16	29876.94
533.33	30754.64
533.50	29769.27
533.67	28711.35
533.84	28772.21
534.01	28601.35
534.18	28868.17
534.35	28425.81
534.52	28936.04
534.69	28889.23
534.86	28807.31
535.03	29247.33
535.20	30132.06
535.37	29986.94
535.54	29729.48
535.71	29460.32
535.88	29689.70
536.05	28505.38
536.22	28140.26
536.38	27754.07
536.55	28112.17
536.72	27758.75
536.89	27335.12
537.06	28622.41
537.23	28893.91
537.40	28910.30
537.57	28219.84
537.74	27964.72
537.91	27587.89
538.08	29420.53
538.25	29003.92
538.42	28386.02
538.59	28767.52
538.75	28645.82
538.92	28252.61
539.09	27763.43
539.26	26897.44
539.43	26527.63
539.60	26586.15
539.77	26871.69
539.94	26120.38
540.11	25317.57
540.28	25270.76
540.44	25605.46
540.61	26113.36
540.78	26242.09
540.95	27634.71
541.12	26764.03
541.29	27990.47
541.46	27271.92
541.62	27105.74
541.79	26803.82
541.96	26497.20
542.13	27566.83
542.30	27637.05
542.47	27426.40
542.63	26902.12
542.80	26122.72
542.97	26429.33
543.14	26148.46
543.31	25998.67
543.48	27756.41
543.64	27990.47
543.81	28746.46
543.98	27833.65
544.15	27180.64
544.32	26792.11
544.48	27648.75
544.65	26471.46
544.82	27192.34
544.99	27524.70
545.16	27194.68
545.32	27667.47
545.49	27866.42
545.66	27723.65
545.83	26986.38
546.00	27042.55
546.16	26717.22
546.33	26892.76
546.50	27505.98
546.67	27236.81
546.83	26572.10
547.00	26714.87
547.17	26604.87
547.34	26347.41
547.50	26281.88
547.67	26300.60
547.84	26473.80
548.00	26808.50
548.17	26338.05
548.34	25972.92
548.51	26260.81
548.67	27126.81
548.84	27126.81
549.01	27431.08
549.18	27398.31
549.34	28011.53
549.51	27653.43
549.68	27147.87
549.84	26607.21
550.01	26581.46
550.18	25848.88
550.34	25530.56
550.51	26118.04
550.68	25434.60
550.84	24582.65
551.01	24779.25
551.18	24372.00
551.34	24746.48
551.51	26120.38
551.68	26953.61
551.84	26096.97
552.01	26085.27
552.18	25951.86
552.34	25502.48
552.51	25439.28
552.68	26522.95
552.84	25532.90
553.01	25598.44
553.18	26869.35
553.34	26775.73
553.51	26391.88
553.67	25745.89
553.84	26721.90
554.01	26522.95
554.17	25493.12
554.34	25626.53
554.51	26576.78
554.67	26527.63
554.84	25715.47
555.00	25350.34
555.17	25453.33
555.33	25795.04
555.50	26242.09
555.67	25916.75
555.83	25621.84
556.00	25839.51
556.16	25652.27
556.33	25146.72
556.50	25053.09
556.66	24383.70
556.83	23714.31
556.99	24545.20
557.16	24992.24
557.32	24868.19
557.49	25039.05
557.65	25284.81
557.82	23812.61
557.98	24624.78
558.15	24968.84
558.32	24290.08
558.48	23658.14
558.65	23026.19
558.81	23480.25
558.98	23676.86
559.14	24226.89
559.31	24142.63
559.47	24016.24
559.64	23447.49
559.80	24301.78
559.97	23704.95
560.13	24390.72
560.30	24556.90
560.46	24807.34
560.63	25240.34
560.79	25530.56
560.96	24159.01
561.12	24084.11
561.29	23709.63
561.45	23391.31
561.61	23229.82
561.78	23449.83
561.94	23847.72
562.11	23379.61
562.27	23709.63
562.44	24292.42
562.60	23896.87
562.77	24350.93
562.93	23910.91
563.10	23660.48
563.26	23501.32
563.42	23365.57
563.59	22656.39
563.75	23662.82
563.92	23396.00
564.08	23494.30
564.24	23634.73
564.41	22419.99
564.57	22466.80
564.74	22911.50
564.90	22658.73
565.07	22331.05
565.23	21563.36
565.39	21568.04
565.56	22948.95
565.72	22635.32
565.88	23260.24
566.05	22197.64
566.21	22885.76
566.38	22097.00
566.54	22150.83
566.70	21701.45
566.87	22820.22
567.03	23566.85
567.19	24060.71
567.36	22148.49
567.52	22948.95
567.68	22398.93
567.85	22698.52
568.01	22855.33
568.17	21488.46
568.34	21160.78
568.50	21221.64
568.66	21661.66
568.83	21905.07
568.99	22178.92
569.15	22370.84
569.32	22817.88
569.48	22242.11
569.64	21296.53
569.81	21219.30
569.97	21530.59
570.13	21509.52
570.30	21355.05
570.46	20863.54
570.62	19850.08
570.78	19489.64
570.95	20137.97
571.11	20975.88
571.27	20706.72
571.43	21006.31
571.60	21406.54
571.76	21818.47
571.92	21788.05
572.09	21741.24
572.25	21736.56
572.41	21914.44
572.57	22129.77
572.74	21465.05
572.90	21795.07
573.06	21357.39
573.22	21376.11
573.38	21053.12
573.55	20695.02
573.71	20877.58
573.87	21160.78
574.03	21214.62
574.20	21240.36
574.36	20652.89
574.52	20896.30
574.68	20610.76
574.84	20170.74
575.01	20779.28
575.17	21085.89
575.33	20582.67
575.49	20280.74
575.65	20793.32
575.82	20240.95
575.98	20402.45
576.14	20669.27
576.30	20407.13
576.46	19824.34
576.62	20617.78
576.79	20180.10
576.95	19796.25
577.11	19702.63
577.27	19777.53
577.43	19730.72
577.59	19583.26
577.75	20383.73
577.92	19534.11
578.08	18876.42
578.24	19276.65
578.40	19587.94
578.56	19456.87
578.72	19733.06
578.88	20039.67
579.04	19634.75
579.21	19667.52
579.37	19941.36
579.53	19777.53
579.69	19534.11
579.85	18960.68
580.01	18881.10
580.17	19585.60
580.33	19150.26
580.49	19501.34
580.65	19323.46
580.82	19594.96
580.98	19583.26
581.14	19168.99
581.30	20170.74
581.46	19468.58
581.62	19527.09
581.78	19632.41
581.94	19798.59
582.10	19637.09
582.26	19719.01
582.42	19609.01
582.58	20538.20
582.74	20084.14
582.90	19709.65
583.06	19852.42
583.22	19751.78
583.38	19943.70
583.54	20077.12
583.70	19976.47
583.86	19716.67
584.02	20088.82
584.18	19541.13
584.34	19578.58
584.50	20318.19
584.66	19854.76
584.82	19215.80
584.98	19499.00
585.14	19250.91
585.30	18405.97
585.46	18223.41
585.62	17762.33
585.78	18256.18
585.94	18604.92
586.10	19143.24
586.26	18778.12
586.42	18757.05
586.58	18925.57
586.74	18862.38
586.90	18712.58
587.06	18803.86
587.22	18377.89
587.38	18541.72
587.54	18586.19
587.70	18310.01
587.86	18097.02
588.02	18204.69
588.18	17848.93
588.34	17153.79
588.49	17209.96
588.65	15992.88
588.81	15845.43
588.97	15747.12
589.13	15281.36
589.29	15267.31
589.45	15950.75
589.61	16849.52
589.77	17481.46
589.93	16964.20
590.08	17488.48
590.24	17699.13
590.40	17455.72
590.56	17277.83
590.72	16847.18
590.88	16875.26
591.04	17142.08
591.20	16865.90
591.35	17434.65
591.51	17982.34
591.67	17912.12
591.83	17720.20
591.99	17350.39
592.15	17235.70
592.31	17008.67
592.46	16566.31
592.62	16980.59
592.78	17366.78
592.94	16582.70
593.10	16835.47
593.26	17018.04
593.41	17549.34
593.57	17525.93
593.73	17212.30
593.89	16779.30
594.05	16484.39
594.20	16154.38
594.36	15927.35
594.52	16395.45
594.68	16308.85
594.84	16159.06
594.99	16734.83
595.15	16643.55
595.31	16863.56
595.47	16046.71
595.62	16575.67
595.78	16627.17
595.94	16517.16
596.10	16468.01
596.25	16339.28
596.41	17003.99
596.57	16767.60
596.73	16233.96
596.88	16365.03
597.04	16198.85
597.20	15466.26
597.36	15559.88
597.51	15723.72
597.67	16175.44
597.83	15932.03
597.99	15620.74
598.14	15218.16
598.30	14658.78
598.46	14567.49
598.61	15393.70
598.77	15854.79
598.93	16379.07
599.09	16542.91
599.24	15775.21
599.40	15634.78
599.56	15822.02
599.71	16070.12
599.87	15704.99
600.03	15817.34
600.18	16142.67
600.34	16388.43
600.50	16339.28
600.65	16446.94
600.81	16439.92
600.97	16219.91
601.12	15910.96
601.28	15218.16
601.44	15208.80
601.59	15077.73
601.75	15541.16
601.91	15304.76
602.06	15438.17
602.22	15337.53
602.37	15742.44
602.53	15744.78
602.69	15150.29
602.84	15178.37
603.00	15578.61
603.16	15690.95
603.31	15875.85
603.47	15742.44
603.62	15225.18
603.78	16100.55
603.94	15768.19
604.09	16191.83
604.25	16037.35
604.40	15810.32
604.56	15646.48
604.71	15833.72
604.87	15990.54
605.03	16098.20
605.18	15412.43
605.34	15386.68
605.49	15344.55
605.65	15243.91
605.80	15084.75
605.96	14738.35
606.12	14764.10
606.27	14743.03
606.43	15119.86
606.58	14986.45
606.74	15061.35
606.89	15501.37
607.05	15047.30
607.20	15140.93
607.36	15541.16
607.51	15344.55
607.67	14661.12
607.82	14810.91
607.98	14796.87
608.13	14640.05
608.29	14920.92
608.44	14974.75
608.60	14595.58
608.75	14787.50
608.91	14558.13
609.06	14413.02
609.22	14466.85
609.37	14820.27
609.53	14895.17
609.68	14408.34
609.84	14218.75
609.99	14415.36
610.15	13294.24
610.30	13916.83
610.46	13991.72
610.61	14001.08
610.76	14829.63
610.92	15040.28
611.07	15201.78
611.23	14897.51
611.38	14745.38
611.54	13839.59
611.69	13717.88
611.84	13465.10
612.00	13284.88
612.15	13451.06
612.31	14169.60
612.46	14171.94
612.62	14307.69
612.77	14204.71
612.92	14017.47
613.08	13818.52
613.23	13429.99
613.39	13280.20
613.54	13291.90
613.69	12989.97
613.85	13305.95
614.00	13121.04
614.15	12957.21
614.31	13312.97
614.46	13343.39
614.62	13607.87
614.77	13427.65
614.92	13521.27
615.08	13673.41
615.23	13413.61
615.38	13301.26
615.54	12929.12
615.69	12273.77
615.84	12149.72
616.00	12582.72
616.15	12662.30
616.30	12814.43
616.46	12308.88
616.61	12526.55
616.76	12772.30
616.92	12657.62
617.07	13282.54
617.22	13158.49
617.37	13139.77
617.53	12931.46
617.68	12978.27
617.83	13109.34
617.99	12828.48
618.14	13074.23
618.29	12999.34
618.45	12582.72
618.60	12093.55
618.75	12418.88
618.90	12358.03
619.06	12659.96
619.21	13006.36
619.36	12482.08
619.51	12751.24
619.67	12884.65
619.82	12645.91
619.97	12606.13
620.12	12772.30
620.28	12575.70
620.43	12641.23
620.58	12718.47
620.73	12809.75
620.89	12989.97
621.04	13107.00
621.19	12229.30
621.34	12446.97
621.49	12006.95
621.65	12285.47
621.80	11826.73
621.95	12245.68
622.10	12463.35
622.25	11873.54
622.41	11845.45
622.56	11751.83
622.71	11934.39
622.86	12325.26
623.01	12369.73
623.16	12147.38
623.32	12280.79
623.47	11910.99
623.62	11910.99
623.77	11800.98
623.92	11892.26
624.07	11375.00
624.23	11419.47
624.38	11534.16
624.53	11831.41
624.68	11398.41
624.83	11346.92
624.98	11019.24
625.13	11356.28
625.29	11197.12
625.44	11187.76
625.59	11339.90
625.74	11847.79
625.89	11499.05
626.04	11028.60
626.19	11208.83
626.34	10899.87
626.49	11028.60
626.65	11000.52
626.80	11122.23
626.95	11241.59
627.10	11131.59
627.25	10817.96
627.40	10349.85
627.55	10375.59
627.70	10221.12
627.85	10270.27
628.00	10424.75
628.15	10630.71
628.30	10782.85
628.45	10464.54
628.60	10586.24
628.76	10738.38
628.91	10427.09
629.06	10518.37
629.21	10326.44
629.36	10356.87
629.51	10518.37
629.66	10710.29
629.81	10537.09
629.96	10630.71
630.11	10429.43
630.26	10181.33
630.41	10356.87
630.56	10246.87
630.71	10071.33
630.86	10181.33
631.01	10066.64
631.16	9958.98
631.31	9549.39
631.46	9703.86
631.61	10115.80
631.76	10513.69
631.91	10394.32
632.06	10314.74
632.21	10799.23
632.36	11143.29
632.51	10771.15
632.66	10897.53
632.81	10298.36
632.96	10387.30
633.10	10286.65
633.25	10277.29
633.40	10298.36
633.55	10183.67
633.70	9710.88
633.85	9928.55
634.00	9898.13
634.15	9778.76
634.30	9392.57
634.45	9565.77
634.60	10127.50
634.75	10181.33
634.90	10296.02
635.05	10094.73
635.19	9980.04
635.34	10099.41
635.49	10122.82
635.64	9912.17
635.79	9603.22
635.94	9413.63
636.09	9603.22
636.24	9818.55
636.39	9406.61
636.53	9776.42
636.68	9954.30
636.83	10230.48
636.98	9975.36
637.13	10113.45
637.28	9891.10
637.43	9914.51
637.57	10031.54
637.72	9898.13
637.87	9462.79
638.02	9324.69
638.17	10026.86
638.32	10057.28
638.46	8994.68
638.61	9408.95
638.76	9043.83
638.91	8990.00
639.06	9820.89
639.20	9806.84
639.35	9645.35
639.50	9509.60
639.65	9593.86
639.80	9511.94
639.94	9254.48
640.09	9104.68
640.24	9282.56
640.39	9451.08
640.54	9652.37
640.68	9151.49
640.83	9343.42
640.98	9329.38
641.13	9025.11
641.27	9032.13
641.42	8882.33
641.57	8681.05
641.72	8851.91
641.86	9259.16
642.01	9186.60
642.16	9486.19
642.31	9458.10
642.45	9549.39
642.60	9453.42
642.75	9451.08
642.90	9125.75
643.04	9397.25
643.19	9207.67
643.34	9057.87
643.48	8615.51
643.63	8439.97
643.78	8571.04
643.93	8856.59
644.07	8690.41
644.22	9207.67
644.37	9057.87
644.51	8940.85
644.66	8564.02
644.81	8606.15
644.95	8889.35
645.10	8819.14
645.25	8624.87
645.39	8643.60
645.54	8463.38
645.69	8248.05
645.83	8404.86
645.98	8264.43
646.13	8414.23
646.27	8610.83
646.42	8524.23
646.57	8533.59
646.71	8720.84
646.86	8641.26
647.00	8208.26
647.15	8107.62
647.30	8327.63
647.44	8690.41
647.59	8308.90
647.74	8011.65
647.88	8039.74
648.03	8058.46
648.17	8058.46
648.32	8245.71
648.47	8374.44
648.61	7819.73
648.76	7698.02
648.90	7449.93
649.05	7145.66
649.20	7262.68
649.34	7524.82
649.49	7218.21
649.63	7487.37
649.78	7784.62
649.92	7939.10
650.07	8236.35
650.21	8088.89
650.36	8201.24
650.51	7927.39
650.65	8072.51
650.80	7948.46
650.94	7988.25
651.09	7616.10
651.23	7840.79
651.38	7971.86
651.52	8042.08
651.67	7871.22
651.81	8116.98
651.96	8194.22
652.10	7939.10
652.25	7691.00
652.39	7723.77
652.54	7882.92
652.68	7815.05
652.83	7829.09
652.97	8091.23
653.12	8074.85
653.26	7948.46
653.41	7843.14
653.55	7578.65
653.70	7819.73
653.84	7840.79
653.99	7829.09
654.13	8021.02
654.27	7613.76
654.42	7328.22
654.56	7157.36
654.71	7126.93
654.85	7304.81
655.00	7485.03
655.14	7267.36
655.29	7045.01
655.43	7000.54
655.57	6738.40
655.72	6064.33
655.86	5554.09
656.01	5624.31
656.15	5631.33
656.30	6487.96
656.44	6480.94
656.58	6597.97
656.73	6920.96
656.87	6965.43
657.01	6864.79
657.16	6766.49
657.30	6846.07
657.45	7101.19
657.59	7185.44
657.73	7239.28
657.88	7304.81
658.02	7318.86
658.16	7222.89
658.31	7316.51
658.45	7597.38
658.60	7239.28
658.74	7461.63
658.88	7339.92
659.03	7297.79
659.17	7150.34
659.31	7166.72
659.46	7164.38
659.60	7080.12
659.74	7059.06
659.89	7260.34
660.03	7356.30
660.17	7164.38
660.32	7091.82
660.46	7073.10
660.60	6843.73
660.74	6766.49
660.89	7040.33
661.03	6965.43
661.17	6832.02
661.32	6920.96
661.46	7023.95
661.60	7169.06
661.74	7405.46
661.89	7040.33
662.03	6815.64
662.17	6916.28
662.31	7045.01
662.46	7297.79
662.60	6986.50
662.74	6799.26
662.88	6670.53
663.03	6736.06
663.17	6792.23
663.31	6759.47
663.45	6471.58
663.60	6562.86
663.74	6705.63
663.88	6525.41
664.02	6382.64
664.17	6399.02
664.31	6452.86
664.45	6523.07
664.59	6548.82
664.73	6380.30
664.88	6169.65
665.02	6420.09
665.16	6251.57
665.30	6473.92
665.44	6509.03
665.59	6724.36
665.73	6787.55
665.87	6637.76
666.01	6738.40
666.15	6581.59
666.29	6274.98
666.44	6363.92
666.58	6319.45
666.72	6527.75
666.86	6408.39
667.00	6354.55
667.14	6267.95
667.28	6076.03
667.43	6221.14
667.57	6160.29
667.71	6106.46
667.85	6239.87
667.99	6207.10
668.13	6492.65
668.27	6085.39
668.41	6008.16
668.56	6209.44
668.70	6181.35
668.84	5912.19
668.98	5940.28
669.12	5954.32
669.26	5877.09
669.40	5928.58
669.54	5596.22
669.68	5554.09
669.82	5636.01
669.96	5614.95
670.10	5680.48
670.25	5647.71
670.39	5778.78
670.53	5610.26
670.67	5633.67
670.81	5785.80
670.95	5975.39
671.09	5902.83
671.23	5682.82
671.37	5497.92
671.51	5453.45
671.65	5722.61
671.79	5713.25
671.93	5727.29
672.07	5738.99
672.21	5603.24
672.35	5509.62
672.49	5776.44
672.63	5830.27
672.77	5638.35
672.91	5715.59
673.05	5462.81
673.19	5430.04
673.33	5298.97
673.47	5481.53
673.61	5479.19
673.75	5193.65
673.89	5334.08
674.03	5291.95
674.17	5416.00
674.31	5558.77
674.45	5451.11
674.59	5394.93
674.73	5348.12
674.87	5263.86
675.01	5282.59
675.15	5313.02
675.29	5380.89
675.43	5043.85
675.56	5139.82
675.70	5249.82
675.84	5036.83
675.98	4924.49
676.12	5191.31
676.26	4987.68
676.40	5006.41
676.54	5282.59
676.68	4947.89
676.82	4723.20
676.96	4835.55
677.10	5064.92
677.23	4919.81
677.37	4964.28
677.51	5151.52
677.65	5130.45
677.79	4798.10
677.93	5097.69
678.07	5186.63
678.21	4968.96
678.34	5034.49
678.48	4924.49
678.62	5015.77
678.76	4990.02
678.90	4903.42
679.04	4751.29
679.18	4936.19
679.31	4819.16
679.45	4812.14
679.59	4720.86
679.73	4662.35
679.87	4393.19
680.00	4512.55
680.14	4386.16
680.28	4592.13
680.42	4451.70
680.56	4175.52
680.70	4318.29
680.83	4273.82
680.97	4390.84
681.11	4234.03
681.25	4156.79
681.39	4259.78
681.52	4086.58
681.66	4278.50
681.80	4180.20
681.94	4095.94
682.07	4308.93
682.21	4318.29
682.35	4348.72
682.49	4170.83
682.62	4166.15
682.76	4332.33
682.90	4145.09
683.04	4093.60
683.17	4046.79
683.31	4037.42
683.45	4046.79
683.59	4028.06
683.72	4100.62
683.86	3915.72
684.00	3850.18
684.13	3936.78
684.27	3847.84
684.41	3843.16
684.55	4030.40
684.68	3943.80
684.82	3892.31
684.96	3684.00
685.09	3688.68
685.23	3719.11
685.37	3669.96
685.50	3655.92
685.64	3786.99
685.78	3772.94
685.91	3494.42
686.05	3475.70
686.19	3403.14
686.32	3375.05
686.46	2818.00
686.60	2506.71
686.73	2382.67
686.87	2214.15
687.01	2174.36
687.14	2331.17
687.28	2352.24
687.42	2459.90
687.55	2773.53
687.69	2808.64
687.82	3028.65
687.96	3028.65
688.10	2909.29
688.23	2991.20
688.37	2935.03
688.50	2897.58
688.64	2738.43
688.78	2576.93
688.91	2590.97
689.05	2761.83
689.18	2663.53
689.32	2775.88
689.46	2839.07
689.59	2541.82
689.73	2579.27
689.86	2595.65
690.00	2668.21
690.13	2787.58
690.27	2843.75
690.41	2832.05
690.54	2860.13
690.68	2729.06
690.81	2656.51
690.95	2808.64
691.08	2733.75
691.22	2916.31
691.35	2928.01
691.49	2946.73
691.62	2796.94
691.76	2729.06
691.89	2729.06
692.03	2925.67
692.16	2808.64
692.30	2846.09
692.43	2764.17
692.57	2677.57
692.70	2736.09
692.84	2677.57
692.97	2597.99
693.11	2590.97
693.24	2600.34
693.38	2499.69
693.51	2579.27
693.65	2321.81
693.78	2270.32
693.92	2490.33
694.05	2478.63
694.19	2455.22
694.32	2448.20
694.45	2607.36
694.59	2452.88
694.72	2665.87
694.86	2700.98
694.99	2619.06
695.13	2597.99
695.26	2642.46
695.39	2471.61
695.53	2429.48
695.66	2417.77
695.80	2450.54
695.93	2429.48
696.07	2410.75
696.20	2415.43
696.33	2324.15
696.47	2406.07
696.60	2534.80
696.73	2452.88
696.87	2415.43
697.00	2520.76
697.14	2490.33
697.27	2359.26
697.40	2265.64
697.54	2157.97
697.67	2181.38
697.80	2333.51
697.94	2209.47
698.07	2197.76
698.21	2127.55
698.34	2167.34
698.47	2214.15
698.61	2101.80
698.74	2202.44
698.87	2221.17
699.01	2211.81
699.14	2083.08
699.27	2157.97
699.40	2101.80
699.54	2090.10
699.67	2071.37
699.80	2115.84
699.94	2017.54
700.07	1954.35
700.20	2078.40
700.34	1912.22
700.47	1942.64
700.60	1954.35
700.73	1959.03
700.87	1940.30
701.00	1874.77
701.13	1872.43
701.26	1820.94
701.40	1849.02
701.53	1832.64
701.66	1954.35
701.79	1818.60
701.93	1708.59
702.06	1790.51
702.19	1792.85
702.32	1825.62
702.46	1863.07
702.59	1720.29
702.72	1671.14
702.85	1764.76
702.99	1811.57
703.12	1921.58
703.25	1734.34
703.38	1804.55
703.51	1727.32
703.65	1650.08
703.78	1753.06
703.91	1783.49
704.04	1694.55
704.17	1811.57
704.31	1682.85
704.44	1668.80
704.57	1713.27
704.70	1661.78
704.83	1661.78
704.96	1713.27
705.10	1624.33
705.23	1598.59
>>>>>End Processed Spectral Data<<<<<
