SpectraSuite Data File
++++++++++++++++++++++++++++++++++++
Date: Mon Oct 07 14:54:59 GMT-05:00 2013
User: price-jones
Dark Spectrum Present: No
Reference Spectrum Present: No
Number of Sampled Component Spectra: 1
Spectrometers: USB2+H05261
Integration Time (usec): 10000 (USB2+H05261)
Spectra Averaged: 1 (USB2+H05261)
Boxcar Smoothing: 0 (USB2+H05261)
Correct for Electrical Dark: No (USB2+H05261)
Strobe/Lamp Enabled: No (USB2+H05261)
Correct for Detector Non-linearity: No (USB2+H05261)
Correct for Stray Light: No (USB2+H05261)
Number of Pixels in Processed Spectrum: 2048
>>>>>Begin Processed Spectral Data<<<<<
365.73	0.00
365.92	0.00
366.12	0.00
366.32	0.00
366.52	0.00
366.72	0.00
366.91	0.00
367.11	0.00
367.31	0.00
367.51	0.00
367.70	0.00
367.90	0.00
368.10	0.00
368.30	0.00
368.49	0.00
368.69	0.00
368.89	0.00
369.09	0.00
369.28	0.00
369.48	0.00
369.68	0.00
369.87	0.00
370.07	0.00
370.27	0.00
370.47	140.43
370.66	1343.47
370.86	1631.35
371.06	1776.47
371.25	1692.21
371.45	1645.40
371.65	1392.62
371.84	1355.17
372.04	1528.37
372.24	1582.20
372.44	1671.14
372.63	1523.69
372.83	1448.79
373.03	1348.15
373.22	1240.48
373.42	1334.11
373.62	1533.05
373.81	1666.46
374.01	1629.01
374.21	1497.94
374.40	1336.45
374.60	1502.62
374.79	1612.63
374.99	1891.15
375.19	2083.08
375.38	1987.11
375.58	1973.07
375.78	1851.36
375.97	1968.39
376.17	1989.46
376.37	2026.90
376.56	2073.71
376.76	2146.27
376.95	2380.32
377.15	2541.82
377.35	2539.48
377.54	2736.09
377.74	2916.31
377.93	2722.04
378.13	2586.29
378.33	2633.10
378.52	2354.58
378.72	2232.87
378.91	2225.85
379.11	2111.16
379.31	2115.84
379.50	2146.27
379.70	2396.71
379.89	2614.38
380.09	2810.98
380.28	2803.96
380.48	2733.75
380.68	2743.11
380.87	2495.01
381.07	2408.41
381.26	2115.84
381.46	2073.71
381.65	1994.14
381.85	1879.45
382.04	1827.96
382.24	1657.10
382.43	1650.08
382.63	1619.65
382.83	1516.67
383.02	1619.65
383.22	1572.84
383.41	1565.82
383.61	1844.34
383.80	2066.69
384.00	2342.88
384.19	2698.64
384.39	2787.58
384.58	2773.53
384.78	2747.79
384.97	2605.02
385.17	2431.82
385.36	2349.90
385.56	2361.60
385.75	2394.37
385.95	2696.30
386.14	2925.67
386.34	2651.83
386.53	2572.25
386.72	2558.21
386.92	2665.87
387.11	2832.05
387.31	2768.85
387.50	2780.56
387.70	2841.41
387.89	2750.13
388.09	2799.28
388.28	2754.81
388.48	2787.58
388.67	3005.25
388.86	3384.41
389.06	3531.87
389.25	3651.24
389.45	3641.87
389.64	3660.60
389.84	3611.45
390.03	3543.57
390.22	3676.98
390.42	3873.59
390.61	4079.55
390.81	4287.86
391.00	4402.55
391.19	4250.41
391.39	4219.99
391.58	3901.67
391.78	3688.68
391.97	3529.53
392.16	3180.79
392.36	2913.97
392.55	2256.28
392.75	1703.91
392.94	1495.60
393.13	1659.44
393.33	1996.48
393.52	2452.88
393.71	3105.89
393.91	3339.94
394.10	3770.60
394.29	4028.06
394.49	4432.97
394.68	4758.31
394.88	4620.22
395.07	4753.63
395.26	4662.35
395.46	4531.28
395.65	4145.09
395.84	3529.53
396.04	3014.61
396.23	2368.62
396.42	1947.33
396.62	2106.48
396.81	2537.14
397.00	3346.97
397.19	4163.81
397.39	4882.36
397.58	5266.21
397.77	5483.88
397.97	5888.79
398.16	5809.21
398.35	6078.37
398.55	6300.72
398.74	6429.45
398.93	6640.10
399.12	6604.99
399.32	6155.61
399.51	6569.88
399.70	6867.13
399.90	6750.10
400.09	6792.23
400.28	6705.63
400.47	6942.03
400.67	7281.41
400.86	7124.59
401.05	7487.37
401.24	7260.34
401.44	7389.07
401.63	7536.52
401.82	7517.80
402.01	7566.95
402.21	7573.97
402.40	7302.47
402.59	7304.81
402.78	7159.70
402.97	7014.59
403.17	7162.04
403.36	7632.49
403.55	7730.79
403.74	7918.03
403.93	7566.95
404.13	6979.48
404.32	6991.18
404.51	7641.85
404.70	7676.96
404.89	7639.51
405.09	7527.16
405.28	7267.36
405.47	7698.02
405.66	7370.35
405.85	7269.70
406.05	7035.65
406.24	7171.40
406.43	7599.72
406.62	7566.95
406.81	7857.18
407.00	7445.24
407.20	7316.51
407.39	7403.11
407.58	7896.97
407.77	8229.32
407.96	8465.72
408.15	8381.46
408.34	8369.76
408.54	8688.07
408.73	8861.27
408.92	8725.52
409.11	8514.87
409.30	8124.00
409.49	7571.63
409.68	7155.02
409.87	7089.48
410.07	7585.68
410.26	8065.49
410.45	8252.73
410.64	8723.18
410.83	9132.77
411.02	9352.78
411.21	9455.76
411.40	8990.00
411.59	9090.64
411.78	9408.95
411.98	9327.03
412.17	9385.55
412.36	9123.41
412.55	9280.22
412.74	8821.48
412.93	8861.27
413.12	9004.04
413.31	10094.73
413.50	9856.00
413.69	9877.06
413.88	9507.26
414.07	9270.86
414.26	9736.63
414.45	10005.79
414.64	9926.21
414.83	9848.97
415.02	9846.63
415.22	9640.67
415.41	9785.78
415.60	10289.00
415.79	10600.29
415.98	10789.87
416.17	10794.55
416.36	10551.14
416.55	10345.17
416.74	9867.70
416.93	9713.22
417.12	9958.98
417.31	10186.01
417.50	10092.39
417.69	10602.63
417.88	10396.66
418.07	10497.30
418.26	10181.33
418.45	10546.45
418.64	10860.09
418.83	11328.19
419.02	10855.40
419.21	10485.60
419.39	10260.91
419.58	9837.27
419.77	10094.73
419.96	10539.43
420.15	11281.38
420.34	11229.89
420.53	11712.04
420.72	11744.81
420.91	11592.67
421.10	11407.77
421.29	11597.35
421.48	11171.38
421.67	11761.19
421.86	11080.10
422.05	10354.53
422.24	9458.10
422.43	9638.33
422.61	10874.13
422.80	11166.70
422.99	10946.69
423.18	10691.57
423.37	10523.05
423.56	10761.78
423.75	11089.46
423.94	11061.37
424.13	10420.06
424.32	10593.26
424.50	10595.61
424.69	10611.99
424.88	10621.35
425.07	10450.49
425.26	10354.53
425.45	10176.65
425.64	9933.23
425.83	10490.28
426.01	10640.08
426.20	11066.05
426.39	11159.67
426.58	9760.03
426.77	9355.12
426.96	9301.29
427.15	9657.05
427.33	10370.91
427.52	10633.05
427.71	10492.62
427.90	10616.67
428.09	10080.69
428.28	10031.54
428.46	9750.67
428.65	9783.44
428.84	10204.74
429.03	9966.00
429.22	9408.95
429.40	9022.77
429.59	8191.88
429.78	7321.20
429.97	7470.99
430.16	7585.68
430.34	7389.07
430.53	7487.37
430.72	7927.39
430.91	9018.08
431.10	10679.86
431.28	12138.02
431.47	12819.11
431.66	12648.26
431.85	11335.21
432.03	10588.58
432.22	10672.84
432.41	10958.39
432.60	11733.11
432.79	12341.64
432.97	12596.76
433.16	12112.27
433.35	10942.00
433.54	9858.34
433.72	9458.10
433.91	10022.17
434.10	11328.19
434.28	11864.18
434.47	12299.52
434.66	11747.15
434.85	11957.80
435.03	11868.86
435.22	12025.67
435.41	12685.70
435.59	13036.78
435.78	12802.73
435.97	13490.85
436.16	13565.74
436.34	12989.97
436.53	12816.77
436.72	13327.01
436.90	12285.47
437.09	12362.71
437.28	12233.98
437.46	12664.64
437.65	12308.88
437.84	11503.73
438.02	10703.27
438.21	10874.13
438.40	11082.44
438.58	12381.43
438.77	12655.28
438.96	12692.73
439.14	13411.27
439.33	13336.37
439.52	13364.46
439.70	13270.84
439.89	12585.06
440.08	12582.72
440.26	12688.04
440.45	13212.32
440.63	14258.54
440.82	14565.15
441.01	14185.99
441.19	14342.80
441.38	14883.47
441.57	14944.32
441.75	15396.04
441.94	15419.45
442.12	15594.99
442.31	15716.70
442.50	15616.05
442.68	15166.67
442.87	15089.43
443.05	15007.52
443.24	15269.66
443.43	15758.83
443.61	15754.15
443.80	15941.39
443.98	15047.30
444.17	15098.80
444.35	15950.75
444.54	16491.41
444.73	16397.79
444.91	14988.79
445.10	14588.56
445.28	13947.25
445.47	13530.64
445.65	14235.14
445.84	14630.69
446.02	15157.31
446.21	15323.49
446.39	15091.77
446.58	15356.25
446.77	15807.98
446.95	15981.18
447.14	16430.56
447.32	16458.65
447.51	15978.84
447.69	15761.17
447.88	15531.80
448.06	15939.05
448.25	16142.67
448.43	16023.31
448.62	16063.10
448.80	15864.15
448.99	15836.06
449.17	15971.82
449.36	15723.72
449.54	16498.44
449.73	16669.30
449.91	16957.18
450.10	17462.74
450.28	17956.59
450.46	17586.79
450.65	17518.91
450.83	17228.68
451.02	16901.01
451.20	17092.93
451.39	17121.02
451.57	16950.16
451.76	16814.41
451.94	16809.73
452.13	16683.34
452.31	15208.80
452.49	14586.22
452.68	15243.91
452.86	14949.00
453.05	15480.30
453.23	16233.96
453.42	16416.52
453.60	16311.19
453.78	16835.47
453.97	16233.96
454.15	16404.81
454.34	15693.29
454.52	16322.90
454.70	16093.52
454.89	16100.55
455.07	15946.07
455.26	16542.91
455.44	17287.20
455.62	17380.82
455.81	17301.24
455.99	17717.86
456.17	17364.43
456.36	17795.09
456.54	18143.83
456.73	17708.49
456.91	18204.69
457.09	17996.38
457.28	18485.55
457.46	17827.86
457.64	17015.69
457.83	16931.44
458.01	16664.61
458.19	17135.06
458.38	17350.39
458.56	17795.09
458.74	18047.87
458.93	17511.89
459.11	17291.88
459.29	16903.35
459.48	17467.42
459.66	16954.84
459.84	17614.87
460.03	17848.93
460.21	17827.86
460.39	18743.01
460.57	18134.47
460.76	18384.91
460.94	18494.91
461.12	18274.90
461.31	18036.17
461.49	18340.44
461.67	18211.71
461.85	18913.87
462.04	18862.38
462.22	18747.69
462.40	19124.52
462.59	18792.16
462.77	18494.91
462.95	18623.64
463.13	18129.79
463.32	17949.57
463.50	18506.62
463.68	18017.44
463.86	18403.63
464.05	18017.44
464.23	17572.74
464.41	17551.68
464.59	17137.40
464.78	18471.51
464.96	18375.55
465.14	18164.90
465.32	18508.96
465.50	18939.62
465.69	19068.34
465.87	18728.97
466.05	17860.63
466.23	17125.70
466.41	16896.33
466.60	17851.27
466.78	17439.33
466.96	17769.35
467.14	18115.75
467.32	18101.70
467.51	18237.45
467.69	17198.26
467.87	17980.00
468.05	18143.83
468.23	18038.51
468.41	18265.54
468.60	17987.02
468.78	18211.71
468.96	17942.55
469.14	18462.15
469.32	18757.05
469.50	17458.06
469.69	17418.27
469.87	17315.28
470.05	17577.42
470.23	17572.74
470.41	17640.62
470.59	17755.30
470.77	17865.31
470.95	18640.03
471.14	18293.63
471.32	18494.91
471.50	19524.75
471.68	19651.14
471.86	19726.04
472.04	20056.05
472.22	19552.84
472.40	18394.27
472.58	18544.06
472.77	18787.48
472.95	18696.20
473.13	19545.81
473.31	19108.13
473.49	19257.93
473.67	19372.61
473.85	19515.39
474.03	20189.46
474.21	20470.33
474.39	20568.63
474.57	20491.39
474.75	20685.65
474.93	20208.19
475.12	19814.98
475.30	19971.79
475.48	19714.33
475.66	19847.74
475.84	20147.33
476.02	19325.80
476.20	19281.33
476.38	19995.20
476.56	20999.29
476.74	20945.45
476.92	20999.29
477.10	21001.63
477.28	22038.48
477.46	21722.51
477.64	21781.03
477.82	22324.03
478.00	22712.56
478.18	21706.13
478.36	21642.93
478.54	22225.73
478.72	22434.03
478.90	23215.77
479.08	23665.16
479.26	23192.37
479.44	23452.17
479.62	23194.71
479.80	23110.45
479.98	23325.78
480.16	23606.64
480.34	23119.81
480.52	23601.96
480.70	24411.79
480.88	23763.46
481.06	24224.54
481.24	24229.23
481.41	24601.37
481.59	25558.65
481.77	24933.73
481.95	24975.86
482.13	24933.73
482.31	25242.68
482.49	25759.94
482.67	25458.01
482.85	25280.13
483.03	26066.55
483.21	26412.95
483.39	25972.92
483.57	25053.09
483.74	24683.29
483.92	25331.62
484.10	25727.17
484.28	25905.05
484.46	26157.83
484.64	26466.78
484.82	25977.61
485.00	25731.85
485.18	25111.61
485.35	23756.44
485.53	21488.46
485.71	19805.61
485.89	19955.41
486.07	21488.46
486.25	23700.26
486.43	24835.42
486.61	24966.49
486.78	25256.72
486.96	25687.38
487.14	26630.62
487.32	26361.45
487.50	27733.01
487.68	27913.23
487.85	28889.23
488.03	28821.36
488.21	28922.00
488.39	27297.67
488.57	27028.51
488.75	27711.94
488.92	28776.89
489.10	30450.37
489.28	30780.39
489.46	32034.91
489.64	31325.73
489.81	31800.86
489.99	31166.57
490.17	31344.45
490.35	31435.74
490.53	30668.04
490.70	30347.39
490.88	30284.19
491.06	31433.39
491.24	31161.89
491.41	29764.59
491.59	28393.04
491.77	28224.52
491.95	29762.25
492.13	31028.48
492.30	31627.66
492.48	33205.18
492.66	33649.88
492.84	32545.15
493.01	32762.82
493.19	32409.40
493.37	31995.12
493.54	32655.15
493.72	33736.48
493.90	33652.22
494.08	33593.71
494.25	34972.28
494.43	34932.50
494.61	34738.23
494.79	35454.44
494.96	34691.42
495.14	33434.55
495.32	33404.13
495.49	33139.65
495.67	34520.56
495.85	36088.72
496.02	36720.66
496.20	35725.94
496.38	35400.60
496.55	35494.22
496.73	35545.72
496.91	35917.86
497.09	37193.45
497.26	36533.42
497.44	35672.10
497.62	35435.71
497.79	34576.73
497.97	33174.75
498.14	34040.75
498.32	35997.44
498.50	36023.19
498.67	35945.95
498.85	37141.96
499.03	37205.16
499.20	37427.51
499.38	37275.37
499.56	37060.04
499.73	35983.40
499.91	34836.53
500.08	34497.16
500.26	33771.59
500.44	34829.51
500.61	35416.99
500.79	35496.56
500.97	34359.06
501.14	34387.15
501.32	33748.18
501.49	34579.07
501.67	34600.14
501.84	35063.57
502.02	35498.91
502.20	35962.33
502.37	36392.99
502.55	36556.83
502.72	36608.32
502.90	37706.03
503.07	36514.70
503.25	35676.79
503.43	34705.46
503.60	34459.71
503.78	33890.96
503.95	34698.44
504.13	37024.93
504.30	37916.68
504.48	36624.70
504.65	36800.24
504.83	36355.54
505.01	37020.25
505.18	37329.20
505.36	37940.08
505.53	38263.08
505.71	39108.01
505.88	39983.37
506.06	38843.53
506.23	38352.02
506.41	37921.36
506.58	38094.56
506.76	37399.42
506.93	37514.11
507.11	37060.04
507.28	37273.03
507.46	36807.26
507.63	36102.76
507.81	35512.95
507.98	35934.24
508.16	37151.32
508.33	38054.77
508.50	38520.54
508.68	39040.14
508.85	39976.35
509.03	39098.65
509.20	38721.82
509.38	36837.69
509.55	37549.21
509.73	37462.61
509.90	37965.83
510.08	37553.90
510.25	37289.42
510.42	36772.16
510.60	38363.72
510.77	38934.81
510.95	39966.99
511.12	39180.57
511.30	40610.64
511.47	39374.83
511.64	39304.62
511.82	38845.87
511.99	37764.54
512.17	37640.50
512.34	37347.93
512.51	37724.75
512.69	36973.44
512.86	36762.79
513.04	38438.62
513.21	38492.45
513.38	36856.42
513.56	35555.08
513.73	35690.83
513.90	35639.34
514.08	35826.58
514.25	37132.60
514.43	37387.72
514.60	36999.19
514.77	37050.68
514.95	38270.10
515.12	37450.91
515.29	37270.69
515.47	38052.43
515.64	38639.90
515.81	38855.23
515.99	37113.87
516.16	34719.51
516.33	32006.83
516.51	31491.91
516.68	30132.06
516.85	29937.79
517.03	31220.41
517.20	33890.96
517.37	37092.81
517.54	37371.33
517.72	35440.39
517.89	33111.56
518.06	32147.26
518.24	32446.85
518.41	34333.32
518.58	36381.29
518.75	36811.95
518.93	35868.71
519.10	36350.86
519.27	36311.07
519.45	37453.25
519.62	37647.52
519.79	38188.18
519.96	38122.65
520.14	37263.67
520.31	35913.18
520.48	36449.16
520.65	37048.34
520.83	38565.01
521.00	38616.50
521.17	37851.14
521.34	38588.41
521.52	38237.33
521.69	38340.32
521.86	38403.51
522.03	38323.93
522.20	36795.56
522.38	35852.33
522.55	37048.34
522.72	36964.08
522.89	36463.21
523.07	37277.71
523.24	37188.77
523.41	38541.60
523.58	38810.76
523.75	39056.52
523.92	39711.87
524.10	39536.33
524.27	39070.56
524.44	39344.41
524.61	38398.83
524.78	38232.65
524.96	37844.12
525.13	37439.21
525.30	38464.36
525.47	39042.48
525.64	39613.57
525.81	37762.20
525.98	35522.31
526.16	35016.75
526.33	33036.66
526.50	32737.07
526.67	32084.06
526.84	33610.09
527.01	35232.08
527.18	36617.68
527.36	37874.55
527.53	37401.76
527.70	37542.19
527.87	37088.13
528.04	37610.07
528.21	38115.62
528.38	39250.78
528.55	40273.60
528.72	40624.68
528.89	40947.67
529.07	40055.93
529.24	37617.09
529.41	37626.45
529.58	37670.92
529.75	37888.59
529.92	39215.68
530.09	39477.82
530.26	39622.93
530.43	39966.99
530.60	39927.20
530.77	39819.53
530.94	39770.38
531.11	38930.13
531.28	38370.74
531.46	38660.97
531.63	37937.74
531.80	38251.38
531.97	36573.21
532.14	35761.05
532.31	34368.43
532.48	35931.90
532.65	35133.78
532.82	35889.77
532.99	38675.01
533.16	38724.16
533.33	38054.77
533.50	36526.40
533.67	37137.28
533.84	37574.96
534.01	37694.33
534.18	37305.80
534.35	38611.82
534.52	36776.84
534.69	39016.73
534.86	38735.87
535.03	38230.31
535.20	39112.69
535.37	39971.67
535.54	40484.25
535.71	39597.18
535.88	38569.69
536.05	37785.61
536.22	37874.55
536.38	37277.71
536.55	35426.35
536.72	35330.39
536.89	35896.80
537.06	36388.31
537.23	38967.58
537.40	38380.10
537.57	38862.26
537.74	38429.26
537.91	38920.77
538.08	37422.83
538.25	37331.54
538.42	38019.66
538.59	38136.69
538.75	36673.85
538.92	36196.38
539.09	36851.73
539.26	36477.25
539.43	36467.89
539.60	36278.30
539.77	37198.13
539.94	36280.64
540.11	35108.04
540.28	34328.64
540.44	34352.04
540.61	35447.41
540.78	36802.58
540.95	37734.12
541.12	36924.29
541.29	36910.25
541.46	37619.43
541.62	37345.59
541.79	38345.00
541.96	37303.46
542.13	35887.43
542.30	35709.55
542.47	35866.37
542.63	35974.03
542.80	35599.55
542.97	36882.16
543.14	35849.99
543.31	36622.36
543.48	36488.95
543.64	37390.06
543.81	38022.00
543.98	38040.73
544.15	37258.99
544.32	35945.95
544.48	36898.55
544.65	37776.25
544.82	37890.93
544.99	36725.35
545.16	36254.90
545.32	36631.72
545.49	37837.10
545.66	36823.65
545.83	35831.26
546.00	36287.67
546.16	36650.45
546.33	36495.97
546.50	35983.40
546.67	37902.64
546.83	36374.27
547.00	36278.30
547.17	35627.63
547.34	34792.06
547.50	35552.74
547.67	36226.81
547.84	35849.99
548.00	36807.26
548.17	36376.61
548.34	36121.49
548.51	36400.01
548.67	37020.25
548.84	37326.86
549.01	37581.98
549.18	36362.56
549.34	36737.05
549.51	36453.84
549.68	36959.40
549.84	36549.81
550.01	35763.39
550.18	36362.56
550.34	35622.95
550.51	35569.12
550.68	36126.17
550.84	35529.33
551.01	35667.42
551.18	36259.58
551.34	36587.25
551.51	35604.23
551.68	36271.28
551.84	37289.42
552.01	37090.47
552.18	36449.16
552.34	35711.89
552.51	35545.72
552.68	35892.12
552.84	36322.77
553.01	35749.34
553.18	35023.78
553.34	35482.52
553.51	36657.47
553.67	35906.16
553.84	35578.48
554.01	35545.72
554.17	35756.36
554.34	36086.38
554.51	35669.76
554.67	35508.27
554.84	36264.26
555.00	36074.68
555.17	35768.07
555.33	35086.97
555.50	35803.17
555.67	34735.89
555.83	33902.66
556.00	33268.37
556.16	34300.55
556.33	33481.36
556.50	34602.48
556.66	34986.33
556.83	35016.75
556.99	34352.04
557.16	34382.47
557.32	34813.13
557.49	35232.08
557.65	34780.36
557.82	35262.51
557.98	34930.16
558.15	34321.62
558.32	34183.52
558.48	32634.09
558.65	33022.62
558.81	31534.04
558.98	32224.50
559.14	33762.23
559.31	34146.08
559.47	32858.78
559.64	32201.09
559.80	31718.94
559.97	32575.58
560.13	33883.94
560.30	33947.13
560.46	35229.74
560.63	35803.17
560.79	36137.87
560.96	34330.98
561.12	32797.93
561.29	32638.77
561.45	31765.75
561.61	32201.09
561.78	32786.22
561.94	33336.25
562.11	33216.88
562.27	34146.08
562.44	34204.59
562.60	34295.87
562.77	34368.43
562.93	33818.40
563.10	32854.10
563.26	33205.18
563.42	33134.96
563.59	32055.98
563.75	32547.49
563.92	32467.91
564.08	33125.60
564.24	32739.41
564.41	32212.79
564.57	34139.05
564.74	32828.35
564.90	32528.77
565.07	32411.74
565.23	31087.00
565.39	31267.22
565.56	31608.93
565.72	31178.28
565.88	31054.23
566.05	31592.55
566.21	32318.12
566.38	31365.52
566.54	32084.06
566.70	32580.26
566.87	33179.43
567.03	32329.82
567.19	31772.77
567.36	32596.64
567.52	31988.10
567.68	32421.10
567.85	31091.68
568.01	30307.60
568.17	30110.99
568.34	31644.04
568.50	31632.34
568.66	32385.99
568.83	32173.00
568.99	31674.47
569.15	32053.64
569.32	32105.13
569.48	31428.71
569.64	30778.04
569.81	31103.38
569.97	30740.60
570.13	31342.11
570.30	31145.51
570.46	30251.42
570.62	29663.95
570.78	29598.41
570.95	30216.32
571.11	30859.96
571.27	31611.28
571.43	31569.15
571.60	30960.61
571.76	31318.71
571.92	31407.65
572.09	31438.08
572.25	31850.01
572.41	32994.53
572.57	32912.61
572.74	32821.33
572.90	31908.52
573.06	31784.48
573.22	30639.95
573.38	30328.66
573.55	30567.40
573.71	29860.55
573.87	30206.95
574.03	30897.41
574.20	31119.76
574.36	30913.80
574.52	32039.59
574.68	30263.13
574.84	29282.44
575.01	29312.87
575.17	29469.69
575.33	30115.67
575.49	29551.60
575.65	29851.19
575.82	30101.63
575.98	29502.45
576.14	29535.22
576.30	29476.71
576.46	29584.37
576.62	30359.09
576.79	30635.27
576.95	29813.74
577.11	28730.08
577.27	29549.26
577.43	29862.90
577.59	29457.98
577.75	29675.65
577.92	28620.07
578.08	28489.00
578.24	28945.41
578.40	28481.98
578.56	28737.10
578.72	29207.55
578.88	29081.16
579.04	29167.76
579.21	29067.11
579.37	29434.58
579.53	30469.09
579.69	30932.52
579.85	29823.11
580.01	28680.92
580.17	28926.68
580.33	29624.16
580.49	29539.90
580.65	28627.09
580.82	28889.23
580.98	28929.02
581.14	30054.82
581.30	28943.06
581.46	29226.27
581.62	29277.76
581.78	29249.67
581.94	29476.71
582.10	29542.24
582.26	29563.31
582.42	29600.76
582.58	29261.38
582.74	29582.03
582.90	29603.10
583.06	29624.16
583.22	29673.31
583.38	29942.47
583.54	29310.53
583.70	29467.34
583.86	29214.57
584.02	29542.24
584.18	29586.71
584.34	30085.25
584.50	28980.51
584.66	28531.13
584.82	28919.66
584.98	28840.08
585.14	28233.88
585.30	28002.17
585.46	27740.03
585.62	27510.66
585.78	27854.72
585.94	28191.75
586.10	27433.42
586.26	27850.03
586.42	27957.70
586.58	28037.28
586.74	28709.01
586.90	28512.41
587.06	28545.17
587.22	28549.85
587.38	27924.93
587.54	27618.32
587.70	26859.99
587.86	26396.56
588.02	26422.31
588.18	26331.03
588.34	24858.83
588.49	24053.69
588.65	23185.35
588.81	23840.70
588.97	23073.00
589.13	23716.65
589.29	23278.97
589.45	23789.20
589.61	24198.80
589.77	25401.83
589.93	25722.49
590.08	25443.96
590.24	26546.36
590.40	25455.67
590.56	25486.09
590.72	25977.61
590.88	25390.13
591.04	25589.08
591.20	25516.52
591.35	25139.69
591.51	25738.87
591.67	26651.68
591.83	25694.40
591.99	25607.80
592.15	26293.58
592.31	26176.55
592.46	25034.37
592.62	25888.67
592.78	26508.91
592.94	26293.58
593.10	25893.35
593.26	26686.79
593.41	25277.79
593.57	25429.92
593.73	25254.38
593.89	25687.38
594.05	25619.50
594.20	25343.32
594.36	25322.26
594.52	24318.17
594.68	24800.32
594.84	24753.51
594.99	25436.94
595.15	24170.71
595.31	24732.44
595.47	25591.42
595.62	25415.88
595.78	25254.38
595.94	26005.69
596.10	24208.16
596.25	24563.92
596.41	25333.96
596.57	25336.30
596.73	25167.78
596.88	25820.79
597.04	24819.04
597.20	24123.90
597.36	24484.34
597.51	24922.02
597.67	24919.68
597.83	24781.59
597.99	24671.59
598.14	24102.84
598.30	23894.53
598.46	23761.12
598.61	24680.95
598.77	24348.59
598.93	24194.12
599.09	24016.24
599.24	25448.64
599.40	24407.11
599.56	25120.97
599.71	24575.62
599.87	24348.59
600.03	23854.74
600.18	23873.46
600.34	23620.69
600.50	23871.12
600.65	24032.62
600.81	24173.05
600.97	24056.03
601.12	23459.19
601.28	23084.70
601.44	23681.54
601.59	24084.11
601.75	23583.24
601.91	23370.25
602.06	24222.20
602.22	24215.18
602.37	23957.72
602.53	24222.20
602.69	24793.29
602.84	24762.87
603.00	24540.52
603.16	25394.81
603.31	24760.53
603.47	23726.01
603.62	24170.71
603.78	24170.71
603.94	23454.51
604.09	23742.39
604.25	24613.07
604.40	23828.99
604.56	24142.63
604.71	25755.26
604.87	25294.17
605.03	24732.44
605.18	24332.21
605.34	24353.27
605.49	23550.47
605.65	24034.96
605.80	23751.76
605.96	23718.99
606.12	23580.90
606.27	24233.91
606.43	23548.13
606.58	23103.43
606.74	23761.12
606.89	24056.03
607.05	23765.80
607.20	22850.65
607.36	23278.97
607.51	23115.13
607.67	23316.42
607.82	23496.64
607.98	23136.20
608.13	22750.01
608.29	23108.11
608.44	23288.33
608.60	23349.18
608.75	22494.89
608.91	22492.55
609.06	23236.84
609.22	23590.26
609.37	23522.38
609.53	23297.69
609.68	22284.24
609.84	21357.39
609.99	22422.33
610.15	21425.26
610.30	22408.29
610.46	22649.36
610.61	22466.80
610.76	22696.17
610.92	21668.68
611.07	22937.25
611.23	22927.89
611.38	23222.80
611.54	23276.63
611.69	22464.46
611.84	22398.93
612.00	21394.84
612.15	22146.15
612.31	21996.35
612.46	22171.89
612.62	22197.64
612.77	22654.05
612.92	22490.21
613.08	22001.04
613.23	21074.18
613.39	20751.19
613.54	20788.64
613.69	21624.21
613.85	22204.66
614.00	21895.71
614.15	21537.61
614.31	22045.51
614.46	22525.32
614.62	21172.49
614.77	20870.56
614.92	21074.18
615.08	21736.56
615.23	20783.96
615.38	21015.67
615.54	20943.11
615.69	20170.74
615.84	19557.52
616.00	19953.07
616.15	20271.38
616.30	20013.92
616.46	19845.40
616.61	20390.75
616.76	20657.57
616.92	20748.85
617.07	21081.21
617.22	20870.56
617.37	21008.65
617.53	21032.05
617.68	20563.95
617.83	20929.07
617.99	21053.12
618.14	20973.54
618.29	20669.27
618.45	20460.96
618.60	20559.27
618.75	19822.00
618.90	20407.13
619.06	20610.76
619.21	20400.11
619.36	20493.73
619.51	19726.04
619.67	20128.61
619.82	20879.92
619.97	21521.23
620.12	21837.20
620.28	21142.06
620.43	21741.24
620.58	20348.62
620.73	21050.78
620.89	20318.19
621.04	19590.28
621.19	18918.55
621.34	19164.31
621.49	19477.94
621.65	20189.46
621.80	20332.23
621.95	20229.25
622.10	19662.84
622.25	18972.38
622.41	19201.76
622.56	18768.76
622.71	18658.75
622.86	18633.00
623.01	18342.78
623.16	18635.35
623.32	19028.56
623.47	19234.52
623.62	19653.48
623.77	19534.11
623.92	18925.57
624.07	18757.05
624.23	18855.36
624.38	18670.45
624.53	18066.60
624.68	17781.05
624.83	18071.28
624.98	18031.49
625.13	17912.12
625.29	18712.58
625.44	18721.95
625.59	18735.99
625.74	18328.74
625.89	18902.17
626.04	19131.54
626.19	18862.38
626.34	18387.25
626.49	17720.20
626.65	17584.44
626.80	18272.56
626.95	18801.52
627.10	18963.02
627.25	18394.27
627.40	17774.03
627.55	16713.77
627.70	16409.50
627.85	16910.37
628.00	17317.62
628.15	17413.59
628.30	17720.20
628.45	17242.73
628.60	17167.83
628.76	17083.57
628.91	17467.42
629.06	17584.44
629.21	18801.52
629.36	17764.67
629.51	17149.11
629.66	16547.59
629.81	16498.44
629.96	17111.66
630.11	16753.55
630.26	16898.67
630.41	17081.23
630.56	16891.65
630.71	17177.19
630.86	16758.24
631.01	16709.08
631.16	16922.07
631.31	16367.37
631.46	16400.13
631.61	16758.24
631.76	16578.01
631.91	16924.41
632.06	16762.92
632.21	16959.52
632.36	16519.50
632.51	16620.14
632.66	17062.51
632.81	16723.13
632.96	16798.02
633.10	16922.07
633.25	16870.58
633.40	16475.03
633.55	15819.68
633.70	16121.61
633.85	15946.07
634.00	16556.95
634.15	16758.24
634.30	16191.83
634.45	16219.91
634.60	16308.85
634.75	16035.01
634.90	16819.09
635.05	16996.97
635.19	16489.07
635.34	16521.84
635.49	16255.02
635.64	16280.77
635.79	16446.94
635.94	17097.61
636.09	17804.46
636.24	17352.73
636.39	16870.58
636.53	17060.16
636.68	16924.41
636.83	16748.87
636.98	16765.26
637.13	16767.60
637.28	17025.06
637.43	17495.50
637.57	17343.37
637.72	16865.90
637.87	16746.53
638.02	15976.50
638.17	16671.64
638.32	17518.91
638.46	16910.37
638.61	16376.73
638.76	16418.86
638.91	16414.18
639.06	16212.89
639.20	16238.64
639.35	15831.38
639.50	15466.26
639.65	15712.02
639.80	15578.61
639.94	15630.10
640.09	15925.00
640.24	15007.52
640.39	15286.04
640.54	14874.10
640.68	15030.92
640.83	15089.43
640.98	15576.27
641.13	15943.73
641.27	15892.24
641.42	15564.56
641.57	15456.90
641.72	15477.96
641.86	15697.97
642.01	15939.05
642.16	15613.71
642.31	15353.91
642.45	15154.97
642.60	15183.06
642.75	14626.01
642.90	15393.70
643.04	15257.95
643.19	14792.19
643.34	14544.09
643.48	15190.08
643.63	14719.63
643.78	14391.95
643.93	14471.53
644.07	15023.90
644.22	15183.06
644.37	14642.39
644.51	14794.53
644.66	14670.48
644.81	14937.30
644.95	14822.61
645.10	14677.50
645.25	14478.55
645.39	14097.05
645.54	14422.38
645.69	13834.91
645.83	14078.32
645.98	14501.96
646.13	14441.11
646.27	14448.13
646.42	14319.40
646.57	14445.79
646.71	14438.76
646.86	14417.70
647.00	14300.67
647.15	13919.17
647.30	14223.44
647.44	13593.83
647.59	13706.18
647.74	13720.22
647.88	13638.30
648.03	13710.86
648.17	13231.05
648.32	13678.09
648.47	14209.39
648.61	14118.11
648.76	14260.88
648.90	13481.49
649.05	13266.16
649.20	13067.21
649.34	12393.14
649.49	12854.22
649.63	12966.57
649.78	13142.11
649.92	13296.58
650.07	13867.67
650.21	13628.94
650.36	13523.62
650.51	13547.02
650.65	14111.09
650.80	14347.48
650.94	13731.92
651.09	13678.09
651.23	13071.89
651.38	12833.16
651.52	13102.32
651.67	13312.97
651.81	13731.92
651.96	13898.10
652.10	13610.22
652.25	13947.25
652.39	13647.66
652.54	13212.32
652.68	13785.76
652.83	13453.40
652.97	13516.59
653.12	12936.14
653.26	12910.40
653.41	12847.20
653.55	13186.58
653.70	13511.91
653.84	13137.43
653.99	13809.16
654.13	12968.91
654.27	12898.69
654.42	13027.42
654.56	12943.16
654.71	12898.69
654.85	12264.41
655.00	12311.22
655.14	12159.08
655.29	12131.00
655.43	12006.95
655.57	11157.33
655.72	10380.28
655.86	9783.44
656.01	9643.01
656.15	9940.26
656.30	10696.25
656.44	11021.58
656.58	10899.87
656.73	11236.91
656.87	11950.78
657.01	12238.66
657.16	12058.44
657.30	11901.62
657.45	12170.79
657.59	11826.73
657.73	11920.35
657.88	12196.53
658.02	12465.69
658.16	12297.17
658.31	12439.95
658.45	12325.26
658.60	12425.90
658.74	13167.85
658.88	12924.44
659.03	12189.51
659.17	12351.01
659.31	12100.57
659.46	11737.79
659.60	12273.77
659.74	12388.46
659.89	12322.92
660.03	12524.21
660.17	12184.83
660.32	11894.60
660.46	12163.76
660.60	12208.23
660.74	12266.75
660.89	12198.87
661.03	12446.97
661.17	12528.89
661.32	12898.69
661.46	12758.26
661.60	12758.26
661.74	12276.11
661.89	12517.18
662.03	12472.71
662.17	11555.22
662.31	11978.86
662.46	11754.17
662.60	11625.44
662.74	10967.75
662.88	11166.70
663.03	11726.08
663.17	11517.78
663.31	11101.16
663.45	11613.74
663.60	11620.76
663.74	11351.60
663.88	11571.61
664.02	11328.19
664.17	11620.76
664.31	11021.58
664.45	10820.30
664.59	11470.97
664.73	11896.94
664.88	12018.65
665.02	12521.87
665.16	12056.10
665.30	12271.43
665.44	12381.43
665.59	11782.26
665.73	11442.88
665.87	11321.17
666.01	11433.52
666.15	11152.65
666.29	11040.31
666.44	11410.11
666.58	11185.42
666.72	11545.86
666.86	11676.93
667.00	11531.82
667.14	10977.11
667.28	11122.23
667.43	11061.37
667.57	11309.47
667.71	11616.08
667.85	11587.99
667.99	11625.44
668.13	11433.52
668.27	11227.55
668.41	11421.81
668.56	11295.43
668.70	11021.58
668.84	11459.26
668.98	11234.57
669.12	10827.32
669.26	10513.69
669.40	10256.23
669.54	10712.63
669.68	10317.08
669.82	10406.02
669.96	10588.58
670.10	10504.32
670.25	10647.10
670.39	10237.50
670.53	10188.35
670.67	10635.39
670.81	10066.64
670.95	9827.91
671.09	9860.68
671.23	10111.11
671.37	9809.19
671.51	9804.50
671.65	9664.07
671.79	9724.93
671.93	10541.77
672.07	10885.83
672.21	9949.62
672.35	9774.08
672.49	9856.00
672.63	9930.89
672.77	9783.44
672.91	9879.40
673.05	9785.78
673.19	9348.10
673.33	9781.10
673.47	10298.36
673.61	9914.51
673.75	9600.88
673.89	9710.88
674.03	9434.70
674.17	9439.38
674.31	9516.62
674.45	9331.72
674.59	9928.55
674.73	9633.64
674.87	9570.45
675.01	9125.75
675.15	9249.80
675.29	9336.40
675.43	8945.53
675.56	8849.57
675.70	9160.86
675.84	9242.78
675.98	8496.14
676.12	8809.78
676.26	8585.08
676.40	8662.32
676.54	8816.80
676.68	8798.07
676.82	8634.24
676.96	8748.92
677.10	8774.67
677.23	8606.15
677.37	8702.11
677.51	8622.53
677.65	8526.57
677.79	8056.12
677.93	8079.53
678.07	8231.66
678.21	8461.04
678.34	8971.27
678.48	8725.52
678.62	8524.23
678.76	8727.86
678.90	8372.10
679.04	8566.36
679.18	8711.47
679.31	8554.66
679.45	8191.88
679.59	8114.64
679.73	8301.88
679.87	8512.53
680.00	8432.95
680.14	8360.39
680.28	8587.43
680.42	8187.19
680.56	7749.51
680.70	7763.56
680.83	7978.89
680.97	8252.73
681.11	8266.77
681.25	8163.79
681.39	8163.79
681.52	8021.02
681.66	7585.68
681.80	7463.97
681.94	7611.42
682.07	8077.19
682.21	7475.67
682.35	7826.75
682.49	7634.83
682.62	7473.33
682.76	7417.16
682.90	6932.67
683.04	6846.07
683.17	7019.27
683.31	7201.83
683.45	7412.48
683.59	7152.68
683.72	6967.77
683.86	6949.05
684.00	6504.35
684.13	6235.19
684.27	6499.67
684.41	6913.94
684.55	6944.37
684.68	7007.56
684.82	6803.94
684.96	7197.15
685.09	6815.64
685.23	7016.93
685.37	6509.03
685.50	6911.60
685.64	6619.04
685.78	6850.75
685.91	6832.02
686.05	7145.66
686.19	6569.88
686.32	6200.08
686.46	5481.53
686.60	4627.24
686.73	4236.37
686.87	3967.21
687.01	3955.51
687.14	4273.82
687.28	4898.74
687.42	5256.84
687.55	5149.18
687.69	5177.26
687.82	5607.92
687.96	5277.91
688.10	5320.04
688.23	5853.68
688.37	5605.58
688.50	5139.82
688.64	4875.34
688.78	4968.96
688.91	5146.84
689.05	5062.58
689.18	5139.82
689.32	5289.61
689.46	5144.50
689.59	5167.90
689.73	5303.65
689.86	5233.44
690.00	4908.10
690.13	5343.44
690.27	5212.37
690.41	4835.55
690.54	4943.21
690.68	5266.21
690.81	5352.81
690.95	5451.11
691.08	5434.72
691.22	5451.11
691.35	5284.93
691.49	5282.59
691.62	5245.14
691.76	5472.17
691.89	5163.22
692.03	5231.10
692.16	5135.14
692.30	5062.58
692.43	5142.16
692.57	4975.98
692.70	5071.94
692.84	4910.44
692.97	4980.66
693.11	4922.15
693.24	4732.56
693.38	4737.24
693.51	4873.00
693.65	4891.72
693.78	4411.91
693.92	4568.73
694.05	4554.68
694.19	4383.82
694.32	4117.00
694.45	4381.48
694.59	4751.29
694.72	4479.79
694.86	4587.45
694.99	4779.37
695.13	4723.20
695.26	4755.97
695.39	4587.45
695.53	4601.49
695.66	4535.96
695.80	4465.74
695.93	4561.70
696.07	4833.21
696.20	4926.83
696.33	4947.89
696.47	4968.96
696.60	4582.77
696.73	4437.66
696.87	4688.09
697.00	4683.41
697.14	4884.70
697.27	4615.54
697.40	4507.87
697.54	4538.30
697.67	4547.66
697.80	4479.79
697.94	4603.83
698.07	4496.17
698.21	4170.83
698.34	4173.18
698.47	3922.74
698.61	4109.98
698.74	4098.28
698.87	4250.41
699.01	4142.75
699.14	4339.35
699.27	4341.69
699.40	4510.21
699.54	4259.78
699.67	4184.88
699.80	4156.79
699.94	3962.53
700.07	3985.93
700.20	3992.95
700.34	3861.88
700.47	3899.33
700.60	3623.15
700.73	3705.07
700.87	3730.81
701.00	3709.75
701.13	3669.96
701.26	3569.32
701.40	3588.04
701.53	3609.11
701.66	3595.06
701.79	3618.47
701.93	3499.10
702.06	3449.95
702.19	3604.42
702.32	3389.10
702.46	3442.93
702.59	3524.85
702.72	3698.05
702.85	3534.21
702.99	3768.26
703.12	3679.32
703.25	3583.36
703.38	3398.46
703.51	3330.58
703.65	3424.20
703.78	3513.14
703.91	3454.63
704.04	3379.73
704.17	3410.16
704.31	3529.53
704.44	3403.14
704.57	3489.74
704.70	3466.33
704.83	3239.30
704.96	3468.67
705.10	3391.44
705.23	3281.43
>>>>>End Processed Spectral Data<<<<<
