SpectraSuite Data File
++++++++++++++++++++++++++++++++++++
Date: Mon Oct 07 14:54:58 GMT-05:00 2013
User: price-jones
Dark Spectrum Present: No
Reference Spectrum Present: No
Number of Sampled Component Spectra: 1
Spectrometers: USB2+H05261
Integration Time (usec): 10000 (USB2+H05261)
Spectra Averaged: 1 (USB2+H05261)
Boxcar Smoothing: 0 (USB2+H05261)
Correct for Electrical Dark: No (USB2+H05261)
Strobe/Lamp Enabled: No (USB2+H05261)
Correct for Detector Non-linearity: No (USB2+H05261)
Correct for Stray Light: No (USB2+H05261)
Number of Pixels in Processed Spectrum: 2048
>>>>>Begin Processed Spectral Data<<<<<
365.73	0.00
365.92	0.00
366.12	0.00
366.32	0.00
366.52	0.00
366.72	0.00
366.91	0.00
367.11	0.00
367.31	0.00
367.51	0.00
367.70	0.00
367.90	0.00
368.10	0.00
368.30	0.00
368.49	0.00
368.69	0.00
368.89	0.00
369.09	0.00
369.28	0.00
369.48	0.00
369.68	0.00
369.87	0.00
370.07	0.00
370.27	0.00
370.47	133.41
370.66	1404.32
370.86	1715.61
371.06	1788.17
371.25	1706.25
371.45	1626.67
371.65	1366.87
371.84	1320.06
372.04	1516.67
372.24	1755.40
372.44	1722.63
372.63	1645.40
372.83	1500.28
373.03	1303.68
373.22	1317.72
373.42	1401.98
373.62	1666.46
373.81	1619.65
374.01	1603.27
374.21	1451.13
374.40	1413.68
374.60	1526.03
374.79	1748.38
374.99	1921.58
375.19	2101.80
375.38	2031.58
375.58	1937.96
375.78	1823.28
375.97	1923.92
376.17	2040.95
376.37	1928.60
376.56	2101.80
376.76	2368.62
376.95	2443.52
377.15	2415.43
377.35	2665.87
377.54	2904.60
377.74	2906.95
377.93	2757.15
378.13	2738.43
378.33	2459.90
378.52	2298.41
378.72	2214.15
378.91	2314.79
379.11	2214.15
379.31	2136.91
379.50	2167.34
379.70	2275.00
379.89	2565.23
380.09	2689.28
380.28	2913.97
380.48	2782.90
380.68	2679.91
380.87	2600.34
381.07	2420.11
381.26	2150.95
381.46	1989.46
381.65	2005.84
381.85	1893.49
382.04	1774.13
382.24	1689.87
382.43	1612.63
382.63	1614.97
382.83	1675.82
383.02	1614.97
383.22	1556.46
383.41	1554.12
383.61	1802.21
383.80	2090.10
384.00	2464.58
384.19	2621.40
384.39	2782.90
384.58	2803.96
384.78	2576.93
384.97	2612.04
385.17	2408.41
385.36	2307.77
385.56	2183.72
385.75	2349.90
385.95	2583.95
386.14	2813.32
386.34	2757.15
386.53	2595.65
386.72	2499.69
386.92	2597.99
387.11	2761.83
387.31	2829.71
387.50	2785.24
387.70	2740.77
387.89	2534.80
388.09	2633.10
388.28	2736.09
388.48	2796.94
388.67	3075.46
388.86	3421.86
389.06	3393.78
389.25	3754.22
389.45	3669.96
389.64	3660.60
389.84	3686.34
390.03	3522.51
390.22	3595.06
390.42	3866.56
390.61	4114.66
390.81	4449.36
391.00	4339.35
391.19	4074.87
391.39	4135.73
391.58	3854.86
391.78	3655.92
391.97	3281.43
392.16	3117.59
392.36	2803.96
392.55	2165.00
392.75	1764.76
392.94	1458.15
393.13	1544.75
393.33	1952.01
393.52	2492.67
393.71	2909.29
393.91	3251.00
394.10	3737.84
394.29	3964.87
394.49	4262.12
394.68	4582.77
394.88	4444.68
395.07	4788.74
395.26	4634.26
395.46	4369.78
395.65	4105.30
395.84	3349.31
396.04	2876.52
396.23	2291.38
396.42	1914.56
396.62	2045.63
396.81	2679.91
397.00	3379.73
397.19	4131.05
397.39	4826.18
397.58	5191.31
397.77	5469.83
397.97	5724.95
398.16	5685.16
398.35	5900.49
398.55	6242.21
398.74	6230.51
398.93	6499.67
399.12	6345.19
399.32	6111.14
399.51	6326.47
399.70	6782.87
399.90	6567.54
400.09	6504.35
400.28	6710.32
400.47	6773.51
400.67	7040.33
400.86	7171.40
401.05	7077.78
401.24	7059.06
401.44	7339.92
401.63	7253.32
401.82	7304.81
402.01	7466.31
402.21	7641.85
402.40	7229.91
402.59	7105.87
402.78	6869.47
402.97	6586.27
403.17	7080.12
403.36	7487.37
403.55	7604.40
403.74	7543.55
403.93	7215.87
404.13	6689.25
404.32	6853.09
404.51	7241.62
404.70	7496.74
404.89	7482.69
405.09	7501.42
405.28	7122.25
405.47	7349.28
405.66	7115.23
405.85	7042.67
406.05	6663.51
406.24	7070.76
406.43	7293.11
406.62	7372.69
406.81	7508.44
407.00	7150.34
407.20	6897.56
407.39	7136.29
407.58	7489.71
407.77	7747.17
407.96	7964.84
408.15	8187.19
408.34	8383.80
408.54	8542.96
408.73	8596.79
408.92	8294.86
409.11	8231.66
409.30	7665.25
409.49	7276.73
409.68	6829.68
409.87	6736.06
410.07	7356.30
410.26	7691.00
410.45	8067.83
410.64	8386.14
410.83	8603.81
411.02	8823.82
411.21	9420.66
411.40	9027.45
411.59	8814.46
411.78	8868.29
411.98	8854.25
412.17	9097.66
412.36	8744.24
412.55	8762.97
412.74	8636.58
412.93	8594.45
413.12	8762.97
413.31	9331.72
413.50	9490.87
413.69	9584.49
413.88	9055.53
414.07	8964.25
414.26	9355.12
414.45	9488.53
414.64	9607.90
414.83	9500.23
415.02	9355.12
415.22	9245.12
415.41	9802.16
415.60	9762.37
415.79	10314.74
415.98	10401.34
416.17	10136.86
416.36	9912.17
416.55	9781.10
416.74	9373.85
416.93	9195.96
417.12	9341.08
417.31	9549.39
417.50	9619.60
417.69	10040.90
417.88	9907.49
418.07	9804.50
418.26	9710.88
418.45	9933.23
418.64	10391.98
418.83	10640.08
419.02	10239.84
419.21	10050.26
419.39	9645.35
419.58	9114.05
419.77	9673.43
419.96	9947.28
420.15	10494.96
420.34	10754.76
420.53	11077.76
420.72	11080.10
420.91	11012.22
421.10	10874.13
421.29	10993.50
421.48	10274.95
421.67	10956.05
421.86	10476.24
422.05	9628.96
422.24	8861.27
422.43	9067.24
422.61	9994.09
422.80	10487.94
422.99	10319.42
423.18	10195.37
423.37	9921.53
423.56	10249.21
423.75	10457.51
423.94	10686.89
424.13	10061.96
424.32	9867.70
424.50	9893.44
424.69	9872.38
424.88	10064.30
425.07	10005.79
425.26	9806.84
425.45	9650.03
425.64	9729.61
425.83	9994.09
426.01	10237.50
426.20	10274.95
426.39	10174.31
426.58	9294.27
426.77	8835.52
426.96	8711.47
427.15	9109.36
427.33	9870.04
427.52	10113.45
427.71	10125.16
427.90	9645.35
428.09	9795.14
428.28	9479.17
428.46	9355.12
428.65	9263.84
428.84	9359.80
429.03	9516.62
429.22	8765.31
429.40	8238.69
429.59	7564.61
429.78	6817.98
429.97	6768.83
430.16	6780.53
430.34	6642.44
430.53	6942.03
430.72	7283.75
430.91	8304.22
431.10	9572.79
431.28	10953.71
431.47	11658.21
431.66	11562.25
431.85	10401.34
432.03	9689.82
432.22	9792.80
432.41	10518.37
432.60	11194.78
432.79	11463.94
432.97	11712.04
433.16	11248.61
433.35	10057.28
433.54	9114.05
433.72	9121.07
433.91	9558.75
434.10	10595.61
434.28	11169.04
434.47	11351.60
434.66	11152.65
434.85	11049.67
435.03	11143.29
435.22	11440.54
435.41	11999.93
435.59	11686.29
435.78	12152.06
435.97	12093.55
436.16	12278.45
436.34	12318.24
436.53	11859.49
436.72	12037.38
436.90	11094.14
437.09	11475.65
437.28	11218.19
437.46	11442.88
437.65	11417.13
437.84	10380.28
438.02	9935.57
438.21	10068.98
438.40	10569.86
438.58	11239.25
438.77	11325.85
438.96	11592.67
439.14	12273.77
439.33	12236.32
439.52	12489.10
439.70	12215.26
439.89	11707.36
440.08	11651.19
440.26	11871.20
440.45	12088.87
440.63	13151.47
440.82	13642.98
441.01	13114.02
441.19	13343.39
441.38	13577.45
441.57	14019.81
441.75	13687.45
441.94	13926.19
442.12	13982.36
442.31	14415.36
442.50	14366.21
442.68	14141.52
442.87	13839.59
443.05	13895.76
443.24	14391.95
443.43	14239.82
443.61	14078.32
443.80	14782.82
443.98	14129.81
444.17	14265.57
444.35	14923.26
444.54	14810.91
444.73	14703.25
444.91	14162.58
445.10	13394.89
445.28	13219.35
445.47	12842.52
445.65	12765.28
445.84	13584.47
446.02	13610.22
446.21	13804.48
446.39	14078.32
446.58	14185.99
446.77	14941.98
446.95	14871.76
447.14	15042.62
447.32	15115.18
447.51	14464.51
447.69	14141.52
447.88	14017.47
448.06	14223.44
448.25	14406.00
448.43	14665.80
448.62	14288.97
448.80	13752.99
448.99	14361.53
449.17	14352.16
449.36	14593.24
449.54	14906.87
449.73	15428.81
449.91	15288.38
450.10	15981.18
450.28	15953.09
450.46	15822.02
450.65	15538.82
450.83	15669.89
451.02	15524.77
451.20	15337.53
451.39	15002.83
451.57	15140.93
451.76	15044.96
451.94	15051.99
452.13	14820.27
452.31	13823.20
452.49	13507.23
452.68	13757.67
452.86	13874.70
453.05	13970.66
453.23	14530.05
453.42	14979.43
453.60	15136.24
453.78	15105.82
453.97	14923.26
454.15	14857.72
454.34	14532.39
454.52	14874.10
454.70	14445.79
454.89	14295.99
455.07	14789.85
455.26	15227.53
455.44	15426.47
455.62	15487.32
455.81	16009.26
455.99	15295.40
456.17	15730.74
456.36	15662.86
456.54	15887.56
456.73	15999.90
456.91	16262.04
457.09	16191.83
457.28	16524.18
457.46	15676.91
457.64	15939.05
457.83	15229.87
458.01	15133.90
458.19	15763.51
458.38	15562.22
458.56	15562.22
458.74	15812.66
458.93	15536.48
459.11	15183.06
459.29	15353.91
459.48	15557.54
459.66	14988.79
459.84	15297.74
460.03	16105.23
460.21	15791.59
460.39	16229.27
460.57	16210.55
460.76	16210.55
460.94	16358.00
461.12	16002.24
461.31	16149.70
461.49	16444.60
461.67	16428.22
461.85	17027.40
462.04	16919.73
462.22	16751.21
462.40	16856.54
462.59	16343.96
462.77	16224.59
462.95	16341.62
463.13	16819.09
463.32	16559.29
463.50	15765.85
463.68	16130.97
463.86	16315.87
464.05	16053.73
464.23	15353.91
464.41	15283.70
464.59	15159.65
464.78	15693.29
464.96	15658.18
465.14	15604.35
465.32	16224.59
465.50	16652.91
465.69	16568.65
465.87	16325.24
466.05	15751.81
466.23	15351.57
466.41	15257.95
466.60	15826.70
466.78	15510.73
466.96	15482.64
467.14	15665.21
467.32	15836.06
467.51	15810.32
467.69	15316.47
467.87	15651.16
468.05	15974.16
468.23	15735.42
468.41	15805.64
468.60	15791.59
468.78	15772.87
468.96	15976.50
469.14	16173.10
469.32	16369.71
469.50	15407.75
469.69	15295.40
469.87	15272.00
470.05	15506.05
470.23	15524.77
470.41	15868.83
470.59	15887.56
470.77	15510.73
470.95	15922.66
471.14	16287.79
471.32	16360.34
471.50	17474.44
471.68	17406.56
471.86	17371.46
472.04	17352.73
472.22	17310.60
472.40	16339.28
472.58	16594.40
472.77	16294.81
472.95	16898.67
473.13	17146.76
473.31	16760.58
473.49	16985.27
473.67	16870.58
473.85	16959.52
474.03	17067.19
474.21	17153.79
474.39	17579.76
474.57	17291.88
474.75	17687.43
474.93	17628.92
475.12	17308.26
475.30	17383.16
475.48	17429.97
475.66	17575.08
475.84	17371.46
476.02	17509.55
476.20	17160.81
476.38	17537.63
476.56	17823.18
476.74	18139.15
476.92	18434.06
477.10	18202.35
477.28	18864.72
477.46	18970.04
477.64	18764.07
477.82	18724.29
478.00	19201.76
478.18	18834.29
478.36	18672.79
478.54	18534.70
478.72	18726.63
478.90	19887.53
479.08	19859.45
479.26	20191.80
479.44	19501.34
479.62	19845.40
479.80	20545.22
479.98	20175.42
480.16	20236.27
480.34	20688.00
480.52	20187.12
480.70	20114.56
480.88	20475.01
481.06	20945.45
481.24	20994.61
481.41	22064.23
481.59	22097.00
481.77	21233.34
481.95	20739.49
482.13	21362.07
482.31	20975.88
482.49	21734.21
482.67	21198.23
482.85	21177.17
483.03	21378.45
483.21	21928.48
483.39	21996.35
483.57	21621.87
483.74	21837.20
483.92	21502.50
484.10	22085.30
484.28	22242.11
484.46	22445.74
484.64	21951.88
484.82	22338.07
485.00	22001.04
485.18	20954.82
485.35	20432.88
485.53	18099.36
485.71	16996.97
485.89	17376.14
486.07	18420.02
486.25	20044.35
486.43	20823.75
486.61	20439.90
486.78	20650.55
486.96	21319.94
487.14	22195.30
487.32	22852.99
487.50	23054.28
487.68	22831.93
487.85	24088.79
488.03	23796.23
488.21	23379.61
488.39	22640.00
488.57	23108.11
488.75	23065.98
488.92	23880.49
489.10	25701.42
489.28	26314.64
489.46	26874.03
489.64	27236.81
489.81	26759.34
489.99	26127.40
490.17	26370.82
490.35	26827.22
490.53	26050.16
490.70	25804.41
490.88	26515.93
491.06	26785.09
491.24	26934.88
491.41	25469.71
491.59	24629.46
491.77	23838.36
491.95	25095.22
492.13	25448.64
492.30	26391.88
492.48	27665.13
492.66	28112.17
492.84	27466.19
493.01	26859.99
493.19	26593.17
493.37	25436.94
493.54	26155.49
493.72	27016.80
493.90	27833.65
494.08	28496.02
494.25	29467.34
494.43	29579.69
494.61	30125.04
494.79	30228.02
494.96	29607.78
495.14	28489.00
495.32	27906.21
495.49	27508.32
495.67	28437.51
495.85	30031.41
496.02	30178.87
496.20	30742.94
496.38	29780.98
496.55	29589.05
496.73	29977.58
496.91	29883.96
497.09	30120.35
497.26	30197.59
497.44	30691.44
497.62	30082.91
497.79	28828.38
497.97	27934.29
498.14	28156.64
498.32	29027.32
498.50	29771.61
498.67	30632.93
498.85	30073.54
499.03	29401.81
499.20	30129.72
499.38	29795.02
499.56	29188.82
499.73	29263.72
499.91	28816.68
500.08	28212.82
500.26	27906.21
500.44	28643.48
500.61	29621.82
500.79	28430.49
500.97	28322.82
501.14	28470.28
501.32	28107.49
501.49	27538.74
501.67	28561.56
501.84	29710.76
502.02	29385.43
502.20	29486.07
502.37	30408.24
502.55	30448.03
502.72	30850.60
502.90	31206.36
503.07	30546.33
503.25	30672.72
503.43	29237.97
503.60	28292.40
503.78	27704.92
503.95	29078.82
504.13	29560.97
504.30	30668.04
504.48	31302.32
504.65	30553.35
504.83	30375.47
505.01	30625.91
505.18	30426.96
505.36	31957.67
505.53	31913.20
505.71	32308.76
505.88	32107.47
506.06	32105.13
506.23	31168.91
506.41	30656.34
506.58	31344.45
506.76	30389.52
506.93	31477.86
507.11	29457.98
507.28	30366.11
507.46	30073.54
507.63	29525.86
507.81	28917.32
507.98	29518.84
508.16	30663.36
508.33	31204.02
508.50	30684.42
508.68	31962.36
508.85	32292.37
509.03	31442.76
509.20	30328.66
509.38	30590.80
509.55	30342.70
509.73	30953.58
509.90	31632.34
510.08	30707.83
510.25	30110.99
510.42	30316.96
510.60	30338.02
510.77	31927.25
510.95	31920.23
511.12	31218.07
511.30	31873.42
511.47	32517.06
511.64	31632.34
511.82	31758.73
511.99	31044.87
512.17	31241.47
512.34	30937.20
512.51	30101.63
512.69	30630.59
512.86	30913.80
513.04	31295.30
513.21	31246.15
513.38	31124.44
513.56	30019.71
513.73	29556.28
513.90	28903.28
514.08	29401.81
514.25	30300.58
514.43	30661.02
514.60	30932.52
514.77	30595.48
514.95	30897.41
515.12	30724.21
515.29	31384.24
515.47	31519.99
515.64	30962.95
515.81	31281.26
515.99	30803.79
516.16	27953.02
516.33	26061.87
516.51	25083.52
516.68	24357.96
516.85	23662.82
517.03	24540.52
517.20	27112.77
517.37	29467.34
517.54	29158.39
517.72	28048.98
517.89	26436.35
518.06	25717.81
518.24	26700.83
518.41	27496.61
518.58	28807.31
518.75	28723.05
518.93	29134.99
519.10	28849.44
519.27	29376.06
519.45	29916.73
519.62	31000.40
519.79	31098.70
519.96	31065.93
520.14	29982.26
520.31	29160.73
520.48	29118.60
520.65	29710.76
520.83	30338.02
521.00	29977.58
521.17	30024.39
521.34	29872.26
521.52	30132.06
521.69	30778.04
521.86	31267.22
522.03	29993.97
522.20	29408.83
522.38	28308.78
522.55	28877.53
522.72	29502.45
522.89	28973.49
523.07	29343.30
523.24	30326.32
523.41	31182.96
523.58	30705.49
523.75	30377.81
523.92	31456.80
524.10	31199.34
524.27	31468.50
524.44	30967.63
524.61	31740.00
524.78	31440.42
524.96	30890.39
525.13	31079.97
525.30	31880.44
525.47	32418.76
525.64	31527.02
525.81	29872.26
525.98	28020.89
526.16	27087.02
526.33	26991.06
526.50	26691.47
526.67	26904.46
526.84	26897.44
527.01	28474.96
527.18	29235.63
527.36	29717.78
527.53	31049.55
527.70	30312.28
527.87	28847.10
528.04	29095.20
528.21	29998.65
528.38	30668.04
528.55	31655.75
528.72	31672.13
528.89	31187.64
529.07	31627.66
529.24	30101.63
529.41	30216.32
529.58	29654.59
529.75	29446.28
529.92	30185.89
530.09	30110.99
530.26	31061.25
530.43	29825.45
530.60	31164.23
530.77	31157.21
530.94	32315.78
531.11	30824.86
531.28	30897.41
531.46	30059.50
531.63	31482.55
531.80	31405.31
531.97	30082.91
532.14	28552.20
532.31	27534.06
532.48	26747.64
532.65	27419.38
532.82	28107.49
532.99	29209.89
533.16	30644.63
533.33	31606.59
533.50	30831.88
533.67	29720.12
533.84	29750.55
534.01	29593.73
534.18	29916.73
534.35	29317.55
534.52	29647.57
534.69	30045.46
534.86	29710.76
535.03	30183.55
535.20	30768.68
535.37	30820.17
535.54	31229.77
535.71	30263.13
535.88	30235.04
536.05	29319.89
536.22	29235.63
536.38	29048.39
536.55	29371.38
536.72	28840.08
536.89	28847.10
537.06	29862.90
537.23	29652.25
537.40	29404.15
537.57	29535.22
537.74	28755.82
537.91	28760.50
538.08	30164.82
538.25	30071.20
538.42	29111.58
538.59	29806.72
538.75	29535.22
538.92	29523.52
539.09	28713.69
539.26	27845.35
539.43	27580.87
539.60	27557.47
539.77	27276.60
539.94	27042.55
540.11	26038.46
540.28	26071.23
540.44	26946.59
540.61	27103.40
540.78	27199.37
540.95	28645.82
541.12	27749.39
541.29	29340.96
541.46	28346.23
541.62	28416.44
541.79	27166.60
541.96	27175.96
542.13	28531.13
542.30	28643.48
542.47	28198.77
542.63	27882.80
542.80	27049.57
542.97	27243.84
543.14	27082.34
543.31	27051.91
543.48	28474.96
543.64	28538.15
543.81	29867.58
543.98	28730.08
544.15	27974.08
544.32	27552.79
544.48	28449.21
544.65	27674.49
544.82	27955.36
544.99	28147.28
545.16	28189.41
545.32	28603.69
545.49	28840.08
545.66	28313.46
545.83	28100.47
546.00	28137.92
546.16	27950.68
546.33	27761.09
546.50	28559.22
546.67	27805.56
546.83	27662.79
547.00	27452.14
547.17	26899.78
547.34	27346.82
547.50	27339.80
547.67	27220.43
547.84	27154.90
548.00	27564.49
548.17	27110.43
548.34	27049.57
548.51	27070.64
548.67	28261.97
548.84	28238.56
549.01	28266.65
549.18	28294.74
549.34	28779.23
549.51	28662.20
549.68	28074.73
549.84	27440.44
550.01	27342.14
550.18	26808.50
550.34	26726.58
550.51	26724.24
550.68	26361.45
550.84	25256.72
551.01	25654.61
551.18	25886.32
551.34	25472.05
551.51	26696.15
551.68	27868.76
551.84	26768.71
552.01	27608.96
552.18	26794.45
552.34	26380.18
552.51	26199.96
552.68	27283.62
552.84	26527.63
553.01	26178.89
553.18	27693.22
553.34	27126.81
553.51	27068.30
553.67	26787.43
553.84	27924.93
554.01	27730.67
554.17	26192.94
554.34	26775.73
554.51	27721.30
554.67	27620.66
554.84	26787.43
555.00	26618.91
555.17	26515.93
555.33	26249.11
555.50	27309.37
555.67	27051.91
555.83	27072.98
556.00	26544.02
556.16	26647.00
556.33	26103.99
556.50	26008.03
556.66	25132.67
556.83	24926.71
556.99	25589.08
557.16	25551.63
557.32	25626.53
557.49	25724.83
557.65	25837.17
557.82	25088.20
557.98	25301.19
558.15	25654.61
558.32	25261.40
558.48	24205.82
558.65	23543.45
558.81	23896.87
558.98	24203.48
559.14	25053.09
559.31	25446.30
559.47	24769.89
559.64	24437.53
559.80	25252.04
559.97	24929.05
560.13	25450.99
560.30	25549.29
560.46	25525.88
560.63	25954.20
560.79	26197.62
560.96	25427.58
561.12	24781.59
561.29	24774.57
561.45	24313.48
561.61	24311.14
561.78	24622.44
561.94	24655.20
562.11	24034.96
562.27	24774.57
562.44	24938.41
562.60	24922.02
562.77	25163.10
562.93	24851.81
563.10	24697.33
563.26	24400.08
563.42	23791.55
563.59	23592.60
563.75	24809.68
563.92	24154.33
564.08	24341.57
564.24	24294.76
564.41	23445.15
564.57	23833.68
564.74	23433.44
564.90	23421.74
565.07	23225.14
565.23	22480.85
565.39	22211.68
565.56	24034.96
565.72	23487.28
565.88	23917.93
566.05	23131.51
566.21	23372.59
566.38	23234.50
566.54	22920.87
566.70	22796.82
566.87	23381.95
567.03	24477.32
567.19	25408.86
567.36	23253.22
567.52	23864.10
567.68	23721.33
567.85	23473.23
568.01	23723.67
568.17	22499.57
568.34	21731.87
568.50	21867.63
568.66	22375.52
568.83	22586.17
568.99	23044.91
569.15	23403.02
569.32	23349.18
569.48	22960.66
569.64	22115.72
569.81	21699.11
569.97	22356.80
570.13	22286.58
570.30	21771.66
570.46	21436.97
570.62	20865.88
570.78	20149.67
570.95	20528.84
571.11	21451.01
571.27	21390.16
571.43	21745.92
571.60	22511.27
571.76	22106.36
571.92	22721.92
572.09	22916.19
572.25	22457.44
572.41	23105.77
572.57	23040.23
572.74	22157.85
572.90	22244.45
573.06	22111.04
573.22	22057.21
573.38	22127.42
573.55	21153.76
573.71	21954.22
573.87	21797.41
574.03	22024.44
574.20	21839.54
574.36	21656.98
574.52	21631.23
574.68	21177.17
574.84	21118.65
575.01	21406.54
575.17	21324.62
575.33	21172.49
575.49	20781.62
575.65	21441.65
575.82	21282.49
575.98	20744.17
576.14	21664.00
576.30	20769.91
576.46	20512.46
576.62	21338.66
576.79	20783.96
576.95	20088.82
577.11	20437.56
577.27	20128.61
577.43	20493.73
577.59	20198.82
577.75	20929.07
577.92	19941.36
578.08	19875.83
578.24	19995.20
578.40	20067.75
578.56	20196.48
578.72	20159.03
578.88	20744.17
579.04	20428.20
579.21	20449.26
579.37	20547.56
579.53	19894.55
579.69	19943.70
579.85	19866.47
580.01	19772.85
580.17	20004.56
580.33	20098.18
580.49	20088.82
580.65	19852.42
580.82	20144.99
580.98	20575.65
581.14	20144.99
581.30	21130.36
581.46	20442.24
581.62	20278.40
581.78	20152.01
581.94	21015.67
582.10	20566.29
582.26	20332.23
582.42	20556.93
582.58	21546.97
582.74	20652.89
582.90	20500.75
583.06	20573.31
583.22	20425.86
583.38	20711.40
583.54	20781.62
583.70	20482.03
583.86	20629.48
584.02	20467.98
584.18	20208.19
584.34	20493.73
584.50	21076.52
584.66	20697.36
584.82	20533.52
584.98	20152.01
585.14	19910.94
585.30	18979.40
585.46	19054.30
585.62	18111.07
585.78	19126.86
585.94	19183.03
586.10	20081.80
586.26	19545.81
586.42	19550.49
586.58	19517.73
586.74	19145.58
586.90	19316.44
587.06	19358.57
587.22	18757.05
587.38	19110.47
587.54	19365.59
587.70	19192.39
587.86	18848.33
588.02	18881.10
588.18	18607.26
588.34	17706.15
588.49	17539.97
588.65	16615.46
588.81	16208.21
588.97	16248.00
589.13	15896.92
589.29	15555.20
589.45	16524.18
589.61	17614.87
589.77	17951.91
589.93	17884.03
590.08	18082.98
590.24	18520.66
590.40	18331.08
590.56	18050.21
590.72	17736.58
590.88	17635.94
591.04	17673.39
591.20	17596.15
591.35	18050.21
591.51	18752.37
591.67	18331.08
591.83	18239.79
591.99	17884.03
592.15	17944.89
592.31	17689.77
592.46	17369.12
592.62	17750.62
592.78	17816.16
592.94	17479.12
593.10	17727.22
593.26	17617.21
593.41	18450.44
593.57	17989.36
593.73	17694.45
593.89	17631.26
594.05	16786.32
594.20	16720.79
594.36	16367.37
594.52	16830.79
594.68	17181.87
594.84	16727.81
594.99	17282.52
595.15	17413.59
595.31	17242.73
595.47	16673.98
595.62	16973.56
595.78	17099.95
595.94	17249.75
596.10	17008.67
596.25	16933.78
596.41	17338.69
596.57	17418.27
596.73	16989.95
596.88	16992.29
597.04	17064.85
597.20	16610.78
597.36	16250.34
597.51	16194.17
597.67	16795.68
597.83	16439.92
597.99	16252.68
598.14	15955.43
598.30	15101.14
598.46	15461.58
598.61	16137.99
598.77	16507.80
598.93	16800.37
599.09	17114.00
599.24	16692.70
599.40	16582.70
599.56	16861.22
599.71	16556.95
599.87	16575.67
600.03	16549.93
600.18	17032.08
600.34	17055.48
600.50	16655.25
600.65	17263.79
600.81	17284.86
600.97	16648.23
601.12	16215.23
601.28	15662.86
601.44	15669.89
601.59	15592.65
601.75	16077.14
601.91	16065.44
602.06	15449.88
602.22	15887.56
602.37	16208.21
602.53	16290.13
602.69	15981.18
602.84	15704.99
603.00	16549.93
603.16	16257.36
603.31	16271.40
603.47	16128.63
603.62	15983.52
603.78	16737.17
603.94	16086.50
604.09	16812.07
604.25	16868.24
604.40	16563.97
604.56	16365.03
604.71	16652.91
604.87	16528.86
605.03	16638.87
605.18	16283.11
605.34	15634.78
605.49	15772.87
605.65	16020.97
605.80	15569.24
605.96	15510.73
606.12	15566.90
606.27	15321.15
606.43	15513.07
606.58	15496.69
606.74	15721.38
606.89	16093.52
607.05	15889.90
607.20	15620.74
607.36	16023.31
607.51	15480.30
607.67	15382.00
607.82	15658.18
607.98	15431.15
608.13	15620.74
608.29	15716.70
608.44	15140.93
608.60	15040.28
608.75	15384.34
608.91	15344.55
609.06	15192.42
609.22	14860.06
609.37	15634.78
609.53	15609.03
609.68	14892.83
609.84	14607.28
609.99	14693.88
610.15	14164.92
610.30	14621.33
610.46	14759.42
610.61	14621.33
610.76	15150.29
610.92	15915.64
611.07	15906.28
611.23	15920.32
611.38	15234.55
611.54	14546.43
611.69	14036.19
611.84	13860.65
612.00	14307.69
612.15	14338.12
612.31	14803.89
612.46	14803.89
612.62	14499.62
612.77	14504.30
612.92	14623.67
613.08	14499.62
613.23	13752.99
613.39	13710.86
613.54	13813.84
613.69	13724.90
613.85	13968.32
614.00	13724.90
614.15	13422.97
614.31	13975.34
614.46	14054.92
614.62	14043.21
614.77	14312.38
614.92	13825.54
615.08	14047.90
615.23	14185.99
615.38	13832.57
615.54	13345.73
615.69	13088.28
615.84	12449.31
616.00	12821.45
616.15	13268.50
616.30	13008.70
616.46	12943.16
616.61	12954.87
616.76	13041.46
616.92	13645.32
617.07	13628.94
617.22	13865.33
617.37	13476.80
617.53	13294.24
617.68	13582.13
617.83	13731.92
617.99	13167.85
618.14	13303.60
618.29	13633.62
618.45	13146.79
618.60	12365.05
618.75	12781.67
618.90	12772.30
619.06	13013.38
619.21	13413.61
619.36	13249.77
619.51	13046.15
619.67	13420.63
619.82	13121.04
619.97	13301.26
620.12	13226.37
620.28	13111.68
620.43	13331.69
620.58	12980.61
620.73	13305.95
620.89	13380.84
621.04	13451.06
621.19	12807.41
621.34	12802.73
621.49	12489.10
621.65	12847.20
621.80	12243.34
621.95	12652.94
622.10	12910.40
622.25	11880.56
622.41	12163.76
622.56	12374.41
622.71	12336.96
622.86	12622.51
623.01	12671.66
623.16	12741.88
623.32	12636.55
623.47	12348.67
623.62	12418.88
623.77	12203.55
623.92	12351.01
624.07	11850.13
624.23	11864.18
624.38	12138.02
624.53	12219.94
624.68	11981.20
624.83	11775.24
624.98	11206.48
625.13	11637.14
625.29	11922.69
625.44	11698.00
625.59	11667.57
625.74	12205.89
625.89	11861.84
626.04	11679.27
626.19	11695.66
626.34	11566.93
626.49	11346.92
626.65	11346.92
626.80	11433.52
626.95	11679.27
627.10	11602.04
627.25	11321.17
627.40	10878.81
627.55	10509.01
627.70	10944.34
627.85	10745.40
628.00	10895.19
628.15	11255.64
628.30	11164.36
628.45	11026.26
628.60	10747.74
628.76	11201.80
628.91	10654.12
629.06	10998.18
629.21	10836.68
629.36	10958.39
629.51	10946.69
629.66	10937.32
629.81	10960.73
629.96	10902.22
630.11	11080.10
630.26	10679.86
630.41	10927.96
630.56	10401.34
630.71	10693.91
630.86	10312.40
631.01	10391.98
631.16	10546.45
631.31	9832.59
631.46	10207.08
631.61	10539.43
631.76	10848.38
631.91	10750.08
632.06	10890.51
632.21	11108.18
632.36	11449.90
632.51	11044.99
632.66	11356.28
632.81	10890.51
632.96	10714.97
633.10	10616.67
633.25	10682.20
633.40	10876.47
633.55	10724.33
633.70	10314.74
633.85	10083.03
634.00	10420.06
634.15	9954.30
634.30	10073.67
634.45	10087.71
634.60	10607.31
634.75	10490.28
634.90	10785.19
635.05	10441.13
635.19	10452.83
635.34	10560.50
635.49	10483.26
635.64	10284.31
635.79	10176.65
635.94	9834.93
636.09	9783.44
636.24	10097.07
636.39	9853.66
636.53	10066.64
636.68	10345.17
636.83	10520.71
636.98	10225.80
637.13	10324.10
637.28	10380.28
637.43	10471.56
637.57	10588.58
637.72	10368.57
637.87	10045.58
638.02	9811.53
638.17	10312.40
638.32	10101.75
638.46	9673.43
638.61	9582.15
638.76	9785.78
638.91	9671.09
639.06	9846.63
639.20	10113.45
639.35	10003.45
639.50	9907.49
639.65	9848.97
639.80	9968.34
639.94	9582.15
640.09	9563.43
640.24	9493.21
640.39	9820.89
640.54	9973.02
640.68	9628.96
640.83	9907.49
640.98	9722.59
641.13	9350.44
641.27	9394.91
641.42	9177.24
641.57	8849.57
641.72	9081.28
641.86	9474.49
642.01	9533.00
642.16	9860.68
642.31	9701.52
642.45	9799.82
642.60	9811.53
642.75	9430.02
642.90	9551.73
643.04	9680.46
643.19	9741.31
643.34	9348.10
643.48	9172.56
643.63	8833.18
643.78	8774.67
643.93	9256.82
644.07	8830.84
644.22	9455.76
644.37	9224.05
644.51	9219.37
644.66	9078.94
644.81	8910.42
644.95	8971.27
645.10	9158.52
645.25	9130.43
645.39	8999.36
645.54	8807.44
645.69	8622.53
645.83	8557.00
645.98	8512.53
646.13	8720.84
646.27	8982.98
646.42	8982.98
646.57	8777.01
646.71	8980.64
646.86	8772.33
647.00	8568.70
647.15	8519.55
647.30	8884.67
647.44	8961.91
647.59	8571.04
647.74	8475.08
647.88	8416.57
648.03	8119.32
648.17	8198.90
648.32	8489.12
648.47	8355.71
648.61	8217.62
648.76	7840.79
648.90	7606.74
649.05	7449.93
649.20	7613.76
649.34	7714.41
649.49	7641.85
649.63	7857.18
649.78	7918.03
649.92	8210.60
650.07	8568.70
650.21	8439.97
650.36	8173.15
650.51	8163.79
650.65	8383.80
650.80	8264.43
650.94	8025.70
651.09	7978.89
651.23	8093.57
651.38	8367.42
651.52	8304.22
651.67	8060.80
651.81	8308.90
651.96	8102.93
652.10	8145.06
652.25	7995.27
652.39	8152.09
652.54	8093.57
652.68	7936.76
652.83	8351.03
652.97	8493.80
653.12	8187.19
653.26	8250.39
653.41	8226.98
653.55	8173.15
653.70	8056.12
653.84	8432.95
653.99	8161.45
654.13	8203.58
654.27	8009.31
654.42	7681.64
654.56	7473.33
654.71	7721.43
654.85	7625.47
655.00	7896.97
655.14	7660.57
655.29	7353.96
655.43	7262.68
655.57	6963.09
655.72	6333.49
655.86	5703.89
656.01	5895.81
656.15	5806.87
656.30	6513.71
656.44	6750.10
656.58	7091.82
656.73	7103.53
656.87	7204.17
657.01	7026.29
657.16	6946.71
657.30	7325.88
657.45	7220.55
657.59	7548.23
657.73	7459.29
657.88	7765.90
658.02	7630.15
658.16	7520.14
658.31	7613.76
658.45	7918.03
658.60	7754.19
658.74	7819.73
658.88	7517.80
659.03	7454.61
659.17	7293.11
659.31	7272.04
659.46	7470.99
659.60	7632.49
659.74	7506.10
659.89	7606.74
660.03	7531.84
660.17	7515.46
660.32	7515.46
660.46	7456.95
660.60	7368.01
660.74	7030.97
660.89	7438.22
661.03	7344.60
661.17	7229.91
661.32	7307.15
661.46	7276.73
661.60	7426.52
661.74	7424.18
661.89	7461.63
662.03	7126.93
662.17	7213.53
662.31	7445.24
662.46	7459.29
662.60	7258.00
662.74	7225.23
662.88	7084.80
663.03	7108.21
663.17	7012.24
663.31	7045.01
663.45	6644.78
663.60	6869.47
663.74	6817.98
663.88	6834.36
664.02	6705.63
664.17	6705.63
664.31	6546.48
664.45	6794.58
664.59	6586.27
664.73	6834.36
664.88	6658.82
665.02	6799.26
665.16	6516.05
665.30	6633.08
665.44	6829.68
665.59	6946.71
665.73	6967.77
665.87	6832.02
666.01	6963.09
666.15	6864.79
666.29	6532.44
666.44	6623.72
666.58	6839.05
666.72	6853.09
666.86	6733.72
667.00	6445.84
667.14	6441.15
667.28	6420.09
667.43	6466.90
667.57	6368.60
667.71	6401.37
667.85	6553.50
667.99	6424.77
668.13	6640.10
668.27	6462.22
668.41	6267.95
668.56	6291.36
668.70	6356.90
668.84	6218.80
668.98	6235.19
669.12	6197.74
669.26	6342.85
669.40	6331.15
669.54	6052.63
669.68	5832.62
669.82	5753.04
669.96	5989.43
670.10	5837.30
670.25	5954.32
670.39	5944.96
670.53	5935.60
670.67	5849.00
670.81	6160.29
670.95	6221.14
671.09	6003.47
671.23	5830.27
671.37	5795.17
671.51	5781.12
671.65	5907.51
671.79	5933.26
671.93	5851.34
672.07	6015.18
672.21	5795.17
672.35	5916.87
672.49	5998.79
672.63	5937.94
672.77	5809.21
672.91	5762.40
673.05	5755.38
673.19	5703.89
673.33	5664.10
673.47	5558.77
673.61	5643.03
673.75	5294.29
673.89	5245.14
674.03	5336.42
674.17	5797.51
674.31	5970.71
674.45	5863.04
674.59	5792.83
674.73	5577.50
674.87	5486.22
675.01	5488.56
675.15	5682.82
675.29	5411.32
675.43	5224.08
675.56	5291.95
675.70	5446.43
675.84	5170.24
675.98	5252.16
676.12	5397.28
676.26	5100.03
676.40	5135.14
676.54	5556.43
676.68	5291.95
676.82	4903.42
676.96	4814.48
677.10	5275.57
677.23	5083.64
677.37	5219.39
677.51	5242.80
677.65	5282.59
677.79	5146.84
677.93	5221.74
678.07	5359.83
678.21	5160.88
678.34	5142.16
678.48	4997.04
678.62	5355.15
678.76	5214.71
678.90	5048.54
679.04	5022.79
679.18	5128.11
679.31	5046.20
679.45	4807.46
679.59	4912.78
679.73	4926.83
679.87	4685.75
680.00	4613.20
680.14	4807.46
680.28	4770.01
680.42	4624.90
680.56	4372.12
680.70	4510.21
680.83	4521.92
680.97	4514.89
681.11	4507.87
681.25	4379.14
681.39	4435.32
681.52	4472.76
681.66	4351.06
681.80	4353.40
681.94	4304.25
682.07	4542.98
682.21	4594.47
682.35	4573.41
682.49	4477.44
682.62	4507.87
682.76	4428.29
682.90	4411.91
683.04	4395.53
683.17	4154.45
683.31	4044.45
683.45	4166.15
683.59	4182.54
683.72	4304.25
683.86	3995.29
684.00	3934.44
684.13	4011.68
684.27	4219.99
684.41	3936.78
684.55	4058.49
684.68	3948.48
684.82	4091.26
684.96	3803.37
685.09	3985.93
685.23	3892.31
685.37	3868.91
685.50	3915.72
685.64	3859.54
685.78	4007.00
685.91	3669.96
686.05	3468.67
686.19	3578.68
686.32	3531.87
686.46	3000.57
686.60	2719.70
686.73	2509.05
686.87	2359.26
687.01	2160.31
687.14	2244.57
687.28	2284.36
687.42	2677.57
687.55	2869.50
687.69	3061.42
687.82	2988.86
687.96	2958.44
688.10	3059.08
688.23	3122.27
688.37	2883.54
688.50	2925.67
688.64	2775.88
688.78	2715.02
688.91	2710.34
689.05	2738.43
689.18	2736.09
689.32	2892.90
689.46	2766.51
689.59	2684.59
689.73	2745.45
689.86	2733.75
690.00	2839.07
690.13	2846.09
690.27	2932.69
690.41	2775.88
690.54	2829.71
690.68	2715.02
690.81	2883.54
690.95	2773.53
691.08	2949.08
691.22	3035.67
691.35	3002.91
691.49	3108.23
691.62	3052.06
691.76	2876.52
691.89	2857.79
692.03	2810.98
692.16	2972.48
692.30	2970.14
692.43	2871.84
692.57	2794.60
692.70	2665.87
692.84	2658.85
692.97	2874.18
693.11	2703.32
693.24	2759.49
693.38	2619.06
693.51	2530.12
693.65	2534.80
693.78	2434.16
693.92	2445.86
694.05	2649.49
694.19	2553.52
694.32	2553.52
694.45	2663.53
694.59	2583.95
694.72	2672.89
694.86	2771.19
694.99	2829.71
695.13	2750.13
695.26	2764.17
695.39	2750.13
695.53	2605.02
695.66	2478.63
695.80	2420.11
695.93	2455.22
696.07	2471.61
696.20	2370.96
696.33	2509.05
696.47	2541.82
696.60	2579.27
696.73	2558.21
696.87	2623.74
697.00	2527.78
697.14	2457.56
697.27	2366.28
697.40	2319.47
697.54	2342.88
697.67	2256.28
697.80	2275.00
697.94	2242.23
698.07	2277.34
698.21	2256.28
698.34	2401.39
698.47	2181.38
698.61	2150.95
698.74	2410.75
698.87	2303.09
699.01	2340.54
699.14	2263.30
699.27	2155.63
699.40	2256.28
699.54	2111.16
699.67	2317.13
699.80	2202.44
699.94	2279.68
700.07	2165.00
700.20	2026.90
700.34	1973.07
700.47	2076.06
700.60	2019.88
700.73	2076.06
700.87	2136.91
701.00	2050.31
701.13	1923.92
701.26	1886.47
701.40	2043.29
701.53	2078.40
701.66	2106.48
701.79	1940.30
701.93	1757.74
702.06	1849.02
702.19	1844.34
702.32	1893.49
702.46	1830.30
702.59	1856.04
702.72	1930.94
702.85	1872.43
702.99	1827.96
703.12	1830.30
703.25	1858.39
703.38	1809.23
703.51	1720.29
703.65	1764.76
703.78	1790.51
703.91	1909.88
704.04	1926.26
704.17	1874.77
704.31	1739.02
704.44	1713.27
704.57	1879.45
704.70	1734.34
704.83	1689.87
704.96	1750.72
705.10	1764.76
705.23	1715.61
>>>>>End Processed Spectral Data<<<<<
