SpectraSuite Data File
++++++++++++++++++++++++++++++++++++
Date: Mon Oct 07 14:54:54 GMT-05:00 2013
User: price-jones
Dark Spectrum Present: No
Reference Spectrum Present: No
Number of Sampled Component Spectra: 1
Spectrometers: USB2+H05261
Integration Time (usec): 10000 (USB2+H05261)
Spectra Averaged: 1 (USB2+H05261)
Boxcar Smoothing: 0 (USB2+H05261)
Correct for Electrical Dark: No (USB2+H05261)
Strobe/Lamp Enabled: No (USB2+H05261)
Correct for Detector Non-linearity: No (USB2+H05261)
Correct for Stray Light: No (USB2+H05261)
Number of Pixels in Processed Spectrum: 2048
>>>>>Begin Processed Spectral Data<<<<<
365.73	0.00
365.92	0.00
366.12	0.00
366.32	0.00
366.52	0.00
366.72	0.00
366.91	0.00
367.11	0.00
367.31	0.00
367.51	0.00
367.70	0.00
367.90	0.00
368.10	0.00
368.30	0.00
368.49	0.00
368.69	0.00
368.89	0.00
369.09	0.00
369.28	0.00
369.48	0.00
369.68	0.00
369.87	0.00
370.07	0.00
370.27	0.00
370.47	0.00
370.66	0.00
370.86	0.00
371.06	0.00
371.25	0.00
371.45	0.00
371.65	0.00
371.84	0.00
372.04	0.00
372.24	16.38
372.44	14.04
372.63	11.70
372.83	9.36
373.03	0.00
373.22	0.00
373.42	0.00
373.62	39.79
373.81	28.09
374.01	0.00
374.21	7.02
374.40	37.45
374.60	56.17
374.79	0.00
374.99	105.32
375.19	102.98
375.38	152.13
375.58	105.32
375.78	23.41
375.97	110.01
376.17	70.22
376.37	14.04
376.56	58.51
376.76	105.32
376.95	93.62
377.15	191.92
377.35	138.09
377.54	166.18
377.74	156.82
377.93	177.88
378.13	243.42
378.33	117.03
378.52	154.48
378.72	23.41
378.91	81.92
379.11	60.85
379.31	91.28
379.50	142.77
379.70	93.62
379.89	145.11
380.09	154.48
380.28	189.58
380.48	159.16
380.68	145.11
380.87	180.22
381.07	126.39
381.26	140.43
381.46	72.56
381.65	124.05
381.85	0.00
382.04	2.34
382.24	0.00
382.43	9.36
382.63	86.60
382.83	42.13
383.02	0.00
383.22	42.13
383.41	35.11
383.61	86.60
383.80	23.41
384.00	107.66
384.19	194.26
384.39	191.92
384.58	166.18
384.78	196.60
384.97	149.79
385.17	180.22
385.36	147.45
385.56	114.69
385.75	217.67
385.95	107.66
386.14	182.56
386.34	180.22
386.53	131.07
386.72	102.98
386.92	121.71
387.11	145.11
387.31	138.09
387.50	88.94
387.70	131.07
387.89	184.90
388.09	189.58
388.28	145.11
388.48	93.62
388.67	142.77
388.86	269.16
389.06	330.02
389.25	301.93
389.45	400.23
389.64	187.24
389.84	278.52
390.03	271.50
390.22	332.36
390.42	269.16
390.61	283.20
390.81	367.46
391.00	346.40
391.19	374.49
391.39	365.12
391.58	346.40
391.78	318.31
391.97	304.27
392.16	262.14
392.36	285.55
392.55	91.28
392.75	39.79
392.94	30.43
393.13	53.83
393.33	98.30
393.52	114.69
393.71	161.50
393.91	280.86
394.10	273.84
394.29	369.80
394.49	353.42
394.68	456.40
394.88	308.95
395.07	454.06
395.26	456.40
395.46	367.46
395.65	442.36
395.84	390.87
396.04	238.73
396.23	131.07
396.42	154.48
396.62	51.49
396.81	168.52
397.00	182.56
397.19	353.42
397.39	475.13
397.58	578.11
397.77	489.17
397.97	585.13
398.16	608.54
398.35	613.22
398.55	629.60
398.74	622.58
398.93	638.97
399.12	599.18
399.32	648.33
399.51	699.82
399.70	732.59
399.90	674.07
400.09	739.61
400.28	704.50
400.47	706.84
400.67	744.29
400.86	884.72
401.05	805.14
401.24	793.44
401.44	786.42
401.63	791.10
401.82	791.10
402.01	835.57
402.21	802.80
402.40	884.72
402.59	819.19
402.78	744.29
402.97	774.72
403.17	702.16
403.36	805.14
403.55	882.38
403.74	807.48
403.93	863.66
404.13	657.69
404.32	802.80
404.51	805.14
404.70	774.72
404.89	791.10
405.09	851.96
405.28	777.06
405.47	753.65
405.66	753.65
405.85	755.99
406.05	770.04
406.24	678.76
406.43	793.44
406.62	863.66
406.81	884.72
407.00	781.74
407.20	767.70
407.39	706.84
407.58	842.59
407.77	781.74
407.96	894.08
408.15	994.73
408.34	971.32
408.54	1046.22
408.73	1053.24
408.92	917.49
409.11	936.21
409.30	873.02
409.49	800.46
409.68	819.19
409.87	641.31
410.07	641.31
410.26	840.25
410.45	952.60
410.64	924.51
410.83	936.21
411.02	985.37
411.21	1001.75
411.40	1015.79
411.59	1034.52
411.78	1020.47
411.98	978.34
412.17	1025.15
412.36	1062.60
412.55	1034.52
412.74	933.87
412.93	973.66
413.12	971.32
413.31	964.30
413.50	971.32
413.69	1067.28
413.88	1001.75
414.07	947.92
414.26	1064.94
414.45	1086.01
414.64	1011.11
414.83	1109.41
415.02	936.21
415.22	1123.46
415.41	1053.24
415.60	1083.67
415.79	1074.31
415.98	1219.42
416.17	1165.59
416.36	1139.84
416.55	1069.62
416.74	1177.29
416.93	1018.13
417.12	1083.67
417.31	1149.20
417.50	1076.65
417.69	1083.67
417.88	1078.99
418.07	1128.14
418.26	1081.33
418.45	1118.78
418.64	1153.88
418.83	1139.84
419.02	1156.22
419.21	1156.22
419.39	1032.18
419.58	1074.31
419.77	990.05
419.96	1055.58
420.15	1081.33
420.34	1235.80
420.53	1198.35
420.72	1306.02
420.91	1207.72
421.10	1238.14
421.29	1261.55
421.48	1193.67
421.67	1280.27
421.86	1174.95
422.05	1132.82
422.24	1086.01
422.43	994.73
422.61	1100.05
422.80	1167.93
422.99	1219.42
423.18	1036.86
423.37	1078.99
423.56	1139.84
423.75	1165.59
423.94	1142.18
424.13	1107.07
424.32	1139.84
424.50	1193.67
424.69	1123.46
424.88	1184.31
425.07	1043.88
425.26	1104.73
425.45	1071.97
425.64	1135.16
425.83	1025.15
426.01	1088.35
426.20	1193.67
426.39	1149.20
426.58	1095.37
426.77	943.24
426.96	964.30
427.15	884.72
427.33	1027.50
427.52	1104.73
427.71	1097.71
427.90	1153.88
428.09	1118.78
428.28	1025.15
428.46	976.00
428.65	973.66
428.84	1020.47
429.03	945.58
429.22	1027.50
429.40	887.06
429.59	802.80
429.78	734.93
429.97	678.76
430.16	704.50
430.34	674.07
430.53	732.59
430.72	748.97
430.91	772.38
431.10	1025.15
431.28	1263.89
431.47	1331.76
431.66	1380.92
431.85	1214.74
432.03	1139.84
432.22	1104.73
432.41	1027.50
432.60	1210.06
432.79	1238.14
432.97	1284.95
433.16	1294.32
433.35	1196.01
433.54	1050.90
433.72	901.11
433.91	863.66
434.10	1142.18
434.28	1149.20
434.47	1259.21
434.66	1144.52
434.85	1186.65
435.03	1287.29
435.22	1266.23
435.41	1291.98
435.59	1376.24
435.78	1306.02
435.97	1476.88
436.16	1371.55
436.34	1425.39
436.53	1345.81
436.72	1394.96
436.90	1259.21
437.09	1219.42
437.28	1226.44
437.46	1401.98
437.65	1376.24
437.84	1151.54
438.02	1057.92
438.21	1036.86
438.40	1144.52
438.58	1181.97
438.77	1287.29
438.96	1331.76
439.14	1373.89
439.33	1488.58
439.52	1423.05
439.70	1549.43
439.89	1383.26
440.08	1369.21
440.26	1188.99
440.45	1252.19
440.63	1423.05
440.82	1472.20
441.01	1504.96
441.19	1441.77
441.38	1636.03
441.57	1626.67
441.75	1582.20
441.94	1568.16
442.12	1476.88
442.31	1568.16
442.50	1579.86
442.68	1575.18
442.87	1490.92
443.05	1526.03
443.24	1533.05
443.43	1537.73
443.61	1603.27
443.80	1724.97
443.98	1570.50
444.17	1458.15
444.35	1511.99
444.54	1638.38
444.73	1586.88
444.91	1715.61
445.10	1469.86
445.28	1373.89
445.47	1411.34
445.65	1490.92
445.84	1352.83
446.02	1495.60
446.21	1504.96
446.39	1638.38
446.58	1600.93
446.77	1699.23
446.95	1551.78
447.14	1757.74
447.32	1769.44
447.51	1643.06
447.69	1619.65
447.88	1598.59
448.06	1572.84
448.25	1687.53
448.43	1659.44
448.62	1624.33
448.80	1549.43
448.99	1589.22
449.17	1713.27
449.36	1537.73
449.54	1729.66
449.73	1713.27
449.91	1746.04
450.10	1844.34
450.28	1755.40
450.46	1746.04
450.65	1820.94
450.83	1823.28
451.02	1739.02
451.20	1753.06
451.39	1680.50
451.57	1724.97
451.76	1736.68
451.94	1685.19
452.13	1673.48
452.31	1732.00
452.49	1572.84
452.68	1483.90
452.86	1561.14
453.05	1572.84
453.23	1593.90
453.42	1629.01
453.60	1710.93
453.78	1633.69
453.97	1678.16
454.15	1668.80
454.34	1661.78
454.52	1666.46
454.70	1659.44
454.89	1689.87
455.07	1619.65
455.26	1750.72
455.44	1802.21
455.62	1769.44
455.81	1804.55
455.99	1781.15
456.17	1755.40
456.36	1802.21
456.54	1863.07
456.73	1870.09
456.91	1872.43
457.09	1827.96
457.28	1853.70
457.46	1860.73
457.64	1785.83
457.83	1715.61
458.01	1746.04
458.19	1626.67
458.38	1724.97
458.56	1797.53
458.74	1771.79
458.93	1717.95
459.11	1811.57
459.29	1692.21
459.48	1774.13
459.66	1788.17
459.84	1816.26
460.03	1776.47
460.21	1685.19
460.39	1811.57
460.57	1783.49
460.76	1888.81
460.94	1804.55
461.12	1792.85
461.31	1788.17
461.49	1825.62
461.67	1856.04
461.85	1888.81
462.04	1860.73
462.22	1813.92
462.40	1839.66
462.59	1930.94
462.77	1870.09
462.95	1795.19
463.13	1849.02
463.32	1872.43
463.50	1813.92
463.68	1755.40
463.86	1764.76
464.05	1750.72
464.23	1788.17
464.41	1717.95
464.59	1636.03
464.78	1727.32
464.96	1806.89
465.14	1832.64
465.32	1813.92
465.50	1851.36
465.69	1879.45
465.87	1860.73
466.05	1792.85
466.23	1734.34
466.41	1753.06
466.60	1682.85
466.78	1781.15
466.96	1619.65
467.14	1748.38
467.32	1865.41
467.51	1774.13
467.69	1673.48
467.87	1633.69
468.05	1870.09
468.23	1781.15
468.41	1762.42
468.60	1853.70
468.78	1858.39
468.96	1823.28
469.14	1919.24
469.32	1895.83
469.50	1844.34
469.69	1774.13
469.87	1790.51
470.05	1727.32
470.23	1874.77
470.41	1657.10
470.59	1629.01
470.77	1816.26
470.95	1755.40
471.14	1825.62
471.32	1736.68
471.50	1935.62
471.68	1912.22
471.86	1963.71
472.04	1856.04
472.22	1907.54
472.40	1849.02
472.58	1804.55
472.77	1755.40
472.95	1816.26
473.13	1944.99
473.31	1825.62
473.49	1795.19
473.67	1865.41
473.85	1930.94
474.03	2036.27
474.21	1921.58
474.39	2069.03
474.57	2045.63
474.75	2017.54
474.93	1933.28
475.12	1914.56
475.30	1998.82
475.48	2003.50
475.66	2076.06
475.84	1909.88
476.02	1914.56
476.20	1937.96
476.38	1914.56
476.56	2031.58
476.74	1987.11
476.92	1984.77
477.10	2087.76
477.28	2071.37
477.46	2094.78
477.64	2162.66
477.82	2106.48
478.00	2099.46
478.18	2031.58
478.36	2235.21
478.54	2183.72
478.72	2225.85
478.90	2260.96
479.08	2204.78
479.26	2387.35
479.44	2331.17
479.62	2202.44
479.80	2286.70
479.98	2296.07
480.16	2349.90
480.34	2223.51
480.52	2305.43
480.70	2396.71
480.88	2335.85
481.06	2296.07
481.24	2368.62
481.41	2385.01
481.59	2441.18
481.77	2497.35
481.95	2579.27
482.13	2352.24
482.31	2429.48
482.49	2497.35
482.67	2399.05
482.85	2445.86
483.03	2513.74
483.21	2443.52
483.39	2445.86
483.57	2483.31
483.74	2396.71
483.92	2614.38
484.10	2417.77
484.28	2516.08
484.46	2672.89
484.64	2661.19
484.82	2532.46
485.00	2483.31
485.18	2583.95
485.35	2396.71
485.53	2181.38
485.71	1973.07
485.89	2038.61
486.07	2054.99
486.25	2298.41
486.43	2356.92
486.61	2392.03
486.78	2410.75
486.96	2417.77
487.14	2583.95
487.32	2668.21
487.50	2586.29
487.68	2761.83
487.85	2810.98
488.03	2663.53
488.21	2801.62
488.39	2663.53
488.57	2612.04
488.75	2757.15
488.92	2813.32
489.10	2883.54
489.28	3054.40
489.46	3129.30
489.64	3052.06
489.81	3082.49
489.99	3000.57
490.17	3108.23
490.35	3122.27
490.53	2979.50
490.70	3030.99
490.88	3007.59
491.06	3042.70
491.24	3173.77
491.41	3028.65
491.59	2675.23
491.77	2913.97
491.95	2775.88
492.13	3105.89
492.30	3073.12
492.48	3117.59
492.66	3328.24
492.84	3358.67
493.01	3260.37
493.19	3183.13
493.37	3178.45
493.54	3045.04
493.72	3222.92
493.90	3246.32
494.08	3321.22
494.25	3356.33
494.43	3356.33
494.61	3475.70
494.79	3508.46
494.96	3424.20
495.14	3407.82
495.32	3164.40
495.49	3133.98
495.67	3295.47
495.85	3389.10
496.02	3478.04
496.20	3452.29
496.38	3293.13
496.55	3508.46
496.73	3403.14
496.91	3496.76
497.09	3641.87
497.26	3637.19
497.44	3548.25
497.62	3419.52
497.79	3325.90
497.97	3213.56
498.14	3136.32
498.32	3255.69
498.50	3384.41
498.67	3513.14
498.85	3658.26
499.03	3480.38
499.20	3478.04
499.38	3779.97
499.56	3529.53
499.73	3571.66
499.91	3342.28
500.08	3356.33
500.26	3290.79
500.44	3302.50
500.61	3578.68
500.79	3414.84
500.97	3440.59
501.14	3389.10
501.32	3339.94
501.49	3332.92
501.67	3445.27
501.84	3368.03
502.02	3487.40
502.20	3405.48
502.37	3585.70
502.55	3499.10
502.72	3548.25
502.90	3611.45
503.07	3632.51
503.25	3611.45
503.43	3398.46
503.60	3417.18
503.78	3274.41
503.95	3311.86
504.13	3375.05
504.30	3679.32
504.48	3583.36
504.65	3440.59
504.83	3471.01
505.01	3637.19
505.18	3707.41
505.36	3831.46
505.53	3723.79
505.71	3761.24
505.88	3831.46
506.06	3716.77
506.23	3644.21
506.41	3531.87
506.58	3742.52
506.76	3485.06
506.93	3719.11
507.11	3485.06
507.28	3501.44
507.46	3590.38
507.63	3426.54
507.81	3442.93
507.98	3412.50
508.16	3555.27
508.33	3524.85
508.50	3700.39
508.68	3716.77
508.85	3782.31
509.03	3850.18
509.20	3660.60
509.38	3644.21
509.55	3606.77
509.73	3627.83
509.90	3637.19
510.08	3784.65
510.25	3674.64
510.42	3620.81
510.60	3571.66
510.77	3529.53
510.95	3761.24
511.12	3815.07
511.30	3808.05
511.47	3824.44
511.64	3850.18
511.82	3637.19
511.99	3751.88
512.17	3630.17
512.34	3646.55
512.51	3405.48
512.69	3496.76
512.86	3669.96
513.04	3627.83
513.21	3641.87
513.38	3466.33
513.56	3506.12
513.73	3342.28
513.90	3496.76
514.08	3503.78
514.25	3672.30
514.43	3501.44
514.60	3644.21
514.77	3585.70
514.95	3651.24
515.12	3637.19
515.29	3644.21
515.47	3676.98
515.64	3662.94
515.81	3662.94
515.99	3623.15
516.16	3435.91
516.33	3180.79
516.51	2956.10
516.68	2918.65
516.85	2775.88
517.03	2911.63
517.20	3213.56
517.37	3543.57
517.54	3641.87
517.72	3419.52
517.89	3318.88
518.06	2963.12
518.24	3059.08
518.41	3218.24
518.58	3424.20
518.75	3452.29
518.93	3447.61
519.10	3501.44
519.27	3421.86
519.45	3529.53
519.62	3588.04
519.79	3721.45
519.96	3723.79
520.14	3588.04
520.31	3613.79
520.48	3412.50
520.65	3527.19
520.83	3651.24
521.00	3723.79
521.17	3559.95
521.34	3438.25
521.52	3637.19
521.69	3707.41
521.86	3744.86
522.03	3822.09
522.20	3379.73
522.38	3417.18
522.55	3473.36
522.72	3548.25
522.89	3492.08
523.07	3485.06
523.24	3564.64
523.41	3686.34
523.58	3754.22
523.75	3831.46
523.92	3770.60
524.10	3779.97
524.27	3705.07
524.44	3655.92
524.61	3606.77
524.78	3569.32
524.96	3569.32
525.13	3742.52
525.30	3674.64
525.47	3824.44
525.64	3651.24
525.81	3646.55
525.98	3393.78
526.16	3213.56
526.33	3143.34
526.50	3148.02
526.67	3108.23
526.84	3077.80
527.01	3321.22
527.18	3372.71
527.36	3538.89
527.53	3499.10
527.70	3812.73
527.87	3534.21
528.04	3410.16
528.21	3613.79
528.38	3634.85
528.55	3822.09
528.72	3873.59
528.89	3775.28
529.07	3761.24
529.24	3637.19
529.41	3707.41
529.58	3466.33
529.75	3492.08
529.92	3592.72
530.09	3660.60
530.26	3712.09
530.43	3824.44
530.60	3803.37
530.77	3735.50
530.94	3782.31
531.11	3719.11
531.28	3609.11
531.46	3599.74
531.63	3669.96
531.80	3515.48
531.97	3456.97
532.14	3592.72
532.31	3286.11
532.48	3293.13
532.65	3318.88
532.82	3386.76
532.99	3337.60
533.16	3597.40
533.33	3726.13
533.50	3550.59
533.67	3513.14
533.84	3482.72
534.01	3517.83
534.18	3527.19
534.35	3517.83
534.52	3625.49
534.69	3503.78
534.86	3555.27
535.03	3660.60
535.20	3730.81
535.37	3702.73
535.54	3669.96
535.71	3728.47
535.88	3728.47
536.05	3611.45
536.22	3538.89
536.38	3478.04
536.55	3363.35
536.72	3300.16
536.89	3339.94
537.06	3466.33
537.23	3552.93
537.40	3609.11
537.57	3588.04
537.74	3454.63
537.91	3569.32
538.08	3531.87
538.25	3417.18
538.42	3517.83
538.59	3499.10
538.75	3372.71
538.92	3396.12
539.09	3471.01
539.26	3335.26
539.43	3400.80
539.60	3323.56
539.77	3314.20
539.94	3510.80
540.11	3274.41
540.28	3260.37
540.44	3370.37
540.61	3403.14
540.78	3213.56
540.95	3183.13
541.12	3335.26
541.29	3382.07
541.46	3496.76
541.62	3529.53
541.79	3494.42
541.96	3478.04
542.13	3482.72
542.30	3391.44
542.47	3433.57
542.63	3314.20
542.80	3370.37
542.97	3377.39
543.14	3339.94
543.31	3365.69
543.48	3426.54
543.64	3492.08
543.81	3508.46
543.98	3538.89
544.15	3431.23
544.32	3377.39
544.48	3311.86
544.65	3428.88
544.82	3562.30
544.99	3417.18
545.16	3251.00
545.32	3272.07
545.49	3386.76
545.66	3611.45
545.83	3419.52
546.00	3440.59
546.16	3403.14
546.33	3382.07
546.50	3328.24
546.67	3522.51
546.83	3431.23
547.00	3393.78
547.17	3236.96
547.34	3136.32
547.50	3192.49
547.67	3400.80
547.84	3424.20
548.00	3405.48
548.17	3370.37
548.34	3286.11
548.51	3527.19
548.67	3398.46
548.84	3361.01
549.01	3349.31
549.18	3318.88
549.34	3332.92
549.51	3480.38
549.68	3225.26
549.84	3307.18
550.01	3164.40
550.18	3279.09
550.34	3349.31
550.51	3300.16
550.68	3342.28
550.84	3283.77
551.01	3225.26
551.18	3148.02
551.34	3307.18
551.51	3258.03
551.68	3396.12
551.84	3309.52
552.01	3260.37
552.18	3255.69
552.34	3253.34
552.51	3176.11
552.68	3115.25
552.84	3183.13
553.01	3185.47
553.18	3185.47
553.34	3213.56
553.51	3337.60
553.67	3272.07
553.84	3251.00
554.01	3243.98
554.17	3199.51
554.34	3251.00
554.51	3171.43
554.67	3389.10
554.84	3185.47
555.00	3274.41
555.17	3293.13
555.33	3290.79
555.50	3084.83
555.67	3241.64
555.83	3272.07
556.00	3232.28
556.16	3133.98
556.33	3049.72
556.50	3129.30
556.66	3059.08
556.83	3049.72
556.99	3040.36
557.16	3117.59
557.32	3159.72
557.49	3169.09
557.65	3187.81
557.82	3208.87
557.98	3171.43
558.15	3148.02
558.32	3005.25
558.48	2935.03
558.65	2899.92
558.81	2935.03
558.98	3000.57
559.14	3108.23
559.31	3021.63
559.47	3038.02
559.64	2953.76
559.80	2818.00
559.97	3033.33
560.13	2904.60
560.30	3162.06
560.46	3145.68
560.63	3047.38
560.79	3251.00
560.96	3150.36
561.12	2956.10
561.29	2878.86
561.45	2935.03
561.61	3087.17
561.78	2988.86
561.94	2937.37
562.11	2977.16
562.27	3023.97
562.44	2930.35
562.60	3030.99
562.77	3117.59
562.93	3138.66
563.10	3005.25
563.26	2810.98
563.42	2937.37
563.59	2883.54
563.75	2981.84
563.92	2920.99
564.08	2881.20
564.24	2965.46
564.41	2890.56
564.57	3040.36
564.74	2963.12
564.90	2942.05
565.07	2895.24
565.23	2876.52
565.39	2759.49
565.56	2855.45
565.72	2810.98
565.88	2792.26
566.05	2925.67
566.21	2764.17
566.38	2785.24
566.54	2799.28
566.70	2935.03
566.87	2972.48
567.03	2881.20
567.19	2853.11
567.36	2846.09
567.52	2789.92
567.68	2846.09
567.85	2808.64
568.01	2818.00
568.17	2750.13
568.34	2715.02
568.50	2743.11
568.66	2684.59
568.83	2860.13
568.99	2689.28
569.15	2834.39
569.32	2644.81
569.48	2810.98
569.64	2705.66
569.81	2605.02
569.97	2719.70
570.13	2757.15
570.30	2640.12
570.46	2640.12
570.62	2602.68
570.78	2572.25
570.95	2670.55
571.11	2605.02
571.27	2527.78
571.43	2696.30
571.60	2794.60
571.76	2864.82
571.92	2712.68
572.09	2834.39
572.25	2757.15
572.41	2743.11
572.57	2761.83
572.74	2569.91
572.90	2712.68
573.06	2635.44
573.22	2829.71
573.38	2778.22
573.55	2668.21
573.71	2799.28
573.87	2679.91
574.03	2623.74
574.20	2733.75
574.36	2628.42
574.52	2698.64
574.68	2551.18
574.84	2586.29
575.01	2586.29
575.17	2534.80
575.33	2555.86
575.49	2525.44
575.65	2612.04
575.82	2609.70
575.98	2459.90
576.14	2677.57
576.30	2579.27
576.46	2588.63
576.62	2572.25
576.79	2511.39
576.95	2551.18
577.11	2649.49
577.27	2628.42
577.43	2600.34
577.59	2497.35
577.75	2544.16
577.92	2389.69
578.08	2520.76
578.24	2502.03
578.40	2553.52
578.56	2539.48
578.72	2539.48
578.88	2572.25
579.04	2619.06
579.21	2593.31
579.37	2597.99
579.53	2600.34
579.69	2509.05
579.85	2586.29
580.01	2450.54
580.17	2560.55
580.33	2459.90
580.49	2466.92
580.65	2487.99
580.82	2555.86
580.98	2579.27
581.14	2593.31
581.30	2590.97
581.46	2626.08
581.62	2511.39
581.78	2567.57
581.94	2595.65
582.10	2600.34
582.26	2649.49
582.42	2541.82
582.58	2523.10
582.74	2516.08
582.90	2441.18
583.06	2527.78
583.22	2527.78
583.38	2628.42
583.54	2469.27
583.70	2473.95
583.86	2710.34
584.02	2562.89
584.18	2490.33
584.34	2534.80
584.50	2422.45
584.66	2401.39
584.82	2450.54
584.98	2399.05
585.14	2483.31
585.30	2368.62
585.46	2370.96
585.62	2345.22
585.78	2349.90
585.94	2373.30
586.10	2354.58
586.26	2363.94
586.42	2373.30
586.58	2441.18
586.74	2415.43
586.90	2441.18
587.06	2422.45
587.22	2312.45
587.38	2455.22
587.54	2429.48
587.70	2328.83
587.86	2277.34
588.02	2335.85
588.18	2256.28
588.34	2223.51
588.49	1949.67
588.65	1923.92
588.81	1888.81
588.97	1952.01
589.13	1914.56
589.29	1898.17
589.45	1991.80
589.61	2064.35
589.77	2083.08
589.93	2214.15
590.08	2246.91
590.24	2237.55
590.40	2375.64
590.56	2263.30
590.72	2366.28
590.88	2165.00
591.04	2218.83
591.20	2139.25
591.35	2188.40
591.51	2132.23
591.67	2062.01
591.83	2218.83
591.99	2162.66
592.15	2214.15
592.31	2307.77
592.46	2256.28
592.62	2127.55
592.78	2207.13
592.94	2239.89
593.10	2289.04
593.26	2284.36
593.41	2263.30
593.57	2125.21
593.73	2230.53
593.89	2214.15
594.05	2244.57
594.20	2179.04
594.36	2132.23
594.52	1970.73
594.68	2090.10
594.84	2078.40
594.99	2090.10
595.15	2111.16
595.31	2218.83
595.47	2104.14
595.62	2207.13
595.78	2132.23
595.94	2172.02
596.10	2172.02
596.25	2155.63
596.41	2214.15
596.57	2019.88
596.73	2111.16
596.88	2150.95
597.04	2200.10
597.20	2153.29
597.36	2148.61
597.51	2085.42
597.67	1959.03
597.83	2172.02
597.99	2181.38
598.14	2012.86
598.30	2104.14
598.46	2078.40
598.61	2127.55
598.77	2033.93
598.93	2174.36
599.09	2111.16
599.24	2267.98
599.40	2073.71
599.56	2071.37
599.71	2113.50
599.87	2129.89
600.03	2057.33
600.18	2125.21
600.34	2069.03
600.50	1980.09
600.65	2127.55
600.81	2120.53
600.97	2071.37
601.12	1989.46
601.28	2132.23
601.44	2005.84
601.59	2010.52
601.75	2071.37
601.91	2031.58
602.06	1987.11
602.22	2080.74
602.37	2050.31
602.53	2024.56
602.69	2225.85
602.84	2045.63
603.00	2090.10
603.16	1926.26
603.31	2101.80
603.47	2038.61
603.62	2047.97
603.78	1996.48
603.94	1973.07
604.09	2008.18
604.25	2050.31
604.40	2073.71
604.56	1975.41
604.71	1959.03
604.87	2101.80
605.03	1961.37
605.18	1994.14
605.34	1956.69
605.49	1998.82
605.65	2038.61
605.80	1893.49
605.96	2047.97
606.12	2022.22
606.27	1874.77
606.43	1975.41
606.58	1919.24
606.74	2001.16
606.89	2069.03
607.05	1881.79
607.20	2031.58
607.36	2026.90
607.51	1898.17
607.67	1947.33
607.82	1961.37
607.98	1963.71
608.13	1879.45
608.29	1963.71
608.44	1898.17
608.60	1998.82
608.75	1846.68
608.91	1818.60
609.06	1827.96
609.22	1888.81
609.37	1830.30
609.53	1898.17
609.68	1785.83
609.84	1895.83
609.99	1846.68
610.15	1834.98
610.30	1830.30
610.46	1893.49
610.61	1872.43
610.76	1961.37
610.92	1982.43
611.07	1963.71
611.23	1909.88
611.38	1870.09
611.54	1879.45
611.69	1811.57
611.84	1776.47
612.00	1881.79
612.15	1884.13
612.31	1764.76
612.46	1811.57
612.62	1881.79
612.77	1636.03
612.92	1746.04
613.08	1732.00
613.23	1834.98
613.39	1760.08
613.54	1732.00
613.69	1708.59
613.85	1680.50
614.00	1654.76
614.15	1755.40
614.31	1708.59
614.46	1666.46
614.62	1729.66
614.77	1743.70
614.92	1846.68
615.08	1720.29
615.23	1739.02
615.38	1689.87
615.54	1626.67
615.69	1650.08
615.84	1577.52
616.00	1619.65
616.15	1661.78
616.30	1682.85
616.46	1598.59
616.61	1589.22
616.76	1533.05
616.92	1724.97
617.07	1673.48
617.22	1659.44
617.37	1671.14
617.53	1708.59
617.68	1832.64
617.83	1727.32
617.99	1797.53
618.14	1797.53
618.29	1783.49
618.45	1682.85
618.60	1631.35
618.75	1603.27
618.90	1636.03
619.06	1591.56
619.21	1647.74
619.36	1706.25
619.51	1633.69
619.67	1633.69
619.82	1671.14
619.97	1687.53
620.12	1633.69
620.28	1612.63
620.43	1610.29
620.58	1589.22
620.73	1715.61
620.89	1666.46
621.04	1603.27
621.19	1668.80
621.34	1584.54
621.49	1596.25
621.65	1474.54
621.80	1451.13
621.95	1516.67
622.10	1624.33
622.25	1631.35
622.41	1575.18
622.56	1589.22
622.71	1589.22
622.86	1460.49
623.01	1612.63
623.16	1547.09
623.32	1500.28
623.47	1568.16
623.62	1542.41
623.77	1511.99
623.92	1469.86
624.07	1474.54
624.23	1423.05
624.38	1390.28
624.53	1495.60
624.68	1551.78
624.83	1350.49
624.98	1516.67
625.13	1488.58
625.29	1451.13
625.44	1430.07
625.59	1430.07
625.74	1502.62
625.89	1502.62
626.04	1453.47
626.19	1465.18
626.34	1558.80
626.49	1430.07
626.65	1364.53
626.80	1369.21
626.95	1458.15
627.10	1467.52
627.25	1416.02
627.40	1366.87
627.55	1369.21
627.70	1350.49
627.85	1256.87
628.00	1406.66
628.15	1416.02
628.30	1394.96
628.45	1418.36
628.60	1411.34
628.76	1530.71
628.91	1474.54
629.06	1343.47
629.21	1430.07
629.36	1348.15
629.51	1242.82
629.66	1301.34
629.81	1320.06
629.96	1282.61
630.11	1420.71
630.26	1371.55
630.41	1357.51
630.56	1409.00
630.71	1387.94
630.86	1301.34
631.01	1371.55
631.16	1289.64
631.31	1296.66
631.46	1219.42
631.61	1376.24
631.76	1310.70
631.91	1385.60
632.06	1329.42
632.21	1378.58
632.36	1474.54
632.51	1371.55
632.66	1291.98
632.81	1376.24
632.96	1348.15
633.10	1336.45
633.25	1364.53
633.40	1317.72
633.55	1296.66
633.70	1245.16
633.85	1221.76
634.00	1364.53
634.15	1299.00
634.30	1254.53
634.45	1310.70
634.60	1296.66
634.75	1357.51
634.90	1320.06
635.05	1329.42
635.19	1256.87
635.34	1284.95
635.49	1233.46
635.64	1263.89
635.79	1317.72
635.94	1291.98
636.09	1357.51
636.24	1203.04
636.39	1268.57
636.53	1315.38
636.68	1242.82
636.83	1282.61
636.98	1266.23
637.13	1231.12
637.28	1259.21
637.43	1275.59
637.57	1240.48
637.72	1270.91
637.87	1324.74
638.02	1343.47
638.17	1362.19
638.32	1294.32
638.46	1299.00
638.61	1210.06
638.76	1334.11
638.91	1284.95
639.06	1184.31
639.20	1273.25
639.35	1221.76
639.50	1193.67
639.65	1256.87
639.80	1210.06
639.94	1240.48
640.09	1217.08
640.24	1196.01
640.39	1282.61
640.54	1128.14
640.68	1163.25
640.83	1186.65
640.98	1111.75
641.13	1132.82
641.27	1104.73
641.42	1111.75
641.57	1221.76
641.72	1146.86
641.86	1153.88
642.01	1160.91
642.16	1221.76
642.31	1284.95
642.45	1153.88
642.60	1163.25
642.75	1177.29
642.90	1198.35
643.04	1142.18
643.19	1137.50
643.34	1104.73
643.48	1100.05
643.63	1116.44
643.78	1050.90
643.93	1036.86
644.07	1142.18
644.22	1125.80
644.37	1163.25
644.51	1200.69
644.66	1074.31
644.81	1114.10
644.95	1046.22
645.10	1088.35
645.25	1093.03
645.39	1151.54
645.54	1153.88
645.69	1036.86
645.83	1060.26
645.98	1100.05
646.13	1163.25
646.27	1158.57
646.42	1076.65
646.57	1130.48
646.71	1081.33
646.86	1025.15
647.00	1029.84
647.15	1071.97
647.30	1107.07
647.44	1062.60
647.59	1074.31
647.74	863.66
647.88	1013.45
648.03	957.28
648.17	1062.60
648.32	1015.79
648.47	1041.54
648.61	1039.20
648.76	1039.20
648.90	978.34
649.05	957.28
649.20	945.58
649.34	922.17
649.49	1020.47
649.63	1015.79
649.78	964.30
649.92	983.02
650.07	997.07
650.21	1107.07
650.36	1043.88
650.51	971.32
650.65	1097.71
650.80	1137.50
650.94	1053.24
651.09	983.02
651.23	1034.52
651.38	936.21
651.52	922.17
651.67	990.05
651.81	912.81
651.96	990.05
652.10	1029.84
652.25	936.21
652.39	1055.58
652.54	1039.20
652.68	980.68
652.83	1011.11
652.97	987.71
653.12	994.73
653.26	1076.65
653.41	1043.88
653.55	994.73
653.70	1027.50
653.84	980.68
653.99	1100.05
654.13	889.40
654.27	929.19
654.42	964.30
654.56	931.53
654.71	894.08
654.85	863.66
655.00	896.43
655.14	903.45
655.29	919.83
655.43	877.70
655.57	837.91
655.72	753.65
655.86	695.14
656.01	657.69
656.15	582.79
656.30	770.04
656.44	755.99
656.58	741.95
656.73	786.42
656.87	763.01
657.01	798.12
657.16	842.59
657.30	835.57
657.45	896.43
657.59	873.02
657.73	910.47
657.88	936.21
658.02	997.07
658.16	784.08
658.31	830.89
658.45	919.83
658.60	917.49
658.74	870.68
658.88	823.87
659.03	791.10
659.17	875.36
659.31	856.64
659.46	823.87
659.60	917.49
659.74	856.64
659.89	901.11
660.03	903.45
660.17	957.28
660.32	971.32
660.46	840.25
660.60	884.72
660.74	915.15
660.89	882.38
661.03	922.17
661.17	961.96
661.32	870.68
661.46	821.53
661.60	936.21
661.74	891.74
661.89	919.83
662.03	894.08
662.17	856.64
662.31	861.32
662.46	894.08
662.60	884.72
662.74	805.14
662.88	809.83
663.03	891.74
663.17	791.10
663.31	741.95
663.45	823.87
663.60	873.02
663.74	767.70
663.88	816.85
664.02	725.57
664.17	821.53
664.31	800.46
664.45	807.48
664.59	861.32
664.73	887.06
664.88	898.77
665.02	755.99
665.16	936.21
665.30	903.45
665.44	758.33
665.59	802.80
665.73	746.63
665.87	774.72
666.01	788.76
666.15	816.85
666.29	758.33
666.44	744.29
666.58	814.51
666.72	765.36
666.86	786.42
667.00	837.91
667.14	802.80
667.28	720.88
667.43	744.29
667.57	800.46
667.71	777.06
667.85	741.95
667.99	744.29
668.13	788.76
668.27	734.93
668.41	774.72
668.56	723.23
668.70	755.99
668.84	737.27
668.98	741.95
669.12	725.57
669.26	716.20
669.40	732.59
669.54	676.41
669.68	699.82
669.82	732.59
669.96	713.86
670.10	784.08
670.25	730.25
670.39	617.90
670.53	685.78
670.67	744.29
670.81	732.59
670.95	763.01
671.09	779.40
671.23	718.54
671.37	629.60
671.51	688.12
671.65	805.14
671.79	763.01
671.93	690.46
672.07	716.20
672.21	608.54
672.35	699.82
672.49	650.67
672.63	699.82
672.77	730.25
672.91	629.60
673.05	657.69
673.19	620.24
673.33	704.50
673.47	610.88
673.61	585.13
673.75	653.01
673.89	706.84
674.03	629.60
674.17	638.97
674.31	631.94
674.45	653.01
674.59	575.77
674.73	620.24
674.87	634.29
675.01	568.75
675.15	638.97
675.29	585.13
675.43	678.76
675.56	641.31
675.70	664.71
675.84	608.54
675.98	627.26
676.12	608.54
676.26	589.82
676.40	629.60
676.54	566.41
676.68	594.50
676.82	596.84
676.96	615.56
677.10	627.26
677.23	636.63
677.37	571.09
677.51	631.94
677.65	557.05
677.79	559.39
677.93	606.20
678.07	615.56
678.21	543.00
678.34	653.01
678.48	575.77
678.62	568.75
678.76	521.94
678.90	524.28
679.04	484.49
679.18	531.30
679.31	575.77
679.45	620.24
679.59	711.52
679.73	547.69
679.87	528.96
680.00	538.32
680.14	540.66
680.28	493.85
680.42	503.22
680.56	557.05
680.70	482.15
680.83	470.45
680.97	500.87
681.11	521.94
681.25	486.83
681.39	507.90
681.52	428.32
681.66	500.87
681.80	489.17
681.94	489.17
682.07	503.22
682.21	479.81
682.35	496.19
682.49	543.00
682.62	418.96
682.76	472.79
682.90	514.92
683.04	482.15
683.17	461.09
683.31	498.53
683.45	386.19
683.59	458.74
683.72	425.98
683.86	407.25
684.00	397.89
684.13	358.10
684.27	381.51
684.41	407.25
684.55	456.40
684.68	416.62
684.82	456.40
684.96	465.77
685.09	423.64
685.23	465.77
685.37	416.62
685.50	435.34
685.64	428.32
685.78	381.51
685.91	411.93
686.05	411.93
686.19	407.25
686.32	301.93
686.46	292.57
686.60	222.35
686.73	217.67
686.87	154.48
687.01	175.54
687.14	152.13
687.28	147.45
687.42	196.60
687.55	147.45
687.69	220.01
687.82	245.76
687.96	280.86
688.10	248.10
688.23	231.71
688.37	294.91
688.50	259.80
688.64	222.35
688.78	229.37
688.91	276.18
689.05	257.46
689.18	276.18
689.32	208.31
689.46	285.55
689.59	224.69
689.73	271.50
689.86	311.29
690.00	180.22
690.13	322.99
690.27	231.71
690.41	229.37
690.54	278.52
690.68	299.59
690.81	252.78
690.95	278.52
691.08	325.33
691.22	257.46
691.35	243.42
691.49	170.86
691.62	266.82
691.76	308.95
691.89	318.31
692.03	182.56
692.16	320.65
692.30	208.31
692.43	339.38
692.57	166.18
692.70	224.69
692.84	280.86
692.97	257.46
693.11	163.84
693.24	152.13
693.38	205.97
693.51	184.90
693.65	182.56
693.78	149.79
693.92	135.75
694.05	203.63
694.19	222.35
694.32	229.37
694.45	222.35
694.59	149.79
694.72	177.88
694.86	203.63
694.99	243.42
695.13	224.69
695.26	248.10
695.39	159.16
695.53	217.67
695.66	180.22
695.80	241.08
695.93	140.43
696.07	173.20
696.20	180.22
696.33	220.01
696.47	243.42
696.60	196.60
696.73	102.98
696.87	243.42
697.00	166.18
697.14	175.54
697.27	308.95
697.40	152.13
697.54	198.95
697.67	175.54
697.80	191.92
697.94	154.48
698.07	124.05
698.21	133.41
698.34	112.35
698.47	156.82
698.61	138.09
698.74	201.29
698.87	177.88
699.01	135.75
699.14	105.32
699.27	32.77
699.40	131.07
699.54	95.96
699.67	124.05
699.80	133.41
699.94	203.63
700.07	168.52
700.20	93.62
700.34	53.83
700.47	74.90
700.60	161.50
700.73	126.39
700.87	110.01
701.00	110.01
701.13	152.13
701.26	70.22
701.40	140.43
701.53	93.62
701.66	159.16
701.79	114.69
701.93	60.85
702.06	105.32
702.19	100.64
702.32	37.45
702.46	168.52
702.59	100.64
702.72	131.07
702.85	126.39
702.99	79.58
703.12	72.56
703.25	86.60
703.38	102.98
703.51	63.19
703.65	98.30
703.78	182.56
703.91	98.30
704.04	70.22
704.17	9.36
704.31	124.05
704.44	46.81
704.57	133.41
704.70	53.83
704.83	86.60
704.96	23.41
705.10	18.72
705.23	23.41
>>>>>End Processed Spectral Data<<<<<
