SpectraSuite Data File
++++++++++++++++++++++++++++++++++++
Date: Mon Oct 07 14:54:54 GMT-05:00 2013
User: price-jones
Dark Spectrum Present: No
Reference Spectrum Present: No
Number of Sampled Component Spectra: 1
Spectrometers: USB2+H05261
Integration Time (usec): 10000 (USB2+H05261)
Spectra Averaged: 1 (USB2+H05261)
Boxcar Smoothing: 0 (USB2+H05261)
Correct for Electrical Dark: No (USB2+H05261)
Strobe/Lamp Enabled: No (USB2+H05261)
Correct for Detector Non-linearity: No (USB2+H05261)
Correct for Stray Light: No (USB2+H05261)
Number of Pixels in Processed Spectrum: 2048
>>>>>Begin Processed Spectral Data<<<<<
365.73	0.00
365.92	0.00
366.12	0.00
366.32	0.00
366.52	0.00
366.72	0.00
366.91	0.00
367.11	0.00
367.31	0.00
367.51	0.00
367.70	0.00
367.90	0.00
368.10	0.00
368.30	0.00
368.49	0.00
368.69	0.00
368.89	0.00
369.09	0.00
369.28	0.00
369.48	0.00
369.68	0.00
369.87	0.00
370.07	0.00
370.27	0.00
370.47	0.00
370.66	0.00
370.86	0.00
371.06	0.00
371.25	16.38
371.45	4.68
371.65	0.00
371.84	0.00
372.04	0.00
372.24	0.00
372.44	0.00
372.63	18.72
372.83	35.11
373.03	7.02
373.22	0.00
373.42	9.36
373.62	0.00
373.81	51.49
374.01	39.79
374.21	0.00
374.40	0.00
374.60	39.79
374.79	46.81
374.99	72.56
375.19	65.54
375.38	46.81
375.58	98.30
375.78	180.22
375.97	58.51
376.17	112.35
376.37	72.56
376.56	88.94
376.76	170.86
376.95	189.58
377.15	220.01
377.35	189.58
377.54	194.26
377.74	184.90
377.93	227.03
378.13	163.84
378.33	196.60
378.52	147.45
378.72	180.22
378.91	119.37
379.11	72.56
379.31	84.26
379.50	124.05
379.70	121.71
379.89	145.11
380.09	205.97
380.28	203.63
380.48	180.22
380.68	255.12
380.87	161.50
381.07	114.69
381.26	72.56
381.46	9.36
381.65	25.75
381.85	102.98
382.04	49.15
382.24	25.75
382.43	77.24
382.63	0.00
382.83	53.83
383.02	32.77
383.22	9.36
383.41	0.00
383.61	67.88
383.80	58.51
384.00	44.47
384.19	112.35
384.39	194.26
384.58	149.79
384.78	170.86
384.97	91.28
385.17	194.26
385.36	77.24
385.56	161.50
385.75	145.11
385.95	182.56
386.14	229.37
386.34	301.93
386.53	124.05
386.72	208.31
386.92	128.73
387.11	203.63
387.31	145.11
387.50	224.69
387.70	131.07
387.89	182.56
388.09	180.22
388.28	257.46
388.48	163.84
388.67	196.60
388.86	241.08
389.06	255.12
389.25	353.42
389.45	320.65
389.64	330.02
389.84	348.74
390.03	322.99
390.22	379.17
390.42	313.63
390.61	372.15
390.81	330.02
391.00	430.66
391.19	435.34
391.39	369.80
391.58	423.64
391.78	388.53
391.97	287.89
392.16	290.23
392.36	184.90
392.55	138.09
392.75	60.85
392.94	0.00
393.13	32.77
393.33	81.92
393.52	128.73
393.71	180.22
393.91	229.37
394.10	248.10
394.29	395.55
394.49	332.36
394.68	444.70
394.88	489.17
395.07	500.87
395.26	411.93
395.46	388.53
395.65	355.76
395.84	325.33
396.04	276.18
396.23	170.86
396.42	170.86
396.62	88.94
396.81	159.16
397.00	264.48
397.19	358.10
397.39	404.91
397.58	526.62
397.77	620.24
397.97	638.97
398.16	617.90
398.35	753.65
398.55	645.99
398.74	777.06
398.93	805.14
399.12	617.90
399.32	629.60
399.51	734.93
399.70	814.51
399.90	744.29
400.09	763.01
400.28	723.23
400.47	856.64
400.67	837.91
400.86	898.77
401.05	837.91
401.24	849.61
401.44	889.40
401.63	793.44
401.82	772.38
402.01	896.43
402.21	814.51
402.40	842.59
402.59	800.46
402.78	704.50
402.97	681.10
403.17	821.53
403.36	912.81
403.55	926.85
403.74	903.45
403.93	819.19
404.13	716.20
404.32	725.57
404.51	800.46
404.70	926.85
404.89	894.08
405.09	840.25
405.28	954.94
405.47	791.10
405.66	842.59
405.85	758.33
406.05	727.91
406.24	760.67
406.43	887.06
406.62	973.66
406.81	917.49
407.00	755.99
407.20	786.42
407.39	819.19
407.58	807.48
407.77	959.62
407.96	1015.79
408.15	1008.77
408.34	957.28
408.54	1032.18
408.73	999.41
408.92	1062.60
409.11	1001.75
409.30	875.36
409.49	870.68
409.68	737.27
409.87	788.76
410.07	873.02
410.26	990.05
410.45	835.57
410.64	1001.75
410.83	1078.99
411.02	1039.20
411.21	1011.11
411.40	945.58
411.59	1018.13
411.78	1032.18
411.98	1088.35
412.17	1160.91
412.36	1102.39
412.55	1074.31
412.74	1095.37
412.93	1055.58
413.12	987.71
413.31	1069.62
413.50	1146.86
413.69	1235.80
413.88	1015.79
414.07	1064.94
414.26	1111.75
414.45	1055.58
414.64	1139.84
414.83	1083.67
415.02	1109.41
415.22	1081.33
415.41	1149.20
415.60	1261.55
415.79	1301.34
415.98	1158.57
416.17	1196.01
416.36	1221.76
416.55	1191.33
416.74	1118.78
416.93	1074.31
417.12	1055.58
417.31	1093.03
417.50	1277.93
417.69	1226.44
417.88	1210.06
418.07	1217.08
418.26	1214.74
418.45	1160.91
418.64	1273.25
418.83	1280.27
419.02	1334.11
419.21	1217.08
419.39	1153.88
419.58	1121.12
419.77	1132.82
419.96	1188.99
420.15	1280.27
420.34	1231.12
420.53	1343.47
420.72	1294.32
420.91	1345.81
421.10	1186.65
421.29	1291.98
421.48	1203.04
421.67	1273.25
421.86	1294.32
422.05	1212.40
422.24	1006.43
422.43	1086.01
422.61	1200.69
422.80	1207.72
422.99	1233.46
423.18	1263.89
423.37	1181.97
423.56	1165.59
423.75	1144.52
423.94	1270.91
424.13	1207.72
424.32	1174.95
424.50	1179.63
424.69	1240.48
424.88	1179.63
425.07	1224.10
425.26	1160.91
425.45	1179.63
425.64	1078.99
425.83	1158.57
426.01	1217.08
426.20	1167.93
426.39	1174.95
426.58	1181.97
426.77	1039.20
426.96	966.64
427.15	1039.20
427.33	1210.06
427.52	1165.59
427.71	1240.48
427.90	1174.95
428.09	1184.31
428.28	1097.71
428.46	1053.24
428.65	978.34
428.84	1043.88
429.03	1121.12
429.22	1043.88
429.40	987.71
429.59	905.79
429.78	753.65
429.97	795.78
430.16	755.99
430.34	793.44
430.53	781.74
430.72	784.08
430.91	863.66
431.10	1048.56
431.28	1179.63
431.47	1416.02
431.66	1488.58
431.85	1373.89
432.03	1193.67
432.22	1249.85
432.41	1118.78
432.60	1238.14
432.79	1392.62
432.97	1561.14
433.16	1369.21
433.35	1263.89
433.54	1093.03
433.72	985.37
433.91	1053.24
434.10	1167.93
434.28	1334.11
434.47	1352.83
434.66	1334.11
434.85	1338.79
435.03	1310.70
435.22	1378.58
435.41	1453.47
435.59	1504.96
435.78	1409.00
435.97	1523.69
436.16	1497.94
436.34	1537.73
436.53	1441.77
436.72	1519.01
436.90	1355.17
437.09	1205.38
437.28	1380.92
437.46	1399.64
437.65	1268.57
437.84	1294.32
438.02	1146.86
438.21	1203.04
438.40	1181.97
438.58	1338.79
438.77	1336.45
438.96	1439.43
439.14	1519.01
439.33	1589.22
439.52	1476.88
439.70	1472.20
439.89	1446.45
440.08	1390.28
440.26	1390.28
440.45	1434.75
440.63	1596.25
440.82	1664.12
441.01	1565.82
441.19	1734.34
441.38	1537.73
441.57	1673.48
441.75	1834.98
441.94	1619.65
442.12	1682.85
442.31	1692.21
442.50	1633.69
442.68	1694.55
442.87	1556.46
443.05	1650.08
443.24	1785.83
443.43	1659.44
443.61	1816.26
443.80	1846.68
443.98	1713.27
444.17	1661.78
444.35	1760.08
444.54	1863.07
444.73	1792.85
444.91	1650.08
445.10	1579.86
445.28	1533.05
445.47	1563.48
445.65	1514.33
445.84	1617.31
446.02	1570.50
446.21	1673.48
446.39	1673.48
446.58	1696.89
446.77	1685.19
446.95	1685.19
447.14	1909.88
447.32	1781.15
447.51	1809.23
447.69	1652.42
447.88	1706.25
448.06	1739.02
448.25	1713.27
448.43	1788.17
448.62	1687.53
448.80	1739.02
448.99	1746.04
449.17	1778.81
449.36	1755.40
449.54	1783.49
449.73	1919.24
449.91	1973.07
450.10	2080.74
450.28	1940.30
450.46	1879.45
450.65	2033.93
450.83	1963.71
451.02	1928.60
451.20	1975.41
451.39	1891.15
451.57	1788.17
451.76	1898.17
451.94	1881.79
452.13	1853.70
452.31	1739.02
452.49	1624.33
452.68	1645.40
452.86	1696.89
453.05	1657.10
453.23	1739.02
453.42	1668.80
453.60	1694.55
453.78	1844.34
453.97	1837.32
454.15	1771.79
454.34	1839.66
454.52	1769.44
454.70	1703.91
454.89	1746.04
455.07	1696.89
455.26	1872.43
455.44	1741.36
455.62	1935.62
455.81	1926.26
455.99	1926.26
456.17	1781.15
456.36	1884.13
456.54	1842.00
456.73	1947.33
456.91	1874.77
457.09	1888.81
457.28	1998.82
457.46	1921.58
457.64	1907.54
457.83	1902.86
458.01	1914.56
458.19	1849.02
458.38	1715.61
458.56	1947.33
458.74	1900.52
458.93	1942.64
459.11	1860.73
459.29	1970.73
459.48	1961.37
459.66	1813.92
459.84	1863.07
460.03	1858.39
460.21	1982.43
460.39	1872.43
460.57	1937.96
460.76	1975.41
460.94	1947.33
461.12	1888.81
461.31	1912.22
461.49	2050.31
461.67	1980.09
461.85	2022.22
462.04	1984.77
462.22	2139.25
462.40	2066.69
462.59	1947.33
462.77	1863.07
462.95	1968.39
463.13	1975.41
463.32	1937.96
463.50	1895.83
463.68	1891.15
463.86	1933.28
464.05	1886.47
464.23	1856.04
464.41	1778.81
464.59	1739.02
464.78	1898.17
464.96	1849.02
465.14	1851.36
465.32	1867.75
465.50	2057.33
465.69	2026.90
465.87	2029.24
466.05	1909.88
466.23	1816.26
466.41	1692.21
466.60	1853.70
466.78	1767.10
466.96	1837.32
467.14	1870.09
467.32	1898.17
467.51	1968.39
467.69	1867.75
467.87	1816.26
468.05	1987.11
468.23	1849.02
468.41	1891.15
468.60	1907.54
468.78	2010.52
468.96	1949.67
469.14	1949.67
469.32	1959.03
469.50	1811.57
469.69	1860.73
469.87	1916.90
470.05	1827.96
470.23	1818.60
470.41	1734.34
470.59	1795.19
470.77	1966.05
470.95	1942.64
471.14	2031.58
471.32	2078.40
471.50	2024.56
471.68	2136.91
471.86	2052.65
472.04	2062.01
472.22	1994.14
472.40	1944.99
472.58	1856.04
472.77	1898.17
472.95	1940.30
473.13	2062.01
473.31	2104.14
473.49	2073.71
473.67	2087.76
473.85	2012.86
474.03	2122.87
474.21	2106.48
474.39	2239.89
474.57	2087.76
474.75	2092.44
474.93	2211.81
475.12	1996.48
475.30	2059.67
475.48	2106.48
475.66	2118.18
475.84	2165.00
476.02	1975.41
476.20	2040.95
476.38	2045.63
476.56	2214.15
476.74	2216.49
476.92	2289.04
477.10	2305.43
477.28	2333.51
477.46	2228.19
477.64	2331.17
477.82	2275.00
478.00	2235.21
478.18	2293.72
478.36	2188.40
478.54	2382.67
478.72	2352.24
478.90	2319.47
479.08	2445.86
479.26	2347.56
479.44	2424.80
479.62	2438.84
479.80	2469.27
479.98	2399.05
480.16	2523.10
480.34	2443.52
480.52	2410.75
480.70	2413.09
480.88	2480.97
481.06	2619.06
481.24	2605.02
481.41	2595.65
481.59	2541.82
481.77	2595.65
481.95	2635.44
482.13	2651.83
482.31	2422.45
482.49	2562.89
482.67	2525.44
482.85	2605.02
483.03	2677.57
483.21	2614.38
483.39	2888.22
483.57	2640.12
483.74	2480.97
483.92	2696.30
484.10	2679.91
484.28	2663.53
484.46	2771.19
484.64	2801.62
484.82	2750.13
485.00	2670.55
485.18	2656.51
485.35	2518.42
485.53	2141.59
485.71	2155.63
485.89	2104.14
486.07	2249.25
486.25	2380.32
486.43	2560.55
486.61	2574.59
486.78	2602.68
486.96	2537.14
487.14	2733.75
487.32	2759.49
487.50	2995.89
487.68	2904.60
487.85	2939.71
488.03	2895.24
488.21	2979.50
488.39	2803.96
488.57	2860.13
488.75	2754.81
488.92	2850.77
489.10	3068.44
489.28	3253.34
489.46	3283.77
489.64	3393.78
489.81	3281.43
489.99	3229.94
490.17	3262.71
490.35	3363.35
490.53	3276.75
490.70	3152.70
490.88	3150.36
491.06	3300.16
491.24	3286.11
491.41	3150.36
491.59	2977.16
491.77	2764.17
491.95	3023.97
492.13	3089.51
492.30	3391.44
492.48	3447.61
492.66	3503.78
492.84	3400.80
493.01	3433.57
493.19	3283.77
493.37	3243.98
493.54	3414.84
493.72	3372.71
493.90	3581.02
494.08	3595.06
494.25	3438.25
494.43	3655.92
494.61	3669.96
494.79	3613.79
494.96	3623.15
495.14	3527.19
495.32	3503.78
495.49	3445.27
495.67	3487.40
495.85	3712.09
496.02	3737.84
496.20	3700.39
496.38	3527.19
496.55	3634.85
496.73	3730.81
496.91	3485.06
497.09	3831.46
497.26	3946.14
497.44	3791.67
497.62	3794.01
497.79	3562.30
497.97	3358.67
498.14	3421.86
498.32	3569.32
498.50	3721.45
498.67	3712.09
498.85	3700.39
499.03	3763.58
499.20	3904.01
499.38	3756.56
499.56	3742.52
499.73	3824.44
499.91	3665.28
500.08	3574.00
500.26	3475.70
500.44	3559.95
500.61	3681.66
500.79	3728.47
500.97	3482.72
501.14	3384.41
501.32	3583.36
501.49	3468.67
501.67	3543.57
501.84	3719.11
502.02	3669.96
502.20	3672.30
502.37	3592.72
502.55	3705.07
502.72	3660.60
502.90	3896.99
503.07	3831.46
503.25	3857.20
503.43	3637.19
503.60	3590.38
503.78	3426.54
503.95	3363.35
504.13	3707.41
504.30	3843.16
504.48	3815.07
504.65	3674.64
504.83	3934.44
505.01	3749.54
505.18	3964.87
505.36	3955.51
505.53	4194.24
505.71	3915.72
505.88	4105.30
506.06	3948.48
506.23	3868.91
506.41	3873.59
506.58	3801.03
506.76	3908.69
506.93	3819.75
507.11	3742.52
507.28	3873.59
507.46	3702.73
507.63	3604.42
507.81	3756.56
507.98	3576.34
508.16	3742.52
508.33	3838.48
508.50	3925.08
508.68	4079.55
508.85	4121.68
509.03	4016.36
509.20	3946.14
509.38	4004.66
509.55	3955.51
509.73	3754.22
509.90	3936.78
510.08	3927.42
510.25	3786.99
510.42	3915.72
510.60	3964.87
510.77	3892.31
510.95	4065.51
511.12	3943.80
511.30	3960.19
511.47	4140.41
511.64	4189.56
511.82	3927.42
511.99	3798.69
512.17	3740.18
512.34	3882.95
512.51	3934.44
512.69	3894.65
512.86	3847.84
513.04	3899.33
513.21	3770.60
513.38	3815.07
513.56	3761.24
513.73	3772.94
513.90	3578.68
514.08	3728.47
514.25	3674.64
514.43	3845.50
514.60	3758.90
514.77	3812.73
514.95	3831.46
515.12	3679.32
515.29	3934.44
515.47	3866.56
515.64	3985.93
515.81	3922.74
515.99	3768.26
516.16	3562.30
516.33	3297.81
516.51	3073.12
516.68	3187.81
516.85	2993.55
517.03	2902.26
517.20	3253.34
517.37	3749.54
517.54	3808.05
517.72	3758.90
517.89	3400.80
518.06	3105.89
518.24	3084.83
518.41	3496.76
518.58	3529.53
518.75	3597.40
518.93	3653.58
519.10	3742.52
519.27	3723.79
519.45	3843.16
519.62	3896.99
519.79	3908.69
519.96	4021.04
520.14	3737.84
520.31	3613.79
520.48	3602.08
520.65	3810.39
520.83	3974.23
521.00	3906.35
521.17	3875.93
521.34	3770.60
521.52	3775.28
521.69	4007.00
521.86	3960.19
522.03	3988.27
522.20	3779.97
522.38	3555.27
522.55	3691.02
522.72	3658.26
522.89	3784.65
523.07	3672.30
523.24	3730.81
523.41	3880.61
523.58	3992.95
523.75	3999.98
523.92	3974.23
524.10	4147.43
524.27	3976.57
524.44	4030.40
524.61	4002.32
524.78	3871.25
524.96	3843.16
525.13	3871.25
525.30	4037.42
525.47	4051.47
525.64	3936.78
525.81	3920.40
525.98	3648.90
526.16	3548.25
526.33	3440.59
526.50	3290.79
526.67	3204.19
526.84	3508.46
527.01	3550.59
527.18	3684.00
527.36	3712.09
527.53	3927.42
527.70	3882.95
527.87	3866.56
528.04	3742.52
528.21	3740.18
528.38	4009.34
528.55	4077.21
528.72	3934.44
528.89	4102.96
529.07	3978.91
529.24	3847.84
529.41	3786.99
529.58	3576.34
529.75	3641.87
529.92	3840.82
530.09	3941.46
530.26	3838.48
530.43	3976.57
530.60	3971.89
530.77	4100.62
530.94	3962.53
531.11	3955.51
531.28	3850.18
531.46	4018.70
531.63	4032.74
531.80	3887.63
531.97	3889.97
532.14	3653.58
532.31	3506.12
532.48	3382.07
532.65	3602.08
532.82	3550.59
532.99	3686.34
533.16	3786.99
533.33	3801.03
533.50	3929.76
533.67	3698.05
533.84	3740.18
534.01	3803.37
534.18	3779.97
534.35	3791.67
534.52	3854.86
534.69	3798.69
534.86	3936.78
535.03	3833.80
535.20	3950.82
535.37	4070.19
535.54	3990.61
535.71	3995.29
535.88	3880.61
536.05	3796.35
536.22	3845.50
536.38	3665.28
536.55	3747.20
536.72	3480.38
536.89	3627.83
537.06	3749.54
537.23	3779.97
537.40	3810.39
537.57	3843.16
537.74	3686.34
537.91	3723.79
538.08	3899.33
538.25	3742.52
538.42	3798.69
538.59	3873.59
538.75	3754.22
538.92	3564.64
539.09	3655.92
539.26	3754.22
539.43	3557.61
539.60	3653.58
539.77	3473.36
539.94	3564.64
540.11	3494.42
540.28	3412.50
540.44	3335.26
540.61	3456.97
540.78	3403.14
540.95	3564.64
541.12	3508.46
541.29	3639.53
541.46	3688.68
541.62	3782.31
541.79	3503.78
541.96	3592.72
542.13	3513.14
542.30	3763.58
542.47	3756.56
542.63	3489.74
542.80	3604.42
542.97	3492.08
543.14	3588.04
543.31	3606.77
543.48	3777.62
543.64	3812.73
543.81	3772.94
543.98	3754.22
544.15	3639.53
544.32	3676.98
544.48	3543.57
544.65	3674.64
544.82	3765.92
544.99	3749.54
545.16	3735.50
545.32	3543.57
545.49	3728.47
545.66	3758.90
545.83	3726.13
546.00	3660.60
546.16	3613.79
546.33	3737.84
546.50	3538.89
546.67	3709.75
546.83	3641.87
547.00	3606.77
547.17	3494.42
547.34	3349.31
547.50	3410.16
547.67	3555.27
547.84	3489.74
548.00	3637.19
548.17	3506.12
548.34	3566.98
548.51	3644.21
548.67	3506.12
548.84	3679.32
549.01	3588.04
549.18	3585.70
549.34	3637.19
549.51	3660.60
549.68	3538.89
549.84	3550.59
550.01	3499.10
550.18	3557.61
550.34	3454.63
550.51	3510.80
550.68	3384.41
550.84	3433.57
551.01	3424.20
551.18	3550.59
551.34	3482.72
551.51	3445.27
551.68	3632.51
551.84	3494.42
552.01	3492.08
552.18	3515.48
552.34	3372.71
552.51	3332.92
552.68	3309.52
552.84	3466.33
553.01	3438.25
553.18	3407.82
553.34	3541.23
553.51	3435.91
553.67	3684.00
553.84	3492.08
554.01	3428.88
554.17	3471.01
554.34	3520.17
554.51	3513.14
554.67	3541.23
554.84	3543.57
555.00	3494.42
555.17	3403.14
555.33	3478.04
555.50	3300.16
555.67	3255.69
555.83	3473.36
556.00	3346.97
556.16	3431.23
556.33	3356.33
556.50	3222.92
556.66	3269.73
556.83	3150.36
556.99	3325.90
557.16	3311.86
557.32	3396.12
557.49	3314.20
557.65	3400.80
557.82	3356.33
557.98	3332.92
558.15	3204.19
558.32	3105.89
558.48	3042.70
558.65	3110.57
558.81	3063.76
558.98	3087.17
559.14	3274.41
559.31	3068.44
559.47	3255.69
559.64	3126.96
559.80	3061.42
559.97	3164.40
560.13	3173.77
560.30	3398.46
560.46	3356.33
560.63	3368.03
560.79	3459.31
560.96	3318.88
561.12	3258.03
561.29	3052.06
561.45	3075.46
561.61	3110.57
561.78	3215.90
561.94	3243.98
562.11	3133.98
562.27	3075.46
562.44	3112.91
562.60	3389.10
562.77	3185.47
562.93	3211.22
563.10	3215.90
563.26	3178.45
563.42	3213.56
563.59	3185.47
563.75	3211.22
563.92	3300.16
564.08	3227.60
564.24	3248.66
564.41	3211.22
564.57	3096.53
564.74	3045.04
564.90	3201.85
565.07	3075.46
565.23	3098.87
565.39	3019.29
565.56	2946.73
565.72	2850.77
565.88	2918.65
566.05	2899.92
566.21	3052.06
566.38	3080.14
566.54	2967.80
566.70	3162.06
566.87	3152.70
567.03	3082.49
567.19	3089.51
567.36	3068.44
567.52	3073.12
567.68	3089.51
567.85	2995.89
568.01	2974.82
568.17	3082.49
568.34	2853.11
568.50	2984.18
568.66	3005.25
568.83	2967.80
568.99	2953.76
569.15	3052.06
569.32	3026.31
569.48	3005.25
569.64	3042.70
569.81	2867.16
569.97	2925.67
570.13	3035.67
570.30	2832.05
570.46	2752.47
570.62	2750.13
570.78	2717.36
570.95	2827.37
571.11	2862.48
571.27	2860.13
571.43	2918.65
571.60	2778.22
571.76	3052.06
571.92	3115.25
572.09	2869.50
572.25	3009.93
572.41	2911.63
572.57	3103.55
572.74	3005.25
572.90	2939.71
573.06	2827.37
573.22	2878.86
573.38	2981.84
573.55	2794.60
573.71	2818.00
573.87	2853.11
574.03	2827.37
574.20	2867.16
574.36	2853.11
574.52	2787.58
574.68	2904.60
574.84	2803.96
575.01	2722.04
575.17	2733.75
575.33	2757.15
575.49	2792.26
575.65	2752.47
575.82	2876.52
575.98	2775.88
576.14	2661.19
576.30	2719.70
576.46	2881.20
576.62	2698.64
576.79	2897.58
576.95	2860.13
577.11	2679.91
577.27	2890.56
577.43	2878.86
577.59	2677.57
577.75	2682.25
577.92	2780.56
578.08	2724.38
578.24	2693.96
578.40	2605.02
578.56	2689.28
578.72	2644.81
578.88	2675.23
579.04	2579.27
579.21	2590.97
579.37	2654.17
579.53	2717.36
579.69	2677.57
579.85	2857.79
580.01	2708.00
580.17	2724.38
580.33	2686.94
580.49	2710.34
580.65	2775.88
580.82	2651.83
580.98	2703.32
581.14	2764.17
581.30	2668.21
581.46	2731.41
581.62	2796.94
581.78	2810.98
581.94	2752.47
582.10	2815.66
582.26	2736.09
582.42	2647.15
582.58	2757.15
582.74	2810.98
582.90	2633.10
583.06	2761.83
583.22	2822.69
583.38	2801.62
583.54	2654.17
583.70	2740.77
583.86	2595.65
584.02	2705.66
584.18	2717.36
584.34	2700.98
584.50	2768.85
584.66	2808.64
584.82	2665.87
584.98	2745.45
585.14	2656.51
585.30	2502.03
585.46	2523.10
585.62	2565.23
585.78	2499.69
585.94	2504.37
586.10	2612.04
586.26	2696.30
586.42	2565.23
586.58	2637.78
586.74	2539.48
586.90	2626.08
587.06	2513.74
587.22	2532.46
587.38	2443.52
587.54	2595.65
587.70	2525.44
587.86	2443.52
588.02	2548.84
588.18	2401.39
588.34	2354.58
588.49	2230.53
588.65	2136.91
588.81	2069.03
588.97	2092.44
589.13	2193.08
589.29	2153.29
589.45	2127.55
589.61	2326.49
589.77	2296.07
589.93	2389.69
590.08	2312.45
590.24	2410.75
590.40	2516.08
590.56	2499.69
590.72	2380.32
590.88	2333.51
591.04	2363.94
591.20	2310.11
591.35	2314.79
591.51	2340.54
591.67	2415.43
591.83	2392.03
591.99	2312.45
592.15	2445.86
592.31	2429.48
592.46	2392.03
592.62	2443.52
592.78	2422.45
592.94	2338.20
593.10	2342.88
593.26	2431.82
593.41	2417.77
593.57	2354.58
593.73	2349.90
593.89	2270.32
594.05	2209.47
594.20	2270.32
594.36	2303.09
594.52	2190.74
594.68	2190.74
594.84	2338.20
594.99	2291.38
595.15	2275.00
595.31	2293.72
595.47	2373.30
595.62	2349.90
595.78	2200.10
595.94	2366.28
596.10	2361.60
596.25	2279.68
596.41	2246.91
596.57	2413.09
596.73	2335.85
596.88	2312.45
597.04	2239.89
597.20	2324.15
597.36	2342.88
597.51	2251.60
597.67	2214.15
597.83	2235.21
597.99	2331.17
598.14	2186.06
598.30	2275.00
598.46	2265.64
598.61	2160.31
598.77	2134.57
598.93	2256.28
599.09	2230.53
599.24	2312.45
599.40	2267.98
599.56	2253.94
599.71	2335.85
599.87	2232.87
600.03	2251.60
600.18	2293.72
600.34	2162.66
600.50	2157.97
600.65	2092.44
600.81	2228.19
600.97	2153.29
601.12	2389.69
601.28	2207.13
601.44	2153.29
601.59	2197.76
601.75	2172.02
601.91	2230.53
602.06	2232.87
602.22	2165.00
602.37	2218.83
602.53	2319.47
602.69	2286.70
602.84	2223.51
603.00	2094.78
603.16	2106.48
603.31	2303.09
603.47	2188.40
603.62	2174.36
603.78	2193.08
603.94	2237.55
604.09	2134.57
604.25	2228.19
604.40	2186.06
604.56	2106.48
604.71	2235.21
604.87	2246.91
605.03	2080.74
605.18	2122.87
605.34	2045.63
605.49	2047.97
605.65	2129.89
605.80	2186.06
605.96	2134.57
606.12	2059.67
606.27	2218.83
606.43	2043.29
606.58	2195.42
606.74	2167.34
606.89	2139.25
607.05	2118.18
607.20	2122.87
607.36	2078.40
607.51	2052.65
607.67	1947.33
607.82	2094.78
607.98	2083.08
608.13	2012.86
608.29	1963.71
608.44	2085.42
608.60	1968.39
608.75	2050.31
608.91	2036.27
609.06	2125.21
609.22	2062.01
609.37	2085.42
609.53	2099.46
609.68	2069.03
609.84	1827.96
609.99	1928.60
610.15	1996.48
610.30	1982.43
610.46	2026.90
610.61	1994.14
610.76	2071.37
610.92	2050.31
611.07	2211.81
611.23	2167.34
611.38	2073.71
611.54	2031.58
611.69	1961.37
611.84	1959.03
612.00	1984.77
612.15	2052.65
612.31	1935.62
612.46	1952.01
612.62	1933.28
612.77	1970.73
612.92	1996.48
613.08	1926.26
613.23	2033.93
613.39	1851.36
613.54	1806.89
613.69	1830.30
613.85	1790.51
614.00	1837.32
614.15	1980.09
614.31	1923.92
614.46	1860.73
614.62	1888.81
614.77	1991.80
614.92	1968.39
615.08	1844.34
615.23	1886.47
615.38	1898.17
615.54	1842.00
615.69	1767.10
615.84	1886.47
616.00	1741.36
616.15	1706.25
616.30	1830.30
616.46	1820.94
616.61	1764.76
616.76	1687.53
616.92	1727.32
617.07	1797.53
617.22	1734.34
617.37	1792.85
617.53	1935.62
617.68	1902.86
617.83	1959.03
617.99	1790.51
618.14	1851.36
618.29	1783.49
618.45	1935.62
618.60	1853.70
618.75	1696.89
618.90	1689.87
619.06	1668.80
619.21	1767.10
619.36	1706.25
619.51	1809.23
619.67	1755.40
619.82	1788.17
619.97	1703.91
620.12	1792.85
620.28	1846.68
620.43	1790.51
620.58	1844.34
620.73	1673.48
620.89	1739.02
621.04	1762.42
621.19	1811.57
621.34	1783.49
621.49	1827.96
621.65	1671.14
621.80	1767.10
621.95	1827.96
622.10	1778.81
622.25	1755.40
622.41	1614.97
622.56	1638.38
622.71	1668.80
622.86	1703.91
623.01	1561.14
623.16	1739.02
623.32	1689.87
623.47	1764.76
623.62	1746.04
623.77	1631.35
623.92	1666.46
624.07	1722.63
624.23	1652.42
624.38	1631.35
624.53	1652.42
624.68	1551.78
624.83	1568.16
624.98	1544.75
625.13	1633.69
625.29	1509.65
625.44	1607.95
625.59	1626.67
625.74	1540.07
625.89	1537.73
626.04	1563.48
626.19	1563.48
626.34	1617.31
626.49	1629.01
626.65	1516.67
626.80	1530.71
626.95	1493.26
627.10	1535.39
627.25	1582.20
627.40	1481.56
627.55	1397.30
627.70	1453.47
627.85	1409.00
628.00	1561.14
628.15	1420.71
628.30	1502.62
628.45	1462.83
628.60	1558.80
628.76	1556.46
628.91	1521.35
629.06	1453.47
629.21	1481.56
629.36	1469.86
629.51	1448.79
629.66	1465.18
629.81	1507.30
629.96	1509.65
630.11	1387.94
630.26	1483.90
630.41	1558.80
630.56	1444.11
630.71	1603.27
630.86	1416.02
631.01	1432.41
631.16	1369.21
631.31	1430.07
631.46	1504.96
631.61	1446.45
631.76	1411.34
631.91	1500.28
632.06	1507.30
632.21	1504.96
632.36	1549.43
632.51	1434.75
632.66	1493.26
632.81	1420.71
632.96	1519.01
633.10	1390.28
633.25	1348.15
633.40	1507.30
633.55	1493.26
633.70	1439.43
633.85	1336.45
634.00	1303.68
634.15	1399.64
634.30	1329.42
634.45	1341.13
634.60	1490.92
634.75	1350.49
634.90	1530.71
635.05	1401.98
635.19	1472.20
635.34	1352.83
635.49	1409.00
635.64	1270.91
635.79	1331.76
635.94	1371.55
636.09	1331.76
636.24	1270.91
636.39	1439.43
636.53	1383.26
636.68	1458.15
636.83	1277.93
636.98	1406.66
637.13	1359.85
637.28	1357.51
637.43	1371.55
637.57	1331.76
637.72	1406.66
637.87	1401.98
638.02	1350.49
638.17	1409.00
638.32	1383.26
638.46	1399.64
638.61	1472.20
638.76	1317.72
638.91	1357.51
639.06	1373.89
639.20	1280.27
639.35	1357.51
639.50	1329.42
639.65	1366.87
639.80	1296.66
639.94	1313.04
640.09	1306.02
640.24	1270.91
640.39	1282.61
640.54	1252.19
640.68	1371.55
640.83	1322.40
640.98	1306.02
641.13	1203.04
641.27	1331.76
641.42	1406.66
641.57	1352.83
641.72	1256.87
641.86	1324.74
642.01	1200.69
642.16	1235.80
642.31	1334.11
642.45	1331.76
642.60	1329.42
642.75	1282.61
642.90	1238.14
643.04	1322.40
643.19	1280.27
643.34	1310.70
643.48	1203.04
643.63	1261.55
643.78	1128.14
643.93	1217.08
644.07	1177.29
644.22	1242.82
644.37	1263.89
644.51	1203.04
644.66	1287.29
644.81	1277.93
644.95	1270.91
645.10	1247.51
645.25	1167.93
645.39	1266.23
645.54	1240.48
645.69	1151.54
645.83	1102.39
645.98	1137.50
646.13	1191.33
646.27	1249.85
646.42	1174.95
646.57	1139.84
646.71	1179.63
646.86	1081.33
647.00	1186.65
647.15	1130.48
647.30	1149.20
647.44	1188.99
647.59	1181.97
647.74	1102.39
647.88	1001.75
648.03	1135.16
648.17	1137.50
648.32	1214.74
648.47	1076.65
648.61	1107.07
648.76	1186.65
648.90	1165.59
649.05	1097.71
649.20	1029.84
649.34	1114.10
649.49	1006.43
649.63	1100.05
649.78	1130.48
649.92	1123.46
650.07	1149.20
650.21	1102.39
650.36	1156.22
650.51	1102.39
650.65	1156.22
650.80	1149.20
650.94	1062.60
651.09	999.41
651.23	1041.54
651.38	997.07
651.52	990.05
651.67	973.66
651.81	1123.46
651.96	1060.26
652.10	1170.27
652.25	1100.05
652.39	1121.12
652.54	985.37
652.68	1100.05
652.83	1139.84
652.97	1100.05
653.12	1125.80
653.26	1088.35
653.41	1086.01
653.55	1198.35
653.70	1060.26
653.84	1107.07
653.99	1041.54
654.13	980.68
654.27	1001.75
654.42	973.66
654.56	1036.86
654.71	957.28
654.85	1093.03
655.00	910.47
655.14	1034.52
655.29	1086.01
655.43	1004.09
655.57	905.79
655.72	887.06
655.86	730.25
656.01	608.54
656.15	727.91
656.30	753.65
656.44	795.78
656.58	830.89
656.73	863.66
656.87	950.26
657.01	931.53
657.16	898.77
657.30	933.87
657.45	917.49
657.59	1027.50
657.73	889.40
657.88	926.85
658.02	929.19
658.16	961.96
658.31	1006.43
658.45	973.66
658.60	983.02
658.74	929.19
658.88	929.19
659.03	912.81
659.17	957.28
659.31	964.30
659.46	947.92
659.60	985.37
659.74	1025.15
659.89	952.60
660.03	987.71
660.17	971.32
660.32	1057.92
660.46	889.40
660.60	1013.45
660.74	915.15
660.89	983.02
661.03	882.38
661.17	903.45
661.32	945.58
661.46	950.26
661.60	990.05
661.74	915.15
661.89	882.38
662.03	987.71
662.17	978.34
662.31	1043.88
662.46	1018.13
662.60	973.66
662.74	854.30
662.88	898.77
663.03	868.34
663.17	926.85
663.31	849.61
663.45	929.19
663.60	830.89
663.74	849.61
663.88	922.17
664.02	926.85
664.17	901.11
664.31	938.55
664.45	929.19
664.59	826.21
664.73	990.05
664.88	882.38
665.02	966.64
665.16	959.62
665.30	828.55
665.44	866.00
665.59	784.08
665.73	896.43
665.87	861.32
666.01	901.11
666.15	866.00
666.29	882.38
666.44	856.64
666.58	901.11
666.72	856.64
666.86	763.01
667.00	880.04
667.14	847.27
667.28	861.32
667.43	868.34
667.57	868.34
667.71	777.06
667.85	763.01
667.99	805.14
668.13	795.78
668.27	770.04
668.41	861.32
668.56	842.59
668.70	812.17
668.84	835.57
668.98	870.68
669.12	821.53
669.26	807.48
669.40	858.98
669.54	784.08
669.68	802.80
669.82	826.21
669.96	767.70
670.10	784.08
670.25	863.66
670.39	821.53
670.53	821.53
670.67	798.12
670.81	767.70
670.95	746.63
671.09	781.74
671.23	755.99
671.37	685.78
671.51	753.65
671.65	793.44
671.79	795.78
671.93	718.54
672.07	695.14
672.21	676.41
672.35	709.18
672.49	786.42
672.63	814.51
672.77	662.37
672.91	678.76
673.05	744.29
673.19	638.97
673.33	660.03
673.47	777.06
673.61	660.03
673.75	669.39
673.89	751.31
674.03	725.57
674.17	758.33
674.31	744.29
674.45	730.25
674.59	662.37
674.73	718.54
674.87	763.01
675.01	683.44
675.15	699.82
675.29	657.69
675.43	709.18
675.56	723.23
675.70	592.16
675.84	636.63
675.98	660.03
676.12	641.31
676.26	676.41
676.40	627.26
676.54	657.69
676.68	748.97
676.82	624.92
676.96	631.94
677.10	638.97
677.23	622.58
677.37	681.10
677.51	674.07
677.65	664.71
677.79	622.58
677.93	573.43
678.07	613.22
678.21	683.44
678.34	571.09
678.48	650.67
678.62	624.92
678.76	526.62
678.90	519.60
679.04	592.16
679.18	610.88
679.31	617.90
679.45	571.09
679.59	589.82
679.73	566.41
679.87	685.78
680.00	627.26
680.14	468.11
680.28	540.66
680.42	477.47
680.56	650.67
680.70	557.05
680.83	493.85
680.97	564.07
681.11	503.22
681.25	568.75
681.39	575.77
681.52	669.39
681.66	528.96
681.80	519.60
681.94	468.11
682.07	552.37
682.21	498.53
682.35	416.62
682.49	533.64
682.62	557.05
682.76	493.85
682.90	538.32
683.04	458.74
683.17	510.24
683.31	517.26
683.45	498.53
683.59	535.98
683.72	496.19
683.86	437.68
684.00	433.00
684.13	435.34
684.27	500.87
684.41	517.26
684.55	470.45
684.68	533.64
684.82	491.51
684.96	421.30
685.09	482.15
685.23	465.77
685.37	397.89
685.50	482.15
685.64	491.51
685.78	358.10
685.91	540.66
686.05	451.72
686.19	437.68
686.32	486.83
686.46	315.97
686.60	241.08
686.73	227.03
686.87	152.13
687.01	212.99
687.14	159.16
687.28	241.08
687.42	273.84
687.55	252.78
687.69	304.27
687.82	227.03
687.96	299.59
688.10	332.36
688.23	236.39
688.37	402.57
688.50	315.97
688.64	248.10
688.78	278.52
688.91	257.46
689.05	189.58
689.18	325.33
689.32	184.90
689.46	294.91
689.59	276.18
689.73	241.08
689.86	292.57
690.00	322.99
690.13	294.91
690.27	283.20
690.41	304.27
690.54	372.15
690.68	262.14
690.81	259.80
690.95	262.14
691.08	262.14
691.22	276.18
691.35	299.59
691.49	264.48
691.62	346.40
691.76	334.70
691.89	161.50
692.03	278.52
692.16	205.97
692.30	280.86
692.43	255.12
692.57	294.91
692.70	297.25
692.84	222.35
692.97	248.10
693.11	208.31
693.24	243.42
693.38	250.44
693.51	142.77
693.65	259.80
693.78	194.26
693.92	159.16
694.05	273.84
694.19	227.03
694.32	285.55
694.45	142.77
694.59	271.50
694.72	196.60
694.86	194.26
694.99	220.01
695.13	271.50
695.26	212.99
695.39	294.91
695.53	257.46
695.66	154.48
695.80	187.24
695.93	252.78
696.07	154.48
696.20	184.90
696.33	271.50
696.47	280.86
696.60	210.65
696.73	250.44
696.87	184.90
697.00	266.82
697.14	168.52
697.27	222.35
697.40	177.88
697.54	161.50
697.67	112.35
697.80	273.84
697.94	187.24
698.07	191.92
698.21	149.79
698.34	271.50
698.47	173.20
698.61	149.79
698.74	161.50
698.87	194.26
699.01	168.52
699.14	166.18
699.27	191.92
699.40	161.50
699.54	142.77
699.67	100.64
699.80	135.75
699.94	203.63
700.07	102.98
700.20	110.01
700.34	117.03
700.47	142.77
700.60	222.35
700.73	163.84
700.87	119.37
701.00	98.30
701.13	133.41
701.26	133.41
701.40	131.07
701.53	128.73
701.66	177.88
701.79	121.71
701.93	159.16
702.06	107.66
702.19	170.86
702.32	100.64
702.46	177.88
702.59	112.35
702.72	159.16
702.85	100.64
702.99	100.64
703.12	159.16
703.25	128.73
703.38	98.30
703.51	107.66
703.65	126.39
703.78	16.38
703.91	86.60
704.04	191.92
704.17	138.09
704.31	102.98
704.44	93.62
704.57	177.88
704.70	74.90
704.83	44.47
704.96	126.39
705.10	58.51
705.23	39.79
>>>>>End Processed Spectral Data<<<<<
