SpectraSuite Data File
++++++++++++++++++++++++++++++++++++
Date: Mon Oct 07 14:54:58 GMT-05:00 2013
User: price-jones
Dark Spectrum Present: No
Reference Spectrum Present: No
Number of Sampled Component Spectra: 1
Spectrometers: USB2+H05261
Integration Time (usec): 10000 (USB2+H05261)
Spectra Averaged: 1 (USB2+H05261)
Boxcar Smoothing: 0 (USB2+H05261)
Correct for Electrical Dark: No (USB2+H05261)
Strobe/Lamp Enabled: No (USB2+H05261)
Correct for Detector Non-linearity: No (USB2+H05261)
Correct for Stray Light: No (USB2+H05261)
Number of Pixels in Processed Spectrum: 2048
>>>>>Begin Processed Spectral Data<<<<<
365.73	0.00
365.92	0.00
366.12	0.00
366.32	0.00
366.52	0.00
366.72	0.00
366.91	0.00
367.11	0.00
367.31	0.00
367.51	0.00
367.70	0.00
367.90	0.00
368.10	0.00
368.30	0.00
368.49	0.00
368.69	0.00
368.89	0.00
369.09	0.00
369.28	0.00
369.48	0.00
369.68	0.00
369.87	0.00
370.07	0.00
370.27	0.00
370.47	105.32
370.66	1448.79
370.86	1710.93
371.06	1811.57
371.25	1778.81
371.45	1572.84
371.65	1462.83
371.84	1481.56
372.04	1591.56
372.24	1715.61
372.44	1694.55
372.63	1678.16
372.83	1483.90
373.03	1287.29
373.22	1371.55
373.42	1411.34
373.62	1633.69
373.81	1776.47
374.01	1708.59
374.21	1469.86
374.40	1458.15
374.60	1474.54
374.79	1844.34
374.99	1975.41
375.19	2015.20
375.38	2111.16
375.58	1968.39
375.78	2064.35
375.97	2003.50
376.17	2015.20
376.37	2087.76
376.56	2246.91
376.76	2331.17
376.95	2576.93
377.15	2633.10
377.35	2719.70
377.54	2806.30
377.74	3002.91
377.93	2794.60
378.13	2715.02
378.33	2602.68
378.52	2307.77
378.72	2368.62
378.91	2284.36
379.11	2186.06
379.31	2249.25
379.50	2251.60
379.70	2424.80
379.89	2567.57
380.09	2808.64
380.28	2874.18
380.48	2841.41
380.68	2757.15
380.87	2630.76
381.07	2363.94
381.26	2275.00
381.46	2132.23
381.65	2132.23
381.85	2073.71
382.04	1802.21
382.24	1680.50
382.43	1549.43
382.63	1652.42
382.83	1584.54
383.02	1736.68
383.22	1710.93
383.41	1682.85
383.61	1820.94
383.80	2242.23
384.00	2413.09
384.19	2712.68
384.39	2862.48
384.58	2764.17
384.78	2567.57
384.97	2609.70
385.17	2492.67
385.36	2382.67
385.56	2265.64
385.75	2464.58
385.95	2764.17
386.14	2839.07
386.34	2841.41
386.53	2803.96
386.72	2513.74
386.92	2693.96
387.11	2782.90
387.31	2857.79
387.50	2813.32
387.70	2628.42
387.89	2724.38
388.09	2724.38
388.28	2665.87
388.48	2778.22
388.67	3070.78
388.86	3417.18
389.06	3660.60
389.25	3702.73
389.45	3775.28
389.64	3758.90
389.84	3798.69
390.03	3611.45
390.22	3684.00
390.42	3885.29
390.61	4128.70
390.81	4407.23
391.00	4416.59
391.19	4283.18
391.39	4294.88
391.58	3861.88
391.78	3737.84
391.97	3562.30
392.16	3332.92
392.36	2911.63
392.55	2286.70
392.75	1755.40
392.94	1519.01
393.13	1614.97
393.33	1977.75
393.52	2495.01
393.71	3040.36
393.91	3375.05
394.10	3737.84
394.29	4124.02
394.49	4379.14
394.68	4774.69
394.88	4636.60
395.07	4858.95
395.26	4777.03
395.46	4454.04
395.65	4107.64
395.84	3501.44
396.04	2979.50
396.23	2363.94
396.42	2054.99
396.62	2136.91
396.81	2724.38
397.00	3405.48
397.19	4152.11
397.39	4966.62
397.58	5219.39
397.77	5523.66
397.97	5792.83
398.16	5888.79
398.35	6207.10
398.55	6235.19
398.74	6492.65
398.93	6520.73
399.12	6382.64
399.32	6363.92
399.51	6413.07
399.70	6867.13
399.90	6487.96
400.09	6799.26
400.28	6942.03
400.47	6904.58
400.67	7124.59
400.86	7183.10
401.05	7213.53
401.24	7456.95
401.44	7583.34
401.63	7478.01
401.82	7531.84
402.01	7674.62
402.21	7604.40
402.40	7728.45
402.59	7190.13
402.78	7005.22
402.97	7016.93
403.17	7169.06
403.36	7613.76
403.55	7822.07
403.74	7761.22
403.93	7169.06
404.13	6843.73
404.32	6927.99
404.51	7445.24
404.70	7899.31
404.89	7695.68
405.09	7447.58
405.28	7346.94
405.47	7510.78
405.66	7346.94
405.85	7005.22
406.05	6995.86
406.24	7133.95
406.43	7475.67
406.62	7412.48
406.81	7786.96
407.00	7536.52
407.20	7173.74
407.39	7442.90
407.58	7768.24
407.77	8058.46
407.96	8161.45
408.15	8400.18
408.34	8524.23
408.54	8788.71
408.73	8727.86
408.92	8652.96
409.11	8177.83
409.30	7782.28
409.49	7515.46
409.68	7054.37
409.87	7002.88
410.07	7506.10
410.26	7716.75
410.45	8126.34
410.64	8486.78
410.83	8884.67
411.02	9034.47
411.21	9415.98
411.40	9170.22
411.59	9217.03
411.78	9114.05
411.98	9071.92
412.17	9156.18
412.36	9097.66
412.55	8922.12
412.74	8648.28
412.93	8732.54
413.12	8879.99
413.31	9554.07
413.50	9675.77
413.69	9577.47
413.88	9282.56
414.07	9469.81
414.26	9720.24
414.45	9678.12
414.64	9563.43
414.83	9696.84
415.02	9535.34
415.22	9446.40
415.41	9923.87
415.60	10045.58
415.79	10501.98
415.98	10860.09
416.17	10637.73
416.36	10174.31
416.55	10216.44
416.74	9841.95
416.93	9507.26
417.12	9612.58
417.31	9600.88
417.50	9867.70
417.69	10289.00
417.88	10270.27
418.07	10054.94
418.26	9919.19
418.45	10338.15
418.64	10441.13
418.83	10841.36
419.02	10602.63
419.21	10342.83
419.39	9764.72
419.58	9287.25
419.77	9596.20
419.96	9921.53
420.15	10490.28
420.34	11098.82
420.53	11569.27
420.72	11637.14
420.91	11229.89
421.10	11033.29
421.29	11145.63
421.48	10619.01
421.67	11454.58
421.86	10846.04
422.05	9633.64
422.24	9156.18
422.43	9207.67
422.61	10509.01
422.80	10775.83
422.99	10841.36
423.18	10242.18
423.37	10349.85
423.56	10644.76
423.75	10743.06
423.94	11016.90
424.13	9977.70
424.32	10188.35
424.50	10085.37
424.69	10384.96
424.88	10324.10
425.07	10209.42
425.26	10277.29
425.45	9867.70
425.64	10073.67
425.83	10097.07
426.01	10633.05
426.20	10649.44
426.39	10509.01
426.58	9462.79
426.77	8919.78
426.96	8858.93
427.15	9275.54
427.33	10122.82
427.52	10026.86
427.71	10134.52
427.90	10186.01
428.09	9680.46
428.28	9603.22
428.46	9441.72
428.65	9420.66
428.84	9877.06
429.03	9715.56
429.22	9060.21
429.40	8454.02
429.59	7691.00
429.78	6846.07
429.97	7030.97
430.16	6939.69
430.34	7073.10
430.53	7190.13
430.72	7356.30
430.91	8327.63
431.10	9991.75
431.28	11176.06
431.47	11962.48
431.66	12049.08
431.85	10745.40
432.03	9788.12
432.22	10104.09
432.41	10698.59
432.60	11400.75
432.79	11925.03
432.97	11910.99
433.16	11557.57
433.35	10586.24
433.54	9165.54
433.72	9444.06
433.91	9888.76
434.10	10607.31
434.28	11599.70
434.47	11754.17
434.66	11272.02
434.85	11239.25
435.03	11477.99
435.22	11541.18
435.41	12212.92
435.59	12175.47
435.78	12442.29
435.97	12879.97
436.16	12482.08
436.34	12512.50
436.53	12304.20
436.72	12388.46
436.90	11274.36
437.09	11606.72
437.28	11562.25
437.46	12072.48
437.65	11487.35
437.84	10415.38
438.02	10050.26
438.21	10270.27
438.40	10956.05
438.58	11272.02
438.77	11705.02
438.96	11927.37
439.14	12627.19
439.33	12582.72
439.52	12835.50
439.70	12163.76
439.89	11850.13
440.08	12095.89
440.26	12187.17
440.45	12446.97
440.63	13540.00
440.82	14141.52
441.01	13584.47
441.19	13455.74
441.38	14068.96
441.57	14204.71
441.75	14476.21
441.94	14698.56
442.12	13926.19
442.31	14569.83
442.50	14597.92
442.68	14602.60
442.87	14319.40
443.05	14204.71
443.24	14630.69
443.43	14745.38
443.61	14717.29
443.80	15091.77
443.98	14178.97
444.17	14555.79
444.35	15503.71
444.54	15192.42
444.73	15122.20
444.91	14249.18
445.10	13500.21
445.28	13413.61
445.47	13046.15
445.65	13371.48
445.84	13802.14
446.02	13987.04
446.21	14459.83
446.39	14462.17
446.58	14469.19
446.77	15007.52
446.95	14803.89
447.14	15496.69
447.32	15396.04
447.51	15028.58
447.69	14501.96
447.88	14530.05
448.06	14560.47
448.25	14850.70
448.43	14850.70
448.62	14518.34
448.80	14401.32
448.99	14724.31
449.17	15080.07
449.36	14757.08
449.54	14920.92
449.73	15798.62
449.91	16004.58
450.10	16589.72
450.28	16311.19
450.46	15997.56
450.65	15749.46
450.83	16053.73
451.02	15913.30
451.20	15868.83
451.39	15604.35
451.57	15398.38
451.76	15641.80
451.94	15103.48
452.13	15302.42
452.31	14263.22
452.49	13783.41
452.68	14188.33
452.86	14303.01
453.05	14478.55
453.23	15332.85
453.42	15243.91
453.60	15328.17
453.78	15597.33
453.97	15147.95
454.15	14932.62
454.34	14949.00
454.52	15002.83
454.70	15019.22
454.89	14782.82
455.07	14911.55
455.26	15229.87
455.44	15967.13
455.62	16271.40
455.81	16386.09
455.99	15728.40
456.17	15953.09
456.36	16086.50
456.54	16688.02
456.73	16343.96
456.91	16510.14
457.09	16819.09
457.28	16755.90
457.46	15899.26
457.64	16084.16
457.83	15648.82
458.01	15304.76
458.19	15913.30
458.38	15784.57
458.56	16091.18
458.74	16112.25
458.93	15908.62
459.11	15637.12
459.29	15658.18
459.48	15768.19
459.66	15459.24
459.84	15728.40
460.03	16159.06
460.21	15960.11
460.39	16709.08
460.57	16578.01
460.76	16896.33
460.94	16982.93
461.12	16510.14
461.31	16709.08
461.49	16908.03
461.67	16741.85
461.85	17469.76
462.04	16893.99
462.22	17041.44
462.40	17317.62
462.59	17055.48
462.77	16776.96
462.95	17055.48
463.13	17242.73
463.32	16781.64
463.50	16397.79
463.68	16769.94
463.86	16999.31
464.05	16418.86
464.23	15892.24
464.41	15789.25
464.59	15625.42
464.78	16196.51
464.96	16294.81
465.14	16013.95
465.32	16561.63
465.50	16688.02
465.69	17163.15
465.87	16695.04
466.05	16156.72
466.23	15543.50
466.41	15473.28
466.60	16084.16
466.78	16168.42
466.96	15707.34
467.14	16217.57
467.32	16353.32
467.51	16339.28
467.69	15723.72
467.87	15894.58
468.05	16358.00
468.23	16170.76
468.41	16444.60
468.60	16020.97
468.78	16081.82
468.96	16369.71
469.14	16587.38
469.32	16725.47
469.50	15955.43
469.69	15964.79
469.87	15875.85
470.05	15616.05
470.23	15854.79
470.41	16201.19
470.59	16304.17
470.77	16163.74
470.95	16397.79
471.14	16636.53
471.32	17195.92
471.50	17984.68
471.68	17783.39
471.86	17788.07
472.04	17764.67
472.22	17558.70
472.40	17228.68
472.58	17207.62
472.77	16306.51
472.95	17102.29
473.13	17680.41
473.31	16901.01
473.49	17312.94
473.67	17500.19
473.85	17460.40
474.03	17617.21
474.21	17731.90
474.39	17743.60
474.57	17626.57
474.75	18134.47
474.93	18455.12
475.12	17783.39
475.30	17994.04
475.48	18164.90
475.66	18097.02
475.84	17481.46
476.02	17776.37
476.20	17558.70
476.38	17752.96
476.56	18473.85
476.74	18431.72
476.92	18640.03
477.10	19307.08
477.28	19304.74
477.46	19234.52
477.64	20067.75
477.82	19648.80
478.00	19506.02
478.18	19494.32
478.36	19239.20
478.54	19234.52
478.72	20053.71
478.90	20596.71
479.08	20442.24
479.26	20456.28
479.44	20245.63
479.62	20596.71
479.80	20903.32
479.98	20790.98
480.16	21422.92
480.34	20528.84
480.52	21043.76
480.70	20868.22
480.88	21013.33
481.06	21905.07
481.24	21460.37
481.41	22579.15
481.59	22565.10
481.77	21832.52
481.95	21579.74
482.13	22122.74
482.31	21467.39
482.49	22223.39
482.67	21509.52
482.85	22094.66
483.03	22265.52
483.21	22487.87
483.39	22679.79
483.57	22291.26
483.74	22190.62
483.92	22176.58
484.10	22899.80
484.28	22874.06
484.46	23026.19
484.64	22583.83
484.82	22691.49
485.00	22670.43
485.18	22108.70
485.35	21013.33
485.53	18794.50
485.71	17680.41
485.89	17956.59
486.07	19014.51
486.25	20482.03
486.43	21537.61
486.61	21010.99
486.78	21350.37
486.96	22321.69
487.14	23126.83
487.32	23697.92
487.50	23950.70
487.68	23824.31
487.85	24627.12
488.03	24606.05
488.21	23871.12
488.39	23264.92
488.57	23459.19
488.75	23634.73
488.92	24971.18
489.10	27098.72
489.28	26457.42
489.46	27276.60
489.64	28048.98
489.81	27414.69
489.99	26829.56
490.17	27281.28
490.35	27962.38
490.53	26850.63
490.70	26307.62
490.88	27103.40
491.06	28053.66
491.24	27875.78
491.41	26209.32
491.59	25308.21
491.77	24687.97
491.95	25963.56
492.13	26536.99
492.30	27070.64
492.48	28624.75
492.66	29027.32
492.84	28158.99
493.01	28065.36
493.19	27072.98
493.37	26567.42
493.54	27222.77
493.72	28336.87
493.90	28732.42
494.08	29993.97
494.25	30579.10
494.43	30302.92
494.61	30735.92
494.79	30719.53
494.96	30471.43
495.14	29605.44
495.32	28732.42
495.49	28297.08
495.67	29109.24
495.85	31353.82
496.02	31192.32
496.20	30712.51
496.38	30756.98
496.55	30377.81
496.73	30890.39
496.91	30787.41
497.09	31189.98
497.26	31395.95
497.44	31618.30
497.62	30342.70
497.79	29991.62
497.97	28599.01
498.14	28746.46
498.32	30080.56
498.50	30632.93
498.67	31709.58
498.85	31019.12
499.03	30614.21
499.20	31412.33
499.38	30693.79
499.56	30319.30
499.73	30515.90
499.91	29958.86
500.08	29144.35
500.26	28411.76
500.44	29666.29
500.61	30487.82
500.79	29502.45
500.97	29125.63
501.14	29216.91
501.32	28837.74
501.49	28622.41
501.67	29120.95
501.84	30499.52
502.02	30389.52
502.20	30438.67
502.37	30827.20
502.55	31463.82
502.72	31974.06
502.90	32079.38
503.07	31285.94
503.25	31531.70
503.43	30057.16
503.60	28980.51
503.78	28886.89
503.95	30122.69
504.13	30302.92
504.30	32060.66
504.48	32170.66
504.65	31845.33
504.83	31367.86
505.01	31445.10
505.18	31772.77
505.36	33228.59
505.53	32739.41
505.71	33226.24
505.88	33111.56
506.06	32950.06
506.23	32091.09
506.41	31524.68
506.58	32147.26
506.76	31899.16
506.93	32018.53
507.11	30340.36
507.28	31477.86
507.46	31037.84
507.63	30457.39
507.81	30338.02
507.98	30654.00
508.16	31178.28
508.33	32512.38
508.50	32180.03
508.68	32861.12
508.85	33457.96
509.03	32582.60
509.20	31943.63
509.38	31686.17
509.55	31281.26
509.73	31873.42
509.90	32521.74
510.08	31524.68
510.25	31115.08
510.42	31218.07
510.60	31714.26
510.77	32254.92
510.95	33317.53
511.12	32542.81
511.30	32730.05
511.47	33612.43
511.64	32818.99
511.82	33060.07
511.99	32156.62
512.17	32018.53
512.34	31725.96
512.51	30759.32
512.69	30944.22
512.86	32114.49
513.04	32589.62
513.21	31995.12
513.38	32156.62
513.56	31335.09
513.73	30352.07
513.90	30089.93
514.08	30724.21
514.25	31302.32
514.43	31632.34
514.60	32173.00
514.77	31981.08
514.95	31885.12
515.12	32030.23
515.29	32680.90
515.47	33151.35
515.64	31978.74
515.81	32739.41
515.99	31913.20
516.16	29523.52
516.33	27311.71
516.51	26001.01
516.68	25448.64
516.85	24156.67
517.03	25434.60
517.20	27899.19
517.37	30410.58
517.54	30300.58
517.72	29029.66
517.89	27302.35
518.06	26551.04
518.24	27264.90
518.41	28727.74
518.58	29928.43
518.75	30019.71
518.93	30146.10
519.10	29729.48
519.27	30562.72
519.45	30787.41
519.62	31489.57
519.79	32266.63
519.96	31646.38
520.14	31040.18
520.31	30567.40
520.48	29851.19
520.65	30347.39
520.83	31538.72
521.00	31557.44
521.17	30876.35
521.34	30623.57
521.52	30780.39
521.69	32196.41
521.86	32037.25
522.03	31384.24
522.20	29823.11
522.38	28938.38
522.55	29558.63
522.72	30106.31
522.89	30291.21
523.07	30759.32
523.24	31498.93
523.41	31756.39
523.58	32084.06
523.75	31311.69
523.92	32603.66
524.10	32790.91
524.27	32610.68
524.44	31990.44
524.61	33326.89
524.78	32809.63
524.96	32378.97
525.13	32039.59
525.30	33165.39
525.47	33371.36
525.64	32610.68
525.81	30733.57
525.98	29137.33
526.16	27793.86
526.33	27681.52
526.50	27922.59
526.67	27672.15
526.84	27786.84
527.01	28804.97
527.18	30253.76
527.36	31068.27
527.53	32095.77
527.70	31407.65
527.87	30052.48
528.04	30183.55
528.21	31138.49
528.38	31917.89
528.55	33184.12
528.72	32606.00
528.89	32446.85
529.07	32664.52
529.24	30923.16
529.41	31304.67
529.58	31021.46
529.75	30536.97
529.92	31288.28
530.09	31299.98
530.26	31377.22
530.43	30602.50
530.60	32414.08
530.77	32524.08
530.94	33184.12
531.11	32091.09
531.28	31634.68
531.46	31438.08
531.63	32201.09
531.80	32252.58
531.97	31094.02
532.14	29420.53
532.31	28250.27
532.48	27763.43
532.65	27899.19
532.82	28655.18
532.99	30256.11
533.16	31580.85
533.33	32753.46
533.50	31758.73
533.67	30609.53
533.84	30799.11
534.01	30464.41
534.18	31037.84
534.35	30829.54
534.52	31147.85
534.69	31082.31
534.86	30953.58
535.03	31508.29
535.20	32194.07
535.37	31751.71
535.54	32105.13
535.71	31360.84
535.88	30969.97
536.05	30078.22
536.22	30178.87
536.38	29329.25
536.55	29902.68
536.72	29563.31
536.89	29804.38
537.06	30815.49
537.23	30476.12
537.40	30593.14
537.57	30588.46
537.74	29928.43
537.91	29900.34
538.08	31068.27
538.25	31316.37
538.42	30494.84
538.59	30586.12
538.75	30717.19
538.92	30288.87
539.09	29567.99
539.26	28709.01
539.43	27962.38
539.60	28086.43
539.77	28683.27
539.94	27978.76
540.11	27316.39
540.28	27002.76
540.44	27344.48
540.61	27878.12
540.78	28250.27
540.95	29694.38
541.12	28599.01
541.29	30415.26
541.46	29179.46
541.62	29221.59
541.79	28898.59
541.96	28423.47
542.13	29350.32
542.30	29575.01
542.47	29469.69
542.63	29280.10
542.80	28091.11
542.97	28268.99
543.14	28168.35
543.31	28648.16
543.48	29493.09
543.64	29827.79
543.81	30373.13
543.98	29549.26
544.15	28811.99
544.32	28346.23
544.48	29518.84
544.65	28247.93
544.82	28910.30
544.99	28919.66
545.16	28954.77
545.32	29610.12
545.49	29895.66
545.66	29743.53
545.83	29715.44
546.00	29085.84
546.16	28339.21
546.33	28697.31
546.50	29383.09
546.67	29137.33
546.83	28477.30
547.00	28371.97
547.17	27857.06
547.34	28189.41
547.50	28575.60
547.67	28203.46
547.84	28308.78
548.00	28627.09
548.17	28133.24
548.34	27852.38
548.51	28128.56
548.67	29357.34
548.84	28961.79
549.01	29565.65
549.18	29219.25
549.34	30047.80
549.51	29589.05
549.68	28872.85
549.84	28835.40
550.01	28601.35
550.18	27381.93
550.34	28025.57
550.51	28002.17
550.68	27517.68
550.84	26373.16
551.01	26878.71
551.18	26848.29
551.34	26969.99
551.51	27646.41
551.68	29034.35
551.84	27667.47
552.01	28259.63
552.18	27908.55
552.34	26981.70
552.51	27751.73
552.68	28226.86
552.84	27225.11
553.01	27763.43
553.18	28531.13
553.34	28577.94
553.51	28079.41
553.67	27590.24
553.84	28622.41
554.01	29092.86
554.17	27421.72
554.34	28491.34
554.51	29067.11
554.67	28315.80
554.84	27402.99
555.00	27711.94
555.17	27854.72
555.33	27702.58
555.50	28266.65
555.67	27697.90
555.83	27882.80
556.00	27494.27
556.16	27756.41
556.33	26661.04
556.50	27122.13
556.66	26508.91
556.83	25855.90
556.99	26331.03
557.16	26431.67
557.32	27103.40
557.49	26532.31
557.65	26859.99
557.82	25532.90
557.98	26349.75
558.15	26515.93
558.32	26085.27
558.48	24980.54
558.65	24898.62
558.81	24837.76
558.98	25731.85
559.14	25872.28
559.31	26132.08
559.47	26036.12
559.64	25324.60
559.80	26506.57
559.97	25968.24
560.13	26183.57
560.30	26773.39
560.46	27075.32
560.63	27002.76
560.79	27751.73
560.96	26349.75
561.12	26103.99
561.29	25858.24
561.45	25453.33
561.61	25179.48
561.78	25656.95
561.94	25373.75
562.11	25326.94
562.27	25804.41
562.44	26583.80
562.60	25591.42
562.77	26204.64
562.93	25783.34
563.10	25865.26
563.26	25514.18
563.42	24563.92
563.59	24823.72
563.75	25790.36
563.92	25467.37
564.08	25685.04
564.24	25174.80
564.41	23873.46
564.57	24751.17
564.74	24210.50
564.90	23800.91
565.07	24456.26
565.23	23199.39
565.39	23520.04
565.56	24409.45
565.72	24383.70
565.88	24648.18
566.05	24261.99
566.21	24156.67
566.38	23431.10
566.54	23885.17
566.70	23360.89
566.87	24456.26
567.03	25729.51
567.19	25975.27
567.36	24154.33
567.52	24739.46
567.68	23906.23
567.85	24095.82
568.01	24224.54
568.17	23220.45
568.34	22476.16
568.50	22609.58
568.66	22979.38
568.83	23297.69
568.99	24130.92
569.15	23864.10
569.32	24025.60
569.48	23711.97
569.64	23283.65
569.81	22775.75
569.97	22876.40
570.13	23309.40
570.30	22726.60
570.46	22693.83
570.62	21448.67
570.78	21006.31
570.95	21331.64
571.11	22349.78
571.27	22377.86
571.43	22075.93
571.60	23138.54
571.76	22958.31
571.92	23147.90
572.09	23484.94
572.25	23456.85
572.41	24276.04
572.57	23651.11
572.74	22864.69
572.90	22862.35
573.06	22576.81
573.22	22721.92
573.38	22515.95
573.55	21652.30
573.71	22792.14
573.87	22902.14
574.03	22967.68
574.20	22600.21
574.36	22871.72
574.52	22710.22
574.68	21841.88
574.84	21975.29
575.01	22511.27
575.17	22733.62
575.33	22174.24
575.49	21734.21
575.65	22256.15
575.82	21479.10
575.98	21792.73
576.14	22064.23
576.30	22097.00
576.46	21336.32
576.62	21851.24
576.79	22005.72
576.95	21507.18
577.11	21523.57
577.27	20617.78
577.43	20971.20
577.59	21223.98
577.75	21664.00
577.92	20725.44
578.08	20540.54
578.24	20776.94
578.40	20870.56
578.56	20971.20
578.72	20908.01
578.88	21752.94
579.04	21380.79
579.21	21191.21
579.37	21266.11
579.53	20865.88
579.69	20835.45
579.85	20273.72
580.01	20547.56
580.17	20861.19
580.33	20648.21
580.49	20748.85
580.65	21046.10
580.82	20751.19
580.98	20847.15
581.14	20783.96
581.30	21912.10
581.46	20961.84
581.62	20912.69
581.78	21142.06
581.94	21584.42
582.10	21263.77
582.26	21336.32
582.42	21553.99
582.58	22111.04
582.74	21591.44
582.90	21116.31
583.06	21680.38
583.22	21474.42
583.38	21301.22
583.54	21523.57
583.70	21558.67
583.86	21392.50
584.02	21348.03
584.18	21223.98
584.34	21322.28
584.50	22333.39
584.66	21837.20
584.82	21345.69
584.98	21284.83
585.14	20262.02
585.30	19810.29
585.46	19744.76
585.62	19290.70
585.78	20290.10
585.94	19784.55
586.10	20463.30
586.26	20620.12
586.42	20278.40
586.58	20465.64
586.74	19583.26
586.90	19929.66
587.06	19693.27
587.22	19538.79
587.38	19796.25
587.54	19871.15
587.70	19618.37
587.86	19548.15
588.02	19339.85
588.18	19122.18
588.34	18546.40
588.49	18026.81
588.65	16950.16
588.81	16819.09
588.97	16702.06
589.13	16627.17
589.29	16128.63
589.45	17549.34
589.61	18317.03
589.77	18272.56
589.93	18691.52
590.08	19007.49
590.24	19250.91
590.40	18691.52
590.56	18480.87
590.72	18462.15
590.88	18422.36
591.04	18562.79
591.20	17980.00
591.35	18593.22
591.51	19302.40
591.67	19164.31
591.83	18696.20
591.99	18625.98
592.15	18567.47
592.31	18462.15
592.46	17795.09
592.62	18080.64
592.78	18473.85
592.94	18155.54
593.10	18324.05
593.26	18202.35
593.41	18473.85
593.57	18700.88
593.73	18314.69
593.89	18082.98
594.05	17483.80
594.20	17240.39
594.36	17645.30
594.52	17811.48
594.68	17799.77
594.84	17357.41
594.99	17776.37
595.15	17989.36
595.31	18043.19
595.47	17764.67
595.62	17898.08
595.78	18085.32
595.94	17984.68
596.10	17486.14
596.25	17619.55
596.41	17806.80
596.57	17923.82
596.73	17860.63
596.88	17488.48
597.04	17596.15
597.20	16952.50
597.36	16968.88
597.51	16844.84
597.67	17422.95
597.83	17081.23
597.99	17137.40
598.14	16524.18
598.30	15829.04
598.46	16135.65
598.61	16641.21
598.77	17085.91
598.93	17865.31
599.09	17425.29
599.24	17125.70
599.40	17432.31
599.56	17579.76
599.71	17385.50
599.87	17441.67
600.03	17439.33
600.18	17703.81
600.34	17853.61
600.50	17294.22
600.65	17451.03
600.81	17790.41
600.97	17371.46
601.12	16589.72
601.28	16325.24
601.44	16463.33
601.59	16423.54
601.75	16886.97
601.91	16629.51
602.06	16252.68
602.22	16896.33
602.37	17034.42
602.53	16865.90
602.69	16561.63
602.84	16479.71
603.00	17078.89
603.16	16828.45
603.31	16779.30
603.47	16727.81
603.62	16638.87
603.78	17329.33
603.94	16910.37
604.09	17308.26
604.25	17502.53
604.40	17240.39
604.56	17209.96
604.71	17378.48
604.87	16989.95
605.03	17675.73
605.18	16910.37
605.34	16769.94
605.49	16280.77
605.65	16985.27
605.80	16095.86
605.96	15859.47
606.12	15700.31
606.27	15990.54
606.43	16339.28
606.58	16278.43
606.74	16121.61
606.89	16655.25
607.05	16533.54
607.20	16388.43
607.36	16659.93
607.51	16404.81
607.67	16084.16
607.82	16306.51
607.98	15936.71
608.13	16353.32
608.29	16390.77
608.44	16128.63
608.60	15623.08
608.75	15679.25
608.91	15716.70
609.06	15480.30
609.22	15372.64
609.37	16348.64
609.53	15962.45
609.68	15543.50
609.84	15307.10
609.99	15143.27
610.15	14441.11
610.30	14853.04
610.46	15286.04
610.61	15105.82
610.76	15693.29
610.92	16292.47
611.07	16725.47
611.23	16308.85
611.38	15908.62
611.54	15330.51
611.69	14635.37
611.84	14384.93
612.00	14672.82
612.15	14731.33
612.31	15016.88
612.46	15105.82
612.62	15211.14
612.77	14883.47
612.92	15304.76
613.08	14958.36
613.23	14298.33
613.39	14225.78
613.54	14312.38
613.69	14057.26
613.85	14162.58
614.00	14434.08
614.15	14092.37
614.31	14565.15
614.46	14253.86
614.62	14218.75
614.77	14628.35
614.92	14469.19
615.08	14824.95
615.23	14530.05
615.38	14429.40
615.54	14239.82
615.69	13650.00
615.84	12905.71
616.00	13509.57
616.15	13722.56
616.30	13434.68
616.46	13305.95
616.61	13619.58
616.76	13767.03
616.92	13888.74
617.07	14361.53
617.22	14633.03
617.37	13973.00
617.53	14094.71
617.68	14108.75
617.83	13682.77
617.99	13968.32
618.14	14111.09
618.29	14026.83
618.45	13525.96
618.60	12833.16
618.75	13275.52
618.90	13490.85
619.06	13474.46
619.21	13650.00
619.36	13752.99
619.51	13785.76
619.67	13783.41
619.82	13551.70
619.97	13661.71
620.12	13631.28
620.28	13804.48
620.43	13771.71
620.58	13696.82
620.73	13853.63
620.89	14136.84
621.04	13713.20
621.19	13282.54
621.34	13294.24
621.49	13083.59
621.65	13331.69
621.80	13090.62
621.95	13209.98
622.10	13261.48
622.25	12554.63
622.41	12416.54
622.56	12674.00
622.71	13123.38
622.86	13224.03
623.01	13282.54
623.16	13174.88
623.32	13327.01
623.47	12940.82
623.62	12837.84
623.77	12854.22
623.92	12919.76
624.07	12322.92
624.23	12538.25
624.38	12360.37
624.53	12549.95
624.68	12629.53
624.83	12243.34
624.98	11723.74
625.13	12086.53
625.29	12100.57
625.44	12262.07
625.59	12306.54
625.74	12648.26
625.89	12133.34
626.04	12042.06
626.19	12023.33
626.34	11915.67
626.49	11852.47
626.65	11627.78
626.80	12044.40
626.95	12395.48
627.10	11995.25
627.25	11700.34
627.40	11407.77
627.55	10874.13
627.70	11501.39
627.85	11421.81
628.00	11222.87
628.15	11662.89
628.30	11562.25
628.45	11178.40
628.60	11405.43
628.76	11538.84
628.91	11194.78
629.06	11332.87
629.21	11463.94
629.36	11522.46
629.51	11325.85
629.66	11407.77
629.81	11253.30
629.96	11274.36
630.11	11288.40
630.26	10967.75
630.41	11239.25
630.56	11119.89
630.71	10953.71
630.86	10808.59
631.01	10686.89
631.16	10965.41
631.31	10621.35
631.46	10750.08
631.61	10743.06
631.76	11073.07
631.91	11185.42
632.06	11410.11
632.21	11403.09
632.36	11932.05
632.51	11592.67
632.66	11744.81
632.81	11489.69
632.96	11059.03
633.10	11253.30
633.25	11194.78
633.40	11311.81
633.55	10764.12
633.70	10469.22
633.85	10614.33
634.00	10757.10
634.15	10230.48
634.30	10211.76
634.45	10630.71
634.60	10822.64
634.75	10902.22
634.90	10970.09
635.05	10951.37
635.19	10757.10
635.34	11033.29
635.49	10949.03
635.64	10897.53
635.79	10417.72
635.94	10012.81
636.09	10157.92
636.24	10651.78
636.39	10546.45
636.53	10504.32
636.68	10752.42
636.83	11026.26
636.98	10658.80
637.13	10724.33
637.28	10553.48
637.43	10595.61
637.57	10696.25
637.72	10621.35
637.87	10560.50
638.02	10078.35
638.17	11016.90
638.32	10773.49
638.46	10115.80
638.61	9905.15
638.76	9834.93
638.91	10136.86
639.06	10558.16
639.20	10438.79
639.35	10602.63
639.50	10555.82
639.65	10209.42
639.80	10195.37
639.94	9958.98
640.09	9834.93
640.24	9919.19
640.39	10260.91
640.54	10389.64
640.68	9998.77
640.83	10274.95
640.98	10375.59
641.13	9703.86
641.27	9650.03
641.42	9383.21
641.57	9329.38
641.72	9474.49
641.86	9731.95
642.01	10090.05
642.16	10314.74
642.31	9984.73
642.45	10104.09
642.60	10134.52
642.75	9797.48
642.90	9947.28
643.04	9956.64
643.19	10031.54
643.34	9820.89
643.48	9647.69
643.63	9135.11
643.78	9165.54
643.93	9404.27
644.07	9638.33
644.22	9893.44
644.37	9631.30
644.51	9591.52
644.66	9198.31
644.81	9287.25
644.95	9343.42
645.10	9593.86
645.25	9385.55
645.39	9324.69
645.54	9287.25
645.69	8901.06
645.83	9102.34
645.98	8936.17
646.13	9207.67
646.27	9507.26
646.42	9235.75
646.57	9188.94
646.71	9303.63
646.86	8947.87
647.00	8772.33
647.15	8744.24
647.30	9151.49
647.44	9305.97
647.59	9107.02
647.74	8692.75
647.88	8734.88
648.03	8648.28
648.17	8622.53
648.32	8879.99
648.47	8865.95
648.61	8531.25
648.76	8386.14
648.90	7976.55
649.05	7499.08
649.20	7737.81
649.34	8124.00
649.49	7882.92
649.63	8135.70
649.78	8355.71
649.92	8421.25
650.07	8861.27
650.21	8683.39
650.36	8669.34
650.51	8456.36
650.65	8863.61
650.80	8711.47
650.94	8386.14
651.09	8170.81
651.23	8145.06
651.38	8748.92
651.52	8692.75
651.67	8528.91
651.81	8578.06
651.96	8737.22
652.10	8608.49
652.25	8358.05
652.39	8397.84
652.54	8582.74
652.68	8351.03
652.83	8798.07
652.97	8454.02
653.12	8503.17
653.26	8531.25
653.41	8374.44
653.55	8496.14
653.70	8463.38
653.84	8475.08
653.99	8606.15
654.13	8657.64
654.27	8346.35
654.42	8280.82
654.56	7901.65
654.71	7812.71
654.85	8042.08
655.00	8196.56
655.14	7934.42
655.29	7651.21
655.43	7620.78
655.57	7293.11
655.72	6504.35
655.86	5877.09
656.01	6078.37
656.15	6120.50
656.30	6780.53
656.44	6970.12
656.58	6890.54
656.73	7248.64
656.87	7473.33
657.01	7407.80
657.16	7351.62
657.30	7438.22
657.45	7779.94
657.59	7925.05
657.73	7932.08
657.88	7920.37
658.02	7922.71
658.16	7815.05
658.31	7852.50
658.45	8182.51
658.60	8053.78
658.74	7953.14
658.88	7709.72
659.03	8030.38
659.17	7850.16
659.31	7845.48
659.46	7791.64
659.60	7875.90
659.74	7976.55
659.89	7861.86
660.03	7889.95
660.17	7840.79
660.32	7712.07
660.46	7611.42
660.60	7442.90
660.74	7410.14
660.89	7639.51
661.03	7482.69
661.17	7379.71
661.32	7417.16
661.46	7438.22
661.60	7674.62
661.74	7726.11
661.89	7749.51
662.03	7470.99
662.17	7459.29
662.31	7637.17
662.46	7803.35
662.60	7461.63
662.74	7311.83
662.88	7211.19
663.03	7417.16
663.17	7204.17
663.31	7358.64
663.45	7028.63
663.60	7227.57
663.74	7103.53
663.88	7112.89
664.02	6799.26
664.17	6841.39
664.31	6670.53
664.45	6888.20
664.59	7061.40
664.73	6923.30
664.88	7030.97
665.02	6876.49
665.16	6937.35
665.30	6715.00
665.44	7026.29
665.59	7215.87
665.73	7180.76
665.87	7201.83
666.01	7478.01
666.15	6970.12
666.29	6862.45
666.44	6848.41
666.58	6808.62
666.72	6843.73
666.86	6726.70
667.00	6740.74
667.14	6803.94
667.28	6637.76
667.43	6619.04
667.57	6656.48
667.71	6572.22
667.85	6693.93
667.99	6794.58
668.13	6878.83
668.27	6544.14
668.41	6621.38
668.56	6642.44
668.70	6654.14
668.84	6544.14
668.98	6282.00
669.12	6466.90
669.26	6530.09
669.40	6520.73
669.54	6457.54
669.68	6120.50
669.82	6106.46
669.96	6136.88
670.10	6033.90
670.25	6078.37
670.39	6022.20
670.53	6260.93
670.67	6237.53
670.81	6469.24
670.95	6415.41
671.09	6377.96
671.23	6036.24
671.37	5998.79
671.51	6061.99
671.65	6326.47
671.79	6242.21
671.93	6195.40
672.07	6087.73
672.21	5994.11
672.35	6040.92
672.49	5874.74
672.63	6169.65
672.77	6104.12
672.91	6036.24
673.05	6036.24
673.19	5977.73
673.33	5813.89
673.47	5973.05
673.61	5830.27
673.75	5734.31
673.89	5856.02
674.03	5511.96
674.17	5935.60
674.31	5865.38
674.45	6024.54
674.59	5781.12
674.73	5783.46
674.87	5816.23
675.01	5638.35
675.15	5774.10
675.29	5678.14
675.43	5348.12
675.56	5495.58
675.70	5497.92
675.84	5507.28
675.98	5411.32
676.12	5516.64
676.26	5418.34
676.40	5636.01
676.54	5715.59
676.68	5544.73
676.82	5090.67
676.96	5174.92
677.10	5320.04
677.23	5301.31
677.37	5455.79
677.51	5343.44
677.65	5387.91
677.79	5228.76
677.93	5224.08
678.07	5502.60
678.21	5458.13
678.34	5376.21
678.48	5376.21
678.62	5289.61
678.76	5439.40
678.90	5280.25
679.04	5270.89
679.18	5313.02
679.31	5132.79
679.45	5158.54
679.59	5219.39
679.73	4821.50
679.87	4905.76
680.00	4741.93
680.14	4985.34
680.28	4807.46
680.42	4784.06
680.56	4744.27
680.70	4681.07
680.83	4671.71
680.97	4671.71
681.11	4638.94
681.25	4610.86
681.39	4470.42
681.52	4547.66
681.66	4697.46
681.80	4603.83
681.94	4599.15
682.07	4734.90
682.21	4650.64
682.35	4814.48
682.49	4587.45
682.62	4692.77
682.76	4608.51
682.90	4524.26
683.04	4514.89
683.17	4297.22
683.31	4294.88
683.45	4379.14
683.59	4243.39
683.72	4498.51
683.86	4212.96
684.00	4203.60
684.13	4210.62
684.27	4355.74
684.41	4388.50
684.55	4236.37
684.68	4273.82
684.82	4292.54
684.96	3974.23
685.09	4007.00
685.23	4093.60
685.37	3955.51
685.50	4109.98
685.64	4142.75
685.78	4060.83
685.91	3866.56
686.05	3641.87
686.19	3754.22
686.32	3487.40
686.46	3063.76
686.60	2729.06
686.73	2572.25
686.87	2520.76
687.01	2300.75
687.14	2530.12
687.28	2518.42
687.42	2759.49
687.55	2993.55
687.69	3126.96
687.82	3276.75
687.96	3281.43
688.10	3080.14
688.23	3150.36
688.37	3176.11
688.50	3169.09
688.64	3108.23
688.78	2834.39
688.91	2738.43
689.05	2963.12
689.18	2860.13
689.32	3019.29
689.46	2963.12
689.59	2766.51
689.73	2780.56
689.86	2775.88
690.00	2913.97
690.13	2956.10
690.27	3014.61
690.41	2998.23
690.54	3014.61
690.68	2981.84
690.81	2958.44
690.95	2965.46
691.08	3012.27
691.22	3187.81
691.35	3197.17
691.49	3290.79
691.62	3201.85
691.76	3084.83
691.89	2995.89
692.03	3119.93
692.16	3023.97
692.30	3101.21
692.43	3030.99
692.57	2998.23
692.70	2993.55
692.84	2775.88
692.97	2761.83
693.11	2862.48
693.24	2736.09
693.38	2717.36
693.51	2773.53
693.65	2771.19
693.78	2546.50
693.92	2513.74
694.05	2649.49
694.19	2698.64
694.32	2782.90
694.45	2890.56
694.59	2717.36
694.72	2846.09
694.86	2747.79
694.99	2789.92
695.13	2736.09
695.26	2822.69
695.39	2836.73
695.53	2672.89
695.66	2642.46
695.80	2661.19
695.93	2555.86
696.07	2661.19
696.20	2590.97
696.33	2729.06
696.47	2717.36
696.60	2722.04
696.73	2745.45
696.87	2731.41
697.00	2593.31
697.14	2497.35
697.27	2553.52
697.40	2492.67
697.54	2406.07
697.67	2359.26
697.80	2305.43
697.94	2471.61
698.07	2275.00
698.21	2331.17
698.34	2385.01
698.47	2263.30
698.61	2303.09
698.74	2282.02
698.87	2380.32
699.01	2387.35
699.14	2300.75
699.27	2253.94
699.40	2239.89
699.54	2305.43
699.67	2218.83
699.80	2200.10
699.94	2356.92
700.07	2328.83
700.20	2195.42
700.34	2083.08
700.47	2076.06
700.60	2033.93
700.73	2122.87
700.87	2118.18
701.00	2087.76
701.13	1987.11
701.26	1963.71
701.40	1968.39
701.53	2017.54
701.66	2015.20
701.79	1954.35
701.93	1746.04
702.06	1914.56
702.19	1994.14
702.32	2005.84
702.46	1954.35
702.59	1891.15
702.72	1902.86
702.85	1926.26
702.99	1909.88
703.12	2087.76
703.25	1998.82
703.38	1820.94
703.51	1872.43
703.65	1842.00
703.78	1959.03
703.91	1916.90
704.04	1919.24
704.17	1879.45
704.31	1982.43
704.44	1830.30
704.57	1888.81
704.70	1748.38
704.83	1788.17
704.96	1877.11
705.10	1802.21
705.23	1865.41
>>>>>End Processed Spectral Data<<<<<
