SpectraSuite Data File
++++++++++++++++++++++++++++++++++++
Date: Mon Oct 07 14:54:59 GMT-05:00 2013
User: price-jones
Dark Spectrum Present: No
Reference Spectrum Present: No
Number of Sampled Component Spectra: 1
Spectrometers: USB2+H05261
Integration Time (usec): 10000 (USB2+H05261)
Spectra Averaged: 1 (USB2+H05261)
Boxcar Smoothing: 0 (USB2+H05261)
Correct for Electrical Dark: No (USB2+H05261)
Strobe/Lamp Enabled: No (USB2+H05261)
Correct for Detector Non-linearity: No (USB2+H05261)
Correct for Stray Light: No (USB2+H05261)
Number of Pixels in Processed Spectrum: 2048
>>>>>Begin Processed Spectral Data<<<<<
365.73	0.00
365.92	0.00
366.12	0.00
366.32	0.00
366.52	0.00
366.72	0.00
366.91	0.00
367.11	0.00
367.31	0.00
367.51	0.00
367.70	0.00
367.90	0.00
368.10	0.00
368.30	0.00
368.49	0.00
368.69	0.00
368.89	0.00
369.09	0.00
369.28	0.00
369.48	0.00
369.68	0.00
369.87	0.00
370.07	0.00
370.27	0.00
370.47	63.19
370.66	1313.04
370.86	1682.85
371.06	1717.95
371.25	1806.89
371.45	1563.48
371.65	1359.85
371.84	1228.78
372.04	1521.35
372.24	1654.76
372.44	1666.46
372.63	1621.99
372.83	1500.28
373.03	1357.51
373.22	1247.51
373.42	1320.06
373.62	1629.01
373.81	1643.06
374.01	1605.61
374.21	1413.68
374.40	1324.74
374.60	1516.67
374.79	1748.38
374.99	2005.84
375.19	2022.22
375.38	2136.91
375.58	1954.35
375.78	1886.47
375.97	1867.75
376.17	1914.56
376.37	2038.61
376.56	2134.57
376.76	2221.17
376.95	2375.64
377.15	2590.97
377.35	2619.06
377.54	2780.56
377.74	2874.18
377.93	2738.43
378.13	2670.55
378.33	2558.21
378.52	2450.54
378.72	2314.79
378.91	2083.08
379.11	2129.89
379.31	2099.46
379.50	2136.91
379.70	2251.60
379.89	2562.89
380.09	2504.37
380.28	2726.72
380.48	2752.47
380.68	2719.70
380.87	2544.16
381.07	2485.65
381.26	2162.66
381.46	2024.56
381.65	1959.03
381.85	1851.36
382.04	1792.85
382.24	1636.03
382.43	1591.56
382.63	1533.05
382.83	1497.94
383.02	1638.38
383.22	1589.22
383.41	1666.46
383.61	1713.27
383.80	2150.95
384.00	2509.05
384.19	2663.53
384.39	2782.90
384.58	2745.45
384.78	2736.09
384.97	2490.33
385.17	2452.88
385.36	2385.01
385.56	2239.89
385.75	2338.20
385.95	2729.06
386.14	2794.60
386.34	2820.35
386.53	2693.96
386.72	2520.76
386.92	2576.93
387.11	2665.87
387.31	2841.41
387.50	2738.43
387.70	2733.75
387.89	2579.27
388.09	2623.74
388.28	2602.68
388.48	2918.65
388.67	2963.12
388.86	3269.73
389.06	3431.23
389.25	3709.75
389.45	3688.68
389.64	3578.68
389.84	3557.61
390.03	3653.58
390.22	3730.81
390.42	3765.92
390.61	3981.25
390.81	4301.90
391.00	4074.87
391.19	4339.35
391.39	4046.79
391.58	3892.31
391.78	3679.32
391.97	3494.42
392.16	3372.71
392.36	2878.86
392.55	2260.96
392.75	1685.19
392.94	1453.47
393.13	1511.99
393.33	1905.20
393.52	2462.24
393.71	2916.31
393.91	3520.17
394.10	3665.28
394.29	4074.87
394.49	4285.52
394.68	4634.26
394.88	4507.87
395.07	4777.03
395.26	4706.82
395.46	4573.41
395.65	4187.22
395.84	3442.93
396.04	2878.86
396.23	2284.36
396.42	2078.40
396.62	2134.57
396.81	2658.85
397.00	3281.43
397.19	3978.91
397.39	4713.84
397.58	5376.21
397.77	5659.42
397.97	5689.84
398.16	5888.79
398.35	6001.13
398.55	6235.19
398.74	6408.39
398.93	6569.88
399.12	6551.16
399.32	6274.98
399.51	6551.16
399.70	6822.66
399.90	6787.55
400.09	6752.45
400.28	6658.82
400.47	6827.34
400.67	7255.66
400.86	7316.51
401.05	7482.69
401.24	7454.61
401.44	7433.54
401.63	7545.89
401.82	7578.65
402.01	7520.14
402.21	7623.12
402.40	7632.49
402.59	7171.40
402.78	7019.27
402.97	7052.03
403.17	7213.53
403.36	7667.60
403.55	7705.04
403.74	7796.32
403.93	7377.37
404.13	6750.10
404.32	7173.74
404.51	7412.48
404.70	7801.01
404.89	7793.98
405.09	7461.63
405.28	7353.96
405.47	7492.05
405.66	7487.37
405.85	7279.07
406.05	7162.04
406.24	7321.20
406.43	7412.48
406.62	7602.06
406.81	7934.42
407.00	7468.65
407.20	7290.77
407.39	7405.46
407.58	7770.58
407.77	8095.91
407.96	8451.67
408.15	8510.19
408.34	8596.79
408.54	8706.79
408.73	8741.90
408.92	8690.41
409.11	8461.04
409.30	8077.19
409.49	7393.75
409.68	6930.33
409.87	7236.94
410.07	7550.57
410.26	8091.23
410.45	8327.63
410.64	8674.03
410.83	9163.20
411.02	9069.58
411.21	9202.99
411.40	9004.04
411.59	9308.31
411.78	9153.84
411.98	9188.94
412.17	9315.33
412.36	9352.78
412.55	9186.60
412.74	8964.25
412.93	8952.55
413.12	9186.60
413.31	9837.27
413.50	9652.37
413.69	9816.21
413.88	9345.76
414.07	9460.45
414.26	9460.45
414.45	9708.54
414.64	9879.40
414.83	9851.31
415.02	9528.32
415.22	9565.77
415.41	10059.62
415.60	10319.42
415.79	10855.40
415.98	10757.10
416.17	10934.98
416.36	10551.14
416.55	10277.29
416.74	9841.95
416.93	9619.60
417.12	9741.31
417.31	9879.40
417.50	10312.40
417.69	10466.88
417.88	10698.59
418.07	10448.15
418.26	10246.87
418.45	10380.28
418.64	10899.87
418.83	11014.56
419.02	10548.79
419.21	10359.21
419.39	10024.51
419.58	9715.56
419.77	10143.88
419.96	10422.41
420.15	11044.99
420.34	11183.08
420.53	11307.13
420.72	11461.60
420.91	11480.33
421.10	11440.54
421.29	11449.90
421.48	11178.40
421.67	11337.56
421.86	11028.60
422.05	10384.96
422.24	9247.46
422.43	9734.29
422.61	10719.65
422.80	11276.70
422.99	11077.76
423.18	10576.88
423.37	10373.25
423.56	10544.11
423.75	10951.37
423.94	10822.64
424.13	10633.05
424.32	10267.93
424.50	10551.14
424.69	10403.68
424.88	10370.91
425.07	10284.31
425.26	10565.18
425.45	10085.37
425.64	10001.11
425.83	10115.80
426.01	10773.49
426.20	11026.26
426.39	10874.13
426.58	9951.96
426.77	9298.95
426.96	8971.27
427.15	9748.33
427.33	10429.43
427.52	10647.10
427.71	10586.24
427.90	10394.32
428.09	10314.74
428.28	10071.33
428.46	9809.19
428.65	9874.72
428.84	10214.10
429.03	10003.45
429.22	9415.98
429.40	8702.11
429.59	8107.62
429.78	7126.93
429.97	7349.28
430.16	7351.62
430.34	7400.77
430.53	7396.09
430.72	7709.72
430.91	8933.82
431.10	10668.16
431.28	12051.42
431.47	12926.78
431.66	12439.95
431.85	11110.52
432.03	10303.04
432.22	10590.92
432.41	11007.54
432.60	11784.60
432.79	12292.49
432.97	12610.81
433.16	12147.38
433.35	10874.13
433.54	9804.50
433.72	9727.27
433.91	9825.57
434.10	11077.76
434.28	11749.49
434.47	12414.20
434.66	12013.97
434.85	11812.68
435.03	11927.37
435.22	12077.16
435.41	12528.89
435.59	12971.25
435.78	12767.62
435.97	13352.76
436.16	13179.56
436.34	13191.26
436.53	12875.29
436.72	13233.39
436.90	12191.85
437.09	12531.23
437.28	12367.39
437.46	12706.77
437.65	12262.07
437.84	11269.68
438.02	10679.86
438.21	10864.77
438.40	11059.03
438.58	12290.15
438.77	12697.41
438.96	12758.26
439.14	13228.71
439.33	13301.26
439.52	13467.44
439.70	13130.41
439.89	12491.44
440.08	12528.89
440.26	12891.67
440.45	13387.86
440.63	14223.44
440.82	14611.96
441.01	14310.04
441.19	14331.10
441.38	14672.82
441.57	15089.43
441.75	15049.64
441.94	15431.15
442.12	15323.49
442.31	15889.90
442.50	15534.14
442.68	15087.09
442.87	15002.83
443.05	14728.99
443.24	15178.37
443.43	15445.20
443.61	15410.09
443.80	15894.58
443.98	15000.49
444.17	15110.50
444.35	16109.91
444.54	16173.10
444.73	16381.41
444.91	15447.54
445.10	14537.07
445.28	13973.00
445.47	13577.45
445.65	14174.28
445.84	14682.18
446.02	14846.02
446.21	15454.56
446.39	15321.15
446.58	15353.91
446.77	15761.17
446.95	15571.58
447.14	16250.34
447.32	16463.33
447.51	15742.44
447.69	15318.81
447.88	15360.94
448.06	15761.17
448.25	16027.99
448.43	15761.17
448.62	15744.78
448.80	15822.02
448.99	15585.63
449.17	16004.58
449.36	15887.56
449.54	16563.97
449.73	16699.72
449.91	17312.94
450.10	17792.75
450.28	17647.64
450.46	17439.33
450.65	17565.72
450.83	17315.28
451.02	16931.44
451.20	17057.82
451.39	17174.85
451.57	17118.68
451.76	16858.88
451.94	16690.36
452.13	16475.03
452.31	15152.63
452.49	14504.30
452.68	15005.17
452.86	14909.21
453.05	15538.82
453.23	16264.38
453.42	16250.34
453.60	16290.13
453.78	16812.07
453.97	16411.84
454.15	16559.29
454.34	15815.00
454.52	16343.96
454.70	15955.43
454.89	15976.50
455.07	16137.99
455.26	16601.42
455.44	16819.09
455.62	17565.72
455.81	17233.36
455.99	17322.30
456.17	17287.20
456.36	17497.84
456.54	18101.70
456.73	17593.81
456.91	18075.96
457.09	18120.43
457.28	18230.43
457.46	17858.29
457.64	17186.55
457.83	17083.57
458.01	16664.61
458.19	17362.09
458.38	17254.43
458.56	17867.65
458.74	17785.73
458.93	17277.83
459.11	17041.44
459.29	16886.97
459.48	17301.24
459.66	16865.90
459.84	17474.44
460.03	17619.55
460.21	17783.39
460.39	18757.05
460.57	18197.67
460.76	18239.79
460.94	18361.50
461.12	17898.08
461.31	17806.80
461.49	18312.35
461.67	17977.65
461.85	18743.01
462.04	18689.18
462.22	18864.72
462.40	18897.49
462.59	18665.77
462.77	18382.57
462.95	18572.15
463.13	18295.97
463.32	18008.08
463.50	18139.15
463.68	18338.10
463.86	18281.92
464.05	17598.49
464.23	17373.80
464.41	17668.70
464.59	17324.65
464.78	18284.26
464.96	18122.77
465.14	18092.34
465.32	18389.59
465.50	18738.33
465.69	18948.98
465.87	18572.15
466.05	17738.92
466.23	16816.75
466.41	16851.86
466.60	17626.57
466.78	17259.11
466.96	17759.98
467.14	17879.35
467.32	17919.14
467.51	17841.90
467.69	17181.87
467.87	17717.86
468.05	17991.70
468.23	18218.73
468.41	18036.17
468.60	18265.54
468.78	18239.79
468.96	18153.20
469.14	18403.63
469.32	18778.12
469.50	17462.74
469.69	17319.96
469.87	17092.93
470.05	17415.93
470.23	17558.70
470.41	17717.86
470.59	17488.48
470.77	17914.46
470.95	18302.99
471.14	18721.95
471.32	18764.07
471.50	19379.64
471.68	19831.36
471.86	19733.06
472.04	19426.45
472.22	19700.29
472.40	18672.79
472.58	18525.34
472.77	18398.95
472.95	18410.65
473.13	19281.33
473.31	18700.88
473.49	19122.18
473.67	19122.18
473.85	19360.91
474.03	20074.77
474.21	20182.44
474.39	20386.07
474.57	20423.51
474.75	20989.92
474.93	19887.53
475.12	20130.95
475.30	19403.04
475.48	19639.44
475.66	19700.29
475.84	19810.29
476.02	19719.01
476.20	19211.12
476.38	19793.91
476.56	20732.47
476.74	20449.26
476.92	20973.54
477.10	20847.15
477.28	22111.04
477.46	21638.25
477.64	21825.50
477.82	21926.14
478.00	22157.85
478.18	21256.75
478.36	21869.97
478.54	22003.38
478.72	22171.89
478.90	23257.90
479.08	23426.42
479.26	23103.43
479.44	23047.26
479.62	23080.02
479.80	22761.71
479.98	23510.68
480.16	23672.18
480.34	22993.42
480.52	23295.35
480.70	23955.38
480.88	23885.17
481.06	24191.78
481.24	23927.30
481.41	24231.57
481.59	25357.36
481.77	24812.02
481.95	24854.15
482.13	24685.63
482.31	25099.90
482.49	25525.88
482.67	25324.60
482.85	25390.13
483.03	26260.81
483.21	26494.86
483.39	25570.35
483.57	24959.47
483.74	24624.78
483.92	25465.03
484.10	25041.39
484.28	26026.76
484.46	25872.28
484.64	26087.61
484.82	25617.16
485.00	25390.13
485.18	24812.02
485.35	23491.96
485.53	21282.49
485.71	19913.28
485.89	20039.67
486.07	21378.45
486.25	23236.84
486.43	24460.94
486.61	24790.95
486.78	25259.06
486.96	25549.29
487.14	26625.93
487.32	26443.37
487.50	27328.10
487.68	27679.18
487.85	28580.28
488.03	28697.31
488.21	28383.68
488.39	27515.34
488.57	26705.51
488.75	26906.80
488.92	28613.05
489.10	30218.66
489.28	30827.20
489.46	31435.74
489.64	30843.58
489.81	31281.26
489.99	31129.12
490.17	31435.74
490.35	31372.54
490.53	30508.88
490.70	29855.87
490.88	30548.67
491.06	31278.92
491.24	30953.58
491.41	29757.57
491.59	28233.88
491.77	28236.22
491.95	29727.14
492.13	30869.33
492.30	31379.56
492.48	32973.47
492.66	32720.69
492.84	32329.82
493.01	32147.26
493.19	31906.18
493.37	32140.24
493.54	32039.59
493.72	33242.63
493.90	33270.72
494.08	33706.05
494.25	34405.88
494.43	34560.35
494.61	34866.96
494.79	35093.99
494.96	34813.13
495.14	33502.43
495.32	33055.39
495.49	33141.99
495.67	34026.71
495.85	35887.43
496.02	36318.09
496.20	35070.59
496.38	35061.22
496.55	35194.64
496.73	35672.10
496.91	35583.16
497.09	36355.54
497.26	36601.30
497.44	35091.65
497.62	34742.91
497.79	33921.38
497.97	33195.82
498.14	33785.63
498.32	35587.85
498.50	35913.18
498.67	35784.45
498.85	36552.15
499.03	36840.03
499.20	37006.21
499.38	37038.98
499.56	36304.05
499.73	35817.22
499.91	34703.12
500.08	33921.38
500.26	33303.48
500.44	34541.63
500.61	35431.03
500.79	35110.38
500.97	34026.71
501.14	33663.93
501.32	33734.14
501.49	34019.69
501.67	34183.52
501.84	34965.26
502.02	35452.09
502.20	35608.91
502.37	35901.48
502.55	35819.56
502.72	36540.44
502.90	37118.56
503.07	36154.26
503.25	35344.43
503.43	33979.90
503.60	34328.64
503.78	33062.41
503.95	34445.66
504.13	36418.74
504.30	37336.23
504.48	36891.52
504.65	35894.46
504.83	36304.05
505.01	36989.83
505.18	36804.92
505.36	37523.47
505.53	37883.91
505.71	38494.79
505.88	39297.59
506.06	38120.31
506.23	37696.67
506.41	37598.37
506.58	37839.44
506.76	37095.15
506.93	37317.50
507.11	36294.69
507.28	37085.79
507.46	36594.28
507.63	35962.33
507.81	34988.67
507.98	35875.73
508.16	37099.83
508.33	38153.07
508.50	37469.64
508.68	38394.15
508.85	39297.59
509.03	38745.23
509.20	37996.26
509.38	36528.74
509.55	36645.77
509.73	37284.73
509.90	37273.03
510.08	37146.64
510.25	37399.42
510.42	36650.45
510.60	37535.17
510.77	38401.17
510.95	39667.40
511.12	39260.15
511.30	40297.00
511.47	39473.13
511.64	39321.00
511.82	38623.52
511.99	37596.03
512.17	37219.20
512.34	37457.93
512.51	36973.44
512.69	36449.16
512.86	37015.57
513.04	37722.41
513.21	38024.34
513.38	36896.20
513.56	35283.58
513.73	34810.79
513.90	35938.93
514.08	35473.16
514.25	37200.47
514.43	37277.71
514.60	36842.37
514.77	36418.74
514.95	38136.69
515.12	37289.42
515.29	36570.87
515.47	37703.69
515.64	38588.41
515.81	38557.99
515.99	37001.53
516.16	34148.42
516.33	31835.97
516.51	31386.58
516.68	29914.39
516.85	29816.08
517.03	30691.44
517.20	34211.61
517.37	36844.71
517.54	36910.25
517.72	35229.74
517.89	32744.09
518.06	31786.82
518.24	32320.46
518.41	33963.51
518.58	36285.33
518.75	36512.36
518.93	35950.63
519.10	35936.59
519.27	36495.97
519.45	37329.20
519.62	37455.59
519.79	37628.79
519.96	37448.57
520.14	37193.45
520.31	35768.07
520.48	36128.51
520.65	36664.49
520.83	38497.13
521.00	38377.76
521.17	37467.30
521.34	38007.96
521.52	38036.05
521.69	37921.36
521.86	38717.14
522.03	37926.04
522.20	36378.95
522.38	35449.75
522.55	36615.34
522.72	36470.23
522.89	36165.96
523.07	36940.68
523.24	37479.00
523.41	38281.80
523.58	38120.31
523.75	38665.65
523.92	39658.04
524.10	39250.78
524.27	39023.75
524.44	38967.58
524.61	38670.33
524.78	37865.19
524.96	37359.63
525.13	37186.43
525.30	38572.03
525.47	39262.49
525.64	39220.36
525.81	37247.29
525.98	35503.59
526.16	34686.74
526.33	32765.16
526.50	32095.77
526.67	32105.13
526.84	33589.03
527.01	35101.01
527.18	36149.57
527.36	37230.90
527.53	37270.69
527.70	37315.16
527.87	36402.35
528.04	37684.97
528.21	37923.70
528.38	39431.01
528.55	40226.79
528.72	40280.62
528.89	40341.47
529.07	39576.12
529.24	37734.12
529.41	37457.93
529.58	37715.39
529.75	38230.31
529.92	39239.08
530.09	39405.26
530.26	39515.26
530.43	39887.41
530.60	39302.28
530.77	39133.76
530.94	39454.41
531.11	38604.80
531.28	37858.17
531.46	37621.77
531.63	37457.93
531.80	37907.32
531.97	36151.91
532.14	35215.70
532.31	34263.10
532.48	35548.06
532.65	34675.04
532.82	35761.05
532.99	38019.66
533.16	38396.49
533.33	37846.46
533.50	36376.61
533.67	36753.43
533.84	37385.38
534.01	37158.34
534.18	37207.50
534.35	37975.19
534.52	37095.15
534.69	38501.81
534.86	38611.82
535.03	37628.79
535.20	38857.57
535.37	39454.41
535.54	39529.31
535.71	38895.02
535.88	38361.38
536.05	37158.34
536.22	37046.00
536.38	36996.85
536.55	35271.87
536.72	35262.51
536.89	35473.16
537.06	36371.92
537.23	38501.81
537.40	38101.58
537.57	38143.71
537.74	38122.65
537.91	38462.02
538.08	37031.96
538.25	36680.88
538.42	37958.81
538.59	37570.28
538.75	36392.99
538.92	36329.80
539.09	36699.60
539.26	36421.08
539.43	36222.13
539.60	35498.91
539.77	37130.26
539.94	36252.56
540.11	34440.98
540.28	34677.38
540.44	34473.75
540.61	35393.58
540.78	36971.10
540.95	37558.58
541.12	36872.80
541.29	36964.08
541.46	36713.64
541.62	37392.40
541.79	38047.75
541.96	36825.99
542.13	35737.64
542.30	35482.52
542.47	35658.06
542.63	35861.69
542.80	35725.94
542.97	36559.17
543.14	35414.65
543.31	36360.22
543.48	37001.53
543.64	36893.86
543.81	37666.24
543.98	37904.98
544.15	36481.93
544.32	35585.50
544.48	36620.02
544.65	37542.19
544.82	37708.37
544.99	36107.44
545.16	35920.20
545.32	36287.67
545.49	37668.58
545.66	36252.56
545.83	36201.07
546.00	36184.68
546.16	36327.45
546.33	36081.70
546.50	35803.17
546.67	37116.22
546.83	36219.79
547.00	35812.54
547.17	35342.09
547.34	34471.41
547.50	35564.44
547.67	35934.24
547.84	35519.97
548.00	36362.56
548.17	36165.96
548.34	35915.52
548.51	36128.51
548.67	37015.57
548.84	36896.20
549.01	37399.42
549.18	36601.30
549.34	36573.21
549.51	36245.54
549.68	36767.48
549.84	36350.86
550.01	35583.16
550.18	36065.31
550.34	35749.34
550.51	35578.48
550.68	35789.13
550.84	35646.36
551.01	35264.85
551.18	36142.55
551.34	36041.91
551.51	35318.68
551.68	36046.59
551.84	37130.26
552.01	36517.04
552.18	36226.81
552.34	35655.72
552.51	35161.87
552.68	35838.28
552.84	35910.84
553.01	35192.30
553.18	35136.12
553.34	34967.60
553.51	35983.40
553.67	36079.36
553.84	34960.58
554.01	35639.34
554.17	35501.25
554.34	35833.60
554.51	35330.39
554.67	35096.33
554.84	35573.80
555.00	35803.17
555.17	35534.01
555.33	34892.71
555.50	35534.01
555.67	34859.94
555.83	34087.56
556.00	33015.60
556.16	33919.04
556.33	33418.17
556.50	34546.31
556.66	34415.24
556.83	34918.45
556.99	34328.64
557.16	34092.24
557.32	34560.35
557.49	35426.35
557.65	34969.94
557.82	35283.58
557.98	34604.82
558.15	34553.33
558.32	33628.82
558.48	32238.54
558.65	32325.14
558.81	31166.57
558.98	31662.77
559.14	33596.05
559.31	34443.32
559.47	32875.16
559.64	31957.67
559.80	31171.25
559.97	32304.07
560.13	33654.56
560.30	34125.01
560.46	34983.99
560.63	35508.27
560.79	36313.41
560.96	34064.16
561.12	32540.47
561.29	32606.00
561.45	31747.03
561.61	31997.46
561.78	32587.28
561.94	33102.20
562.11	33118.58
562.27	33921.38
562.44	33809.04
562.60	34506.52
562.77	34209.27
562.93	33565.62
563.10	32428.12
563.26	33088.15
563.42	33167.73
563.59	32070.02
563.75	32137.90
563.92	32299.39
564.08	32800.27
564.24	32266.63
564.41	31950.65
564.57	33612.43
564.74	32442.17
564.90	32055.98
565.07	31927.25
565.23	30452.71
565.39	30906.77
565.56	31311.69
565.72	31119.76
565.88	30752.30
566.05	31599.57
566.21	32870.48
566.38	30995.71
566.54	31821.92
566.70	32514.72
566.87	32826.01
567.03	31999.80
567.19	31840.65
567.36	31749.37
567.52	31630.00
567.68	32250.24
567.85	31213.38
568.01	29610.12
568.17	30508.88
568.34	31381.90
568.50	31445.10
568.66	31871.07
568.83	31913.20
568.99	31225.09
569.15	31288.28
569.32	31868.73
569.48	31005.08
569.64	30249.08
569.81	31087.00
569.97	30661.02
570.13	31012.10
570.30	30735.92
570.46	29919.07
570.62	29347.98
570.78	29207.55
570.95	29830.13
571.11	30476.12
571.27	30874.01
571.43	30974.65
571.60	31007.42
571.76	30918.48
571.92	31140.83
572.09	30646.97
572.25	31304.67
572.41	32460.89
572.57	33057.73
572.74	32727.71
572.90	31742.35
573.06	31206.36
573.22	30326.32
573.38	29607.78
573.55	30532.29
573.71	29628.84
573.87	30349.73
574.03	30417.60
574.20	30654.00
574.36	30714.85
574.52	32322.80
574.68	29832.47
574.84	29043.71
575.01	29277.76
575.17	29500.11
575.33	29909.71
575.49	29413.51
575.65	30054.82
575.82	29675.65
575.98	29621.82
576.14	29429.90
576.30	29092.86
576.46	29408.83
576.62	30162.48
576.79	30139.08
576.95	29584.37
577.11	28458.57
577.27	29415.85
577.43	29926.09
577.59	29275.42
577.75	29270.74
577.92	28332.18
578.08	27927.27
578.24	28489.00
578.40	28325.16
578.56	28746.46
578.72	28975.83
578.88	28884.55
579.04	29296.49
579.21	28966.47
579.37	29083.50
579.53	30064.18
579.69	30787.41
579.85	29495.43
580.01	28755.82
580.17	28776.89
580.33	28914.98
580.49	28954.77
580.65	28381.34
580.82	28807.31
580.98	28929.02
581.14	29734.17
581.30	28694.97
581.46	28774.55
581.62	28627.09
581.78	28982.85
581.94	29116.26
582.10	29542.24
582.26	29324.57
582.42	29488.41
582.58	29385.43
582.74	29331.59
582.90	29647.57
583.06	29560.97
583.22	29015.62
583.38	29553.94
583.54	29340.96
583.70	29179.46
583.86	28744.12
584.02	29212.23
584.18	29642.88
584.34	29535.22
584.50	29259.04
584.66	28540.49
584.82	28484.32
584.98	28678.58
585.14	27929.61
585.30	27873.44
585.46	27496.61
585.62	27351.50
585.78	28081.75
585.94	27962.38
586.10	26899.78
586.26	27311.71
586.42	27733.01
586.58	27960.04
586.74	28126.22
586.90	28418.78
587.06	28088.77
587.22	28444.53
587.38	28292.40
587.54	27573.85
587.70	26923.18
587.86	26485.50
588.02	26464.44
588.18	26244.43
588.34	24919.68
588.49	23623.03
588.65	22434.03
588.81	23985.81
588.97	22871.72
589.13	23300.03
589.29	23304.71
589.45	23555.15
589.61	24444.56
589.77	25078.84
589.93	25500.14
590.08	25497.80
590.24	26197.62
590.40	25174.80
590.56	25462.69
590.72	25336.30
590.88	24933.73
591.04	24966.49
591.20	25146.72
591.35	25207.57
591.51	25420.56
591.67	27035.53
591.83	25586.74
591.99	25212.25
592.15	25811.43
592.31	25947.18
592.46	25144.38
592.62	25720.15
592.78	26370.82
592.94	26443.37
593.10	26178.89
593.26	26235.06
593.41	25013.31
593.57	25010.96
593.73	25582.06
593.89	25509.50
594.05	25404.17
594.20	25025.01
594.36	24526.47
594.52	24114.54
594.68	24524.13
594.84	24723.08
594.99	25507.16
595.15	24271.36
595.31	24755.85
595.47	25626.53
595.62	25331.62
595.78	25333.96
595.94	25876.96
596.10	24306.46
596.25	24170.71
596.41	24809.68
596.57	25324.60
596.73	25106.93
596.88	25399.49
597.04	24720.74
597.20	24290.08
597.36	24353.27
597.51	24835.42
597.67	24154.33
597.83	24716.06
597.99	24755.85
598.14	23814.95
598.30	23711.97
598.46	23899.21
598.61	24009.22
598.77	24025.60
598.93	24173.05
599.09	24013.90
599.24	25366.73
599.40	23992.83
599.56	24783.93
599.71	24545.20
599.87	23931.98
600.03	23608.98
600.18	23349.18
600.34	23049.60
600.50	23910.91
600.65	24156.67
600.81	23601.96
600.97	23770.48
601.12	23597.28
601.28	23154.92
601.44	23541.11
601.59	24020.92
601.75	23094.07
601.91	23250.88
602.06	24027.94
602.22	24116.88
602.37	23817.29
602.53	24395.40
602.69	24404.77
602.84	24414.13
603.00	24215.18
603.16	24676.27
603.31	24343.91
603.47	23819.63
603.62	23618.35
603.78	23702.61
603.94	23449.83
604.09	23541.11
604.25	24451.58
604.40	23924.96
604.56	24624.78
604.71	25450.99
604.87	25324.60
605.03	24451.58
605.18	24018.58
605.34	24126.24
605.49	23236.84
605.65	24133.26
605.80	23824.31
605.96	23878.15
606.12	23667.50
606.27	23997.51
606.43	23396.00
606.58	23386.63
606.74	23323.44
606.89	23871.12
607.05	23583.24
607.20	22874.06
607.36	23040.23
607.51	23206.41
607.67	23145.56
607.82	23213.43
607.98	22700.86
608.13	22892.78
608.29	22874.06
608.44	22855.33
608.60	23192.37
608.75	21958.91
608.91	22352.12
609.06	22960.66
609.22	23335.14
609.37	22965.34
609.53	23185.35
609.68	22033.80
609.84	21355.05
609.99	22204.66
610.15	21436.97
610.30	22183.60
610.46	22373.18
610.61	22181.26
610.76	22317.01
610.92	21996.35
611.07	22553.40
611.23	22710.22
611.38	23098.75
611.54	22806.18
611.69	22412.97
611.84	22499.57
612.00	21614.85
612.15	21795.07
612.31	21748.26
612.46	21694.43
612.62	22291.26
612.77	22232.75
612.92	22576.81
613.08	21579.74
613.23	20519.48
613.39	20617.78
613.54	20666.93
613.69	21280.15
613.85	22340.41
614.00	21759.96
614.15	21329.30
614.31	21881.67
614.46	22111.04
614.62	21486.12
614.77	20662.25
614.92	20896.30
615.08	21509.52
615.23	20404.79
615.38	20891.62
615.54	20641.18
615.69	20168.40
615.84	19538.79
616.00	20053.71
616.15	20070.09
616.30	19737.74
616.46	19737.74
616.61	20203.50
616.76	20706.72
616.92	20561.61
617.07	20767.57
617.22	20905.66
617.37	20898.64
617.53	20603.74
617.68	20652.89
617.83	20842.47
617.99	20905.66
618.14	20762.89
618.29	20608.42
618.45	20266.70
618.60	20627.14
618.75	19641.78
618.90	19939.02
619.06	19908.60
619.21	20042.01
619.36	20126.27
619.51	19822.00
619.67	19648.80
619.82	20915.03
619.97	21252.06
620.12	21703.79
620.28	20865.88
620.43	21577.40
620.58	20617.78
620.73	21282.49
620.89	20528.84
621.04	19648.80
621.19	19000.47
621.34	18848.33
621.49	19606.67
621.65	20084.14
621.80	20252.66
621.95	19932.00
622.10	19501.34
622.25	18857.70
622.41	18934.93
622.56	18363.84
622.71	18558.11
622.86	18349.80
623.01	18476.19
623.16	18523.00
623.32	18888.12
623.47	19337.51
623.62	19161.97
623.77	19407.72
623.92	18899.83
624.07	18593.22
624.23	18623.64
624.38	18754.71
624.53	17795.09
624.68	17900.42
624.83	18073.62
624.98	18134.47
625.13	17984.68
625.29	18607.26
625.44	18558.11
625.59	18258.52
625.74	18057.23
625.89	19056.64
626.04	18778.12
626.19	18525.34
626.34	18525.34
626.49	17341.03
626.65	17823.18
626.80	18143.83
626.95	18553.43
627.10	18597.90
627.25	18258.52
627.40	17596.15
627.55	16737.17
627.70	16297.15
627.85	16765.26
628.00	17481.46
628.15	17099.95
628.30	17254.43
628.45	17500.19
628.60	17266.13
628.76	17268.47
628.91	17198.26
629.06	17458.06
629.21	18806.20
629.36	17626.57
629.51	17001.65
629.66	16299.49
629.81	16243.32
629.96	17186.55
630.11	16601.42
630.26	16879.94
630.41	16861.22
630.56	16657.59
630.71	16823.77
630.86	16734.83
631.01	16491.41
631.16	17003.99
631.31	16189.49
631.46	16681.00
631.61	16393.11
631.76	16285.45
631.91	16585.04
632.06	16430.56
632.21	16978.25
632.36	16493.76
632.51	16198.85
632.66	16791.00
632.81	16407.16
632.96	16641.21
633.10	16362.69
633.25	16821.43
633.40	16505.46
633.55	16011.60
633.70	15800.96
633.85	15939.05
634.00	16559.29
634.15	16519.50
634.30	15969.48
634.45	15829.04
634.60	16245.66
634.75	15810.32
634.90	16159.06
635.05	16723.13
635.19	16325.24
635.34	16348.64
635.49	16067.78
635.64	16222.25
635.79	16322.90
635.94	17013.35
636.09	17717.86
636.24	17034.42
636.39	16767.60
636.53	16975.91
636.68	16793.34
636.83	16662.27
636.98	16479.71
637.13	16807.39
637.28	17205.28
637.43	17369.12
637.57	17191.23
637.72	16641.21
637.87	16594.40
638.02	15929.69
638.17	16273.74
638.32	16936.12
638.46	16732.49
638.61	16009.26
638.76	16755.90
638.91	16327.58
639.06	16149.70
639.20	16292.47
639.35	15672.23
639.50	15424.13
639.65	15672.23
639.80	15667.55
639.94	15492.01
640.09	15466.26
640.24	15276.68
640.39	14991.13
640.54	14476.21
640.68	15150.29
640.83	14949.00
640.98	15506.05
641.13	15906.28
641.27	15948.41
641.42	15293.06
641.57	15314.13
641.72	15456.90
641.86	15508.39
642.01	16030.33
642.16	15522.43
642.31	15030.92
642.45	15033.26
642.60	14977.09
642.75	14640.05
642.90	15199.44
643.04	15201.78
643.19	14565.15
643.34	14466.85
643.48	14778.14
643.63	14665.80
643.78	14555.79
643.93	14427.06
644.07	14792.19
644.22	14843.68
644.37	14808.57
644.51	14532.39
644.66	14319.40
644.81	14881.13
644.95	14876.44
645.10	14611.96
645.25	14342.80
645.39	13788.10
645.54	14335.78
645.69	13694.47
645.83	14033.85
645.98	14338.12
646.13	14120.45
646.27	14356.85
646.42	14420.04
646.57	14200.03
646.71	14178.97
646.86	14319.40
647.00	13820.86
647.15	13912.14
647.30	14054.92
647.44	13593.83
647.59	13357.44
647.74	13752.99
647.88	13511.91
648.03	13240.41
648.17	13270.84
648.32	13444.04
648.47	13832.57
648.61	14038.53
648.76	14122.79
648.90	13345.73
649.05	12924.44
649.20	12870.61
649.34	12262.07
649.49	12674.00
649.63	12891.67
649.78	13114.02
649.92	13071.89
650.07	13813.84
650.21	13298.92
650.36	13462.76
650.51	13479.15
650.65	13980.02
650.80	14239.82
650.94	13804.48
651.09	13509.57
651.23	13198.28
651.38	12912.74
651.52	12802.73
651.67	13319.99
651.81	13846.61
651.96	13846.61
652.10	13778.73
652.25	13820.86
652.39	13467.44
652.54	13043.81
652.68	13565.74
652.83	13336.37
652.97	13240.41
653.12	12901.03
653.26	12835.50
653.41	12844.86
653.55	13046.15
653.70	13439.36
653.84	12903.37
653.99	13444.04
654.13	13027.42
654.27	12835.50
654.42	13001.68
654.56	12936.14
654.71	12798.05
654.85	12367.39
655.00	12435.27
655.14	12002.27
655.29	11847.79
655.43	12058.44
655.57	11276.70
655.72	10347.51
655.86	9891.10
656.01	9668.75
656.15	10015.15
656.30	10607.31
656.44	10820.30
656.58	11002.86
656.73	11499.05
656.87	11651.19
657.01	11880.56
657.16	11566.93
657.30	11758.85
657.45	12070.14
657.59	11836.09
657.73	11590.33
657.88	11927.37
658.02	12224.62
658.16	12180.15
658.31	12360.37
658.45	12142.70
658.60	11887.58
658.74	12807.41
658.88	12620.17
659.03	12093.55
659.17	12159.08
659.31	12170.79
659.46	11592.67
659.60	12184.83
659.74	12236.32
659.89	12461.01
660.03	12226.96
660.17	12098.23
660.32	11948.43
660.46	11953.12
660.60	11969.50
660.74	12039.72
660.89	12215.26
661.03	12418.88
661.17	12479.74
661.32	12528.89
661.46	12383.77
661.60	12559.31
661.74	12250.36
661.89	12578.04
662.03	12421.22
662.17	11653.53
662.31	11730.76
662.46	11775.24
662.60	11440.54
662.74	11073.07
662.88	10988.82
663.03	11386.71
663.17	11307.13
663.31	10995.84
663.45	11321.17
663.60	11541.18
663.74	11178.40
663.88	11602.04
664.02	11227.55
664.17	11337.56
664.31	10972.43
664.45	10569.86
664.59	11162.01
664.73	11599.70
664.88	11758.85
665.02	12100.57
665.16	11997.59
665.30	12334.62
665.44	12205.89
665.59	11726.08
665.73	11529.48
665.87	11082.44
666.01	11335.21
666.15	10902.22
666.29	10920.94
666.44	11323.51
666.58	11349.26
666.72	11461.60
666.86	11606.72
667.00	11330.53
667.14	10724.33
667.28	10890.51
667.43	11016.90
667.57	11300.11
667.71	11349.26
667.85	11288.40
667.99	11609.06
668.13	11456.92
668.27	11124.57
668.41	11283.72
668.56	10984.13
668.70	10808.59
668.84	11265.00
668.98	11325.85
669.12	10677.52
669.26	10600.29
669.40	10289.00
669.54	10408.36
669.68	10111.11
669.82	10195.37
669.96	10530.07
670.10	10588.58
670.25	10509.01
670.39	9966.00
670.53	9958.98
670.67	10258.57
670.81	9916.85
670.95	9757.69
671.09	9923.87
671.23	9951.96
671.37	9724.93
671.51	9502.58
671.65	9675.77
671.79	9818.55
671.93	10450.49
672.07	10693.91
672.21	9722.59
672.35	9923.87
672.49	9893.44
672.63	9680.46
672.77	9809.19
672.91	9558.75
673.05	9825.57
673.19	9275.54
673.33	9689.82
673.47	10494.96
673.61	10106.43
673.75	9444.06
673.89	9493.21
674.03	9104.68
674.17	9528.32
674.31	9437.04
674.45	9385.55
674.59	9633.64
674.73	9582.15
674.87	9563.43
675.01	8926.80
675.15	8980.64
675.29	9125.75
675.43	8781.69
675.56	8655.30
675.70	9102.34
675.84	9305.97
675.98	8793.39
676.12	8706.79
676.26	8468.06
676.40	8472.74
676.54	8959.57
676.68	8849.57
676.82	8725.52
676.96	8683.39
677.10	8608.49
677.23	8468.06
677.37	8519.55
677.51	8428.27
677.65	8257.41
677.79	8056.12
677.93	8234.00
678.07	8290.18
678.21	8533.59
678.34	8748.92
678.48	8725.52
678.62	8301.88
678.76	8564.02
678.90	8290.18
679.04	8479.76
679.18	8746.58
679.31	8610.83
679.45	8208.26
679.59	8299.54
679.73	8339.33
679.87	8435.29
680.00	8203.58
680.14	8079.53
680.28	8540.61
680.42	7791.64
680.56	7833.77
680.70	7606.74
680.83	7716.75
680.97	8266.77
681.11	8065.49
681.25	8191.88
681.39	7850.16
681.52	7852.50
681.66	7618.44
681.80	7365.67
681.94	7557.59
682.07	7847.82
682.21	7412.48
682.35	7805.69
682.49	7480.35
682.62	7447.58
682.76	7309.49
682.90	6890.54
683.04	6881.18
683.17	6794.58
683.31	7138.63
683.45	7485.03
683.59	7000.54
683.72	6775.85
683.86	6827.34
684.00	6485.62
684.13	6359.24
684.27	6562.86
684.41	6656.48
684.55	6841.39
684.68	7150.34
684.82	7070.76
684.96	6951.39
685.09	6684.57
685.23	6853.09
685.37	6569.88
685.50	6609.67
685.64	6810.96
685.78	6600.31
685.91	6628.40
686.05	6869.47
686.19	6551.16
686.32	6148.59
686.46	5296.63
686.60	4858.95
686.73	4255.09
686.87	3969.55
687.01	4138.07
687.14	4334.67
687.28	4781.71
687.42	4964.28
687.55	5022.79
687.69	5261.52
687.82	5439.40
687.96	5313.02
688.10	5462.81
688.23	5727.29
688.37	5643.03
688.50	5039.17
688.64	5083.64
688.78	4933.85
688.91	5160.88
689.05	5055.56
689.18	5057.90
689.32	5174.92
689.46	4887.04
689.59	4985.34
689.73	5233.44
689.86	5090.67
690.00	4793.42
690.13	5177.26
690.27	4945.55
690.41	4865.97
690.54	4917.47
690.68	5078.96
690.81	5277.91
690.95	5423.02
691.08	5352.81
691.22	5624.31
691.35	5413.66
691.49	5268.55
691.62	5055.56
691.76	5313.02
691.89	5135.14
692.03	5121.09
692.16	5135.14
692.30	5167.90
692.43	4961.94
692.57	4882.36
692.70	4805.12
692.84	4908.10
692.97	4770.01
693.11	4739.58
693.24	4456.38
693.38	4772.35
693.51	4800.44
693.65	4739.58
693.78	4386.16
693.92	4498.51
694.05	4503.19
694.19	4332.33
694.32	4149.77
694.45	4215.30
694.59	4568.73
694.72	4423.61
694.86	4564.04
694.99	4573.41
695.13	4631.92
695.26	4720.86
695.39	4493.83
695.53	4524.26
695.66	4573.41
695.80	4397.87
695.93	4425.95
696.07	4847.25
696.20	4990.02
696.33	4957.25
696.47	4842.57
696.60	4344.03
696.73	4540.64
696.87	4884.70
697.00	4561.70
697.14	4681.07
697.27	4428.29
697.40	4416.59
697.54	4402.55
697.67	4432.97
697.80	4489.15
697.94	4493.83
698.07	4484.47
698.21	4245.73
698.34	4053.81
698.47	4077.21
698.61	3871.25
698.74	4032.74
698.87	4016.36
699.01	4161.47
699.14	4140.41
699.27	4227.01
699.40	4365.10
699.54	4154.45
699.67	4112.32
699.80	4205.94
699.94	3985.93
700.07	3887.63
700.20	3871.25
700.34	3751.88
700.47	3651.24
700.60	3510.80
700.73	3735.50
700.87	3667.62
701.00	3581.02
701.13	3634.85
701.26	3543.57
701.40	3527.19
701.53	3611.45
701.66	3517.83
701.79	3571.66
701.93	3496.76
702.06	3407.82
702.19	3468.67
702.32	3337.60
702.46	3449.95
702.59	3606.77
702.72	3529.53
702.85	3592.72
702.99	3709.75
703.12	3693.37
703.25	3595.06
703.38	3485.06
703.51	3407.82
703.65	3410.16
703.78	3492.08
703.91	3463.99
704.04	3382.07
704.17	3389.10
704.31	3468.67
704.44	3480.38
704.57	3384.41
704.70	3335.26
704.83	3311.86
704.96	3328.24
705.10	3335.26
705.23	3262.71
>>>>>End Processed Spectral Data<<<<<
