SpectraSuite Data File
++++++++++++++++++++++++++++++++++++
Date: Mon Oct 07 14:54:58 GMT-05:00 2013
User: price-jones
Dark Spectrum Present: No
Reference Spectrum Present: No
Number of Sampled Component Spectra: 1
Spectrometers: USB2+H05261
Integration Time (usec): 10000 (USB2+H05261)
Spectra Averaged: 1 (USB2+H05261)
Boxcar Smoothing: 0 (USB2+H05261)
Correct for Electrical Dark: No (USB2+H05261)
Strobe/Lamp Enabled: No (USB2+H05261)
Correct for Detector Non-linearity: No (USB2+H05261)
Correct for Stray Light: No (USB2+H05261)
Number of Pixels in Processed Spectrum: 2048
>>>>>Begin Processed Spectral Data<<<<<
365.73	0.00
365.92	0.00
366.12	0.00
366.32	0.00
366.52	0.00
366.72	0.00
366.91	0.00
367.11	0.00
367.31	0.00
367.51	0.00
367.70	0.00
367.90	0.00
368.10	0.00
368.30	0.00
368.49	0.00
368.69	0.00
368.89	0.00
369.09	0.00
369.28	0.00
369.48	0.00
369.68	0.00
369.87	0.00
370.07	0.00
370.27	0.00
370.47	203.63
370.66	1423.05
370.86	1750.72
371.06	1689.87
371.25	1624.33
371.45	1530.71
371.65	1378.58
371.84	1399.64
372.04	1413.68
372.24	1624.33
372.44	1673.48
372.63	1600.93
372.83	1476.88
373.03	1348.15
373.22	1266.23
373.42	1437.09
373.62	1535.39
373.81	1685.19
374.01	1631.35
374.21	1427.73
374.40	1378.58
374.60	1444.11
374.79	1760.08
374.99	2029.24
375.19	2015.20
375.38	2078.40
375.58	1914.56
375.78	1940.30
375.97	1923.92
376.17	2062.01
376.37	2183.72
376.56	2197.76
376.76	2263.30
376.95	2448.20
377.15	2544.16
377.35	2560.55
377.54	2745.45
377.74	2743.11
377.93	2759.49
378.13	2698.64
378.33	2487.99
378.52	2352.24
378.72	2253.94
378.91	2195.42
379.11	2188.40
379.31	2141.59
379.50	2033.93
379.70	2265.64
379.89	2513.74
380.09	2616.72
380.28	2738.43
380.48	2733.75
380.68	2633.10
380.87	2429.48
381.07	2368.62
381.26	2160.31
381.46	2043.29
381.65	1874.77
381.85	1870.09
382.04	1774.13
382.24	1774.13
382.43	1610.29
382.63	1554.12
382.83	1685.19
383.02	1558.80
383.22	1434.75
383.41	1631.35
383.61	1856.04
383.80	2085.42
384.00	2385.01
384.19	2579.27
384.39	2675.23
384.58	2651.83
384.78	2722.04
384.97	2607.36
385.17	2499.69
385.36	2312.45
385.56	2197.76
385.75	2347.56
385.95	2614.38
386.14	2567.57
386.34	2738.43
386.53	2551.18
386.72	2513.74
386.92	2555.86
387.11	2586.29
387.31	2743.11
387.50	2775.88
387.70	2654.17
387.89	2637.78
388.09	2693.96
388.28	2560.55
388.48	2768.85
388.67	2920.99
388.86	3262.71
389.06	3478.04
389.25	3524.85
389.45	3707.41
389.64	3744.86
389.84	3606.77
390.03	3487.40
390.22	3592.72
390.42	3775.28
390.61	3885.29
390.81	4088.92
391.00	4283.18
391.19	4086.58
391.39	4025.72
391.58	3761.24
391.78	3517.83
391.97	3517.83
392.16	3148.02
392.36	2640.12
392.55	2120.53
392.75	1671.14
392.94	1530.71
393.13	1479.22
393.33	1912.22
393.52	2434.16
393.71	2967.80
393.91	3300.16
394.10	3552.93
394.29	3990.61
394.49	4079.55
394.68	4402.55
394.88	4407.23
395.07	4524.26
395.26	4596.81
395.46	4257.43
395.65	3976.57
395.84	3274.41
396.04	2773.53
396.23	2188.40
396.42	1952.01
396.62	2015.20
396.81	2562.89
397.00	3150.36
397.19	3936.78
397.39	4863.63
397.58	5050.88
397.77	5193.65
397.97	5516.64
398.16	5535.37
398.35	5809.21
398.55	5966.03
398.74	6361.58
398.93	6380.30
399.12	6291.36
399.32	6094.76
399.51	6366.26
399.70	6539.46
399.90	6459.88
400.09	6410.73
400.28	6607.33
400.47	6441.15
400.67	6785.21
400.86	7016.93
401.05	7253.32
401.24	7012.24
401.44	7187.79
401.63	7002.88
401.82	7269.70
402.01	7155.02
402.21	7204.17
402.40	7300.13
402.59	7014.59
402.78	6729.04
402.97	6497.33
403.17	6953.73
403.36	7241.62
403.55	7265.02
403.74	7585.68
403.93	7199.49
404.13	6583.93
404.32	6703.29
404.51	7009.90
404.70	7489.71
404.89	7384.39
405.09	7309.49
405.28	7045.01
405.47	7138.63
405.66	7148.00
405.85	6810.96
406.05	6771.17
406.24	6892.88
406.43	7033.31
406.62	7332.90
406.81	7293.11
407.00	6939.69
407.20	6682.23
407.39	6890.54
407.58	7421.84
407.77	7831.43
407.96	7742.49
408.15	7810.37
408.34	8114.64
408.54	8255.07
408.73	8414.23
408.92	8191.88
409.11	7885.26
409.30	7662.91
409.49	7005.22
409.68	6630.74
409.87	6843.73
410.07	7218.21
410.26	7541.21
410.45	7918.03
410.64	8257.41
410.83	8313.58
411.02	8667.00
411.21	9034.47
411.40	8659.98
411.59	8898.72
411.78	8669.34
411.98	8446.99
412.17	8697.43
412.36	8692.75
412.55	8702.11
412.74	8229.32
412.93	8196.56
413.12	8421.25
413.31	9200.65
413.50	9357.46
413.69	9310.65
413.88	8748.92
414.07	8847.22
414.26	9055.53
414.45	9434.70
414.64	9273.20
414.83	9280.22
415.02	9144.47
415.22	9263.84
415.41	9490.87
415.60	9621.94
415.79	10066.64
415.98	10274.95
416.17	9940.26
416.36	9703.86
416.55	9767.06
416.74	9444.06
416.93	9327.03
417.12	9411.29
417.31	9362.14
417.50	9474.49
417.69	9542.36
417.88	9731.95
418.07	9605.56
418.26	9486.19
418.45	9930.89
418.64	10153.24
418.83	10506.66
419.02	10057.28
419.21	9795.14
419.39	9493.21
419.58	9088.30
419.77	9277.88
419.96	9905.15
420.15	10118.14
420.34	10656.46
420.53	10972.43
420.72	11250.96
420.91	10635.39
421.10	10544.11
421.29	10661.14
421.48	10223.46
421.67	10593.26
421.86	10221.12
422.05	9310.65
422.24	8645.94
422.43	8898.72
422.61	9715.56
422.80	10176.65
422.99	10080.69
423.18	9841.95
423.37	9715.56
423.56	10104.09
423.75	10115.80
423.94	10609.65
424.13	9685.14
424.32	9490.87
424.50	9596.20
424.69	9664.07
424.88	9832.59
425.07	9628.96
425.26	9612.58
425.45	9430.02
425.64	9441.72
425.83	9701.52
426.01	10026.86
426.20	10076.01
426.39	9856.00
426.58	9100.00
426.77	8521.89
426.96	8428.27
427.15	8830.84
427.33	9502.58
427.52	9778.76
427.71	10001.11
427.90	9458.10
428.09	9525.98
428.28	9554.07
428.46	9118.73
428.65	9259.16
428.84	9322.35
429.03	9338.74
429.22	8606.15
429.40	8039.74
429.59	7349.28
429.78	6612.01
429.97	6750.10
430.16	6640.10
430.34	6679.89
430.53	6743.08
430.72	7283.75
430.91	7908.67
431.10	9455.76
431.28	10815.62
431.47	11290.74
431.66	11400.75
431.85	10001.11
432.03	9390.23
432.22	9483.85
432.41	10246.87
432.60	10888.17
432.79	11194.78
432.97	11325.85
433.16	11171.38
433.35	9914.51
433.54	8762.97
433.72	8704.45
433.91	9116.39
434.10	10216.44
434.28	10972.43
434.47	10960.73
434.66	10677.52
434.85	10572.20
435.03	10906.90
435.22	11211.17
435.41	11307.13
435.59	11566.93
435.78	11686.29
435.97	11925.03
436.16	11747.15
436.34	11854.81
436.53	11845.45
436.72	11859.49
436.90	10815.62
437.09	11119.89
437.28	11061.37
437.46	11279.04
437.65	11094.14
437.84	10265.59
438.02	9628.96
438.21	9802.16
438.40	10492.62
438.58	11136.27
438.77	11218.19
438.96	11253.30
439.14	12229.30
439.33	11899.28
439.52	12208.23
439.70	11770.55
439.89	11351.60
440.08	11426.50
440.26	11473.31
440.45	11758.85
440.63	12872.95
440.82	13275.52
441.01	13006.36
441.19	13149.13
441.38	13303.60
441.57	13518.93
441.75	13355.10
441.94	13738.94
442.12	13731.92
442.31	14366.21
442.50	14232.80
442.68	13722.56
442.87	13612.56
443.05	13476.80
443.24	14029.17
443.43	14026.83
443.61	14143.86
443.80	14441.11
443.98	13437.02
444.17	14043.21
444.35	14476.21
444.54	14476.21
444.73	14558.13
444.91	13888.74
445.10	12966.57
445.28	12776.98
445.47	12348.67
445.65	12554.63
445.84	13020.40
446.02	13474.46
446.21	13727.24
446.39	13961.30
446.58	14129.81
446.77	14345.14
446.95	14445.79
447.14	14684.52
447.32	14803.89
447.51	14513.66
447.69	13687.45
447.88	13617.24
448.06	13923.85
448.25	14141.52
448.43	14080.66
448.62	13767.03
448.80	13881.72
448.99	13940.23
449.17	14384.93
449.36	14420.04
449.54	14516.00
449.73	15227.53
449.91	15005.17
450.10	15412.43
450.28	15831.38
450.46	15279.02
450.65	15166.67
450.83	15372.64
451.02	15112.84
451.20	14731.33
451.39	14899.85
451.57	14710.27
451.76	14862.40
451.94	14616.65
452.13	14230.46
452.31	13521.27
452.49	13338.71
452.68	13556.38
452.86	13692.13
453.05	13769.37
453.23	14270.25
453.42	14480.89
453.60	14476.21
453.78	14923.26
453.97	14569.83
454.15	14396.64
454.34	13900.44
454.52	14230.46
454.70	14279.61
454.89	14246.84
455.07	14218.75
455.26	14518.34
455.44	15000.49
455.62	15030.92
455.81	15349.23
455.99	14941.98
456.17	15363.28
456.36	15077.73
456.54	15667.55
456.73	15538.82
456.91	15765.85
457.09	15887.56
457.28	15974.16
457.46	15386.68
457.64	15499.03
457.83	14754.74
458.01	14614.30
458.19	15150.29
458.38	15183.06
458.56	15328.17
458.74	15459.24
458.93	15087.09
459.11	15190.08
459.29	14934.96
459.48	14888.15
459.66	15070.71
459.84	14794.53
460.03	15679.25
460.21	15592.65
460.39	15815.00
460.57	15807.98
460.76	15971.82
460.94	16168.42
461.12	15779.89
461.31	15763.51
461.49	15857.13
461.67	15978.84
461.85	15985.86
462.04	16102.89
462.22	16273.74
462.40	16348.64
462.59	16128.63
462.77	15765.85
462.95	15981.18
463.13	16219.91
463.32	15974.16
463.50	15386.68
463.68	15779.89
463.86	15845.43
464.05	15880.53
464.23	14963.04
464.41	14787.50
464.59	14796.87
464.78	15051.99
464.96	15419.45
465.14	15178.37
465.32	15669.89
465.50	16126.29
465.69	16449.28
465.87	15665.21
466.05	15213.48
466.23	14906.87
466.41	14850.70
466.60	15391.36
466.78	15087.09
466.96	15384.34
467.14	15433.49
467.32	15365.62
467.51	15482.64
467.69	14934.96
467.87	15096.46
468.05	15761.17
468.23	15482.64
468.41	15641.80
468.60	15627.76
468.78	15548.18
468.96	15658.18
469.14	16074.80
469.32	16025.65
469.50	14927.94
469.69	15054.33
469.87	14895.17
470.05	15089.43
470.23	15152.63
470.41	15349.23
470.59	15342.21
470.77	15136.24
470.95	15562.22
471.14	15625.42
471.32	16102.89
471.50	16987.61
471.68	16753.55
471.86	17235.70
472.04	16898.67
472.22	16688.02
472.40	16074.80
472.58	16453.97
472.77	15864.15
472.95	16496.10
473.13	16645.89
473.31	16381.41
473.49	16205.87
473.67	16769.94
473.85	16304.17
474.03	16718.45
474.21	16872.92
474.39	17291.88
474.57	16877.60
474.75	17128.04
474.93	17399.54
475.12	16947.82
475.30	16985.27
475.48	16912.71
475.66	17032.08
475.84	16931.44
476.02	16856.54
476.20	16617.80
476.38	16575.67
476.56	17385.50
476.74	17898.08
476.92	18125.11
477.10	18118.09
477.28	18647.05
477.46	18546.40
477.64	18609.60
477.82	18506.62
478.00	18731.31
478.18	18590.88
478.36	18462.15
478.54	18057.23
478.72	18616.62
478.90	19489.64
479.08	19384.32
479.26	19346.87
479.44	18911.53
479.62	19604.33
479.80	19990.52
479.98	19943.70
480.16	19681.56
480.34	19473.26
480.52	19623.05
480.70	19604.33
480.88	19913.28
481.06	20594.37
481.24	20601.40
481.41	21064.82
481.59	21563.36
481.77	21022.69
481.95	20601.40
482.13	21067.16
482.31	20503.09
482.49	21268.45
482.67	20599.05
482.85	20940.77
483.03	20968.86
483.21	21348.03
483.39	21635.91
483.57	21362.07
483.74	20961.84
483.92	21249.72
484.10	21469.73
484.28	21673.36
484.46	22057.21
484.64	21539.95
484.82	21481.44
485.00	21603.14
485.18	20580.33
485.35	19992.86
485.53	17497.84
485.71	16657.59
485.89	17015.69
486.07	18040.85
486.25	19494.32
486.43	20383.73
486.61	19637.09
486.78	20262.02
486.96	20912.69
487.14	21930.82
487.32	22300.62
487.50	22396.59
487.68	22153.17
487.85	23658.14
488.03	23489.62
488.21	22724.26
488.39	21774.00
488.57	22377.86
488.75	22480.85
488.92	23704.95
489.10	25385.45
489.28	25207.57
489.46	26026.76
489.64	26295.92
489.81	26036.12
489.99	25008.62
490.17	25724.83
490.35	26417.63
490.53	25294.17
490.70	25450.99
490.88	25666.31
491.06	26654.02
491.24	26155.49
491.41	24802.66
491.59	24074.75
491.77	23604.30
491.95	24776.91
492.13	25090.54
492.30	25781.00
492.48	27213.41
492.66	27498.95
492.84	26396.56
493.01	26616.57
493.19	25998.67
493.37	24919.68
493.54	25514.18
493.72	26342.73
493.90	27349.16
494.08	28198.77
494.25	28725.39
494.43	28950.09
494.61	29694.38
494.79	29518.84
494.96	29144.35
495.14	27733.01
495.32	26813.18
495.49	26869.35
495.67	27707.26
495.85	29336.27
496.02	29214.57
496.20	29493.09
496.38	29022.64
496.55	29032.00
496.73	29284.78
496.91	28861.15
497.09	29266.06
497.26	29579.69
497.44	29879.28
497.62	29088.18
497.79	28320.48
497.97	27213.41
498.14	27503.64
498.32	28652.84
498.50	28989.88
498.67	30286.53
498.85	29600.76
499.03	29177.12
499.20	29385.43
499.38	29193.50
499.56	28559.22
499.73	28383.68
499.91	28182.39
500.08	27550.45
500.26	27131.49
500.44	28067.70
500.61	28795.61
500.79	27807.90
500.97	27686.20
501.14	27903.87
501.32	26843.60
501.49	27000.42
501.67	27840.67
501.84	28971.15
502.02	28526.45
502.20	28746.46
502.37	29745.87
502.55	29907.37
502.72	30340.36
502.90	30408.24
503.07	29888.64
503.25	29284.78
503.43	28755.82
503.60	27831.31
503.78	27227.45
503.95	28379.00
504.13	28402.40
504.30	30003.33
504.48	30401.22
504.65	29724.80
504.83	29694.38
505.01	29284.78
505.18	29593.73
505.36	31175.94
505.53	31077.63
505.71	31412.33
505.88	31688.51
506.06	31115.08
506.23	30295.89
506.41	29757.57
506.58	30455.05
506.76	29647.57
506.93	30258.45
507.11	28673.90
507.28	29680.33
507.46	29432.24
507.63	28840.08
507.81	28077.07
507.98	28751.14
508.16	29965.88
508.33	30728.89
508.50	30092.27
508.68	30857.62
508.85	31473.18
509.03	30902.09
509.20	30059.50
509.38	29795.02
509.55	29626.50
509.73	30118.01
509.90	30668.04
510.08	29752.89
510.25	29596.07
510.42	29642.88
510.60	29659.27
510.77	30794.43
510.95	31220.41
511.12	30125.04
511.30	30707.83
511.47	31875.76
511.64	30883.37
511.82	31339.77
511.99	29816.08
512.17	29799.70
512.34	30038.44
512.51	29352.66
512.69	29539.90
512.86	30377.81
513.04	30206.95
513.21	30644.63
513.38	30209.29
513.56	29579.69
513.73	28182.39
513.90	28107.49
514.08	28814.34
514.25	29062.43
514.43	29605.44
514.60	30197.59
514.77	29699.06
514.95	29996.31
515.12	29827.79
515.29	30637.61
515.47	30677.40
515.64	30251.42
515.81	30864.64
515.99	29535.22
516.16	27517.68
516.33	25408.86
516.51	24137.94
516.68	23852.40
516.85	23096.41
517.03	23974.11
517.20	26218.68
517.37	28519.43
517.54	28423.47
517.72	27040.21
517.89	25891.01
518.06	25294.17
518.24	25579.71
518.41	27239.15
518.58	28175.37
518.75	28353.25
518.93	28652.84
519.10	27983.44
519.27	28194.09
519.45	29137.33
519.62	29514.16
519.79	30426.96
519.96	29937.79
520.14	29198.18
520.31	28470.28
520.48	28383.68
520.65	28952.43
520.83	29656.93
521.00	29598.41
521.17	29137.33
521.34	28905.62
521.52	29118.60
521.69	30029.07
521.86	30148.44
522.03	29226.27
522.20	28325.16
522.38	27435.76
522.55	27730.67
522.72	28245.58
522.89	28245.58
523.07	28854.12
523.24	29282.44
523.41	29989.28
523.58	29823.11
523.75	29631.18
523.92	30632.93
524.10	30361.43
524.27	30223.34
524.44	30174.19
524.61	30934.86
524.78	30902.09
524.96	30092.27
525.13	29715.44
525.30	31112.74
525.47	31449.78
525.64	30710.17
525.81	28790.93
525.98	27255.54
526.16	25930.80
526.33	26082.93
526.50	26471.46
526.67	26188.25
526.84	26359.11
527.01	27342.14
527.18	28376.66
527.36	29008.60
527.53	30143.76
527.70	29486.07
527.87	27976.42
528.04	28161.33
528.21	29144.35
528.38	29771.61
528.55	31159.55
528.72	30651.66
528.89	30380.15
529.07	30534.63
529.24	29149.03
529.41	29209.89
529.58	28505.38
529.75	28716.03
529.92	28872.85
530.09	29448.62
530.26	29284.78
530.43	28835.40
530.60	30167.16
530.77	30600.16
530.94	30984.01
531.11	29996.31
531.28	29788.00
531.46	29443.94
531.63	30213.98
531.80	30682.08
531.97	29020.30
532.14	27604.28
532.31	26270.17
532.48	25937.82
532.65	26132.08
532.82	27257.88
532.99	28444.53
533.16	29731.83
533.33	30934.86
533.50	29708.42
533.67	28364.95
533.84	28657.52
534.01	29015.62
534.18	28800.29
534.35	28596.67
534.52	28847.10
534.69	28907.96
534.86	29024.98
535.03	29287.12
535.20	30244.40
535.37	29802.04
535.54	30054.82
535.71	29064.77
535.88	29516.50
536.05	28629.43
536.22	28053.66
536.38	27744.71
536.55	28252.61
536.72	27789.18
536.89	27695.56
537.06	28371.97
537.23	29067.11
537.40	28636.45
537.57	28517.09
537.74	28044.30
537.91	28205.80
538.08	29188.82
538.25	29081.16
538.42	28348.57
538.59	28804.97
538.75	28725.39
538.92	28435.17
539.09	27566.83
539.26	26485.50
539.43	26331.03
539.60	26864.67
539.77	26712.53
539.94	26075.91
540.11	25385.45
540.28	24823.72
540.44	25647.59
540.61	26370.82
540.78	26059.52
540.95	27222.77
541.12	27016.80
541.29	27934.29
541.46	27215.75
541.62	27615.98
541.79	26923.18
541.96	26618.91
542.13	27367.88
542.30	27358.52
542.47	27573.85
542.63	27143.19
542.80	26410.60
542.97	26436.35
543.14	26111.02
543.31	26316.98
543.48	27821.95
543.64	27946.00
543.81	28917.32
543.98	27749.39
544.15	27400.65
544.32	26621.25
544.48	27391.29
544.65	26661.04
544.82	26810.84
544.99	27075.32
545.16	26881.05
545.32	27569.17
545.49	27866.42
545.66	28032.60
545.83	27398.31
546.00	27243.84
546.16	26778.07
546.33	27049.57
546.50	27386.61
546.67	27061.27
546.83	26874.03
547.00	26412.95
547.17	26244.43
547.34	26541.68
547.50	26499.55
547.67	26391.88
547.84	26466.78
548.00	26668.06
548.17	26274.85
548.34	26118.04
548.51	26270.17
548.67	27878.12
548.84	27096.38
549.01	27136.17
549.18	26885.73
549.34	27777.48
549.51	27599.60
549.68	27187.66
549.84	26314.64
550.01	26721.90
550.18	25687.38
550.34	26073.57
550.51	26068.89
550.68	25373.75
550.84	24854.15
551.01	25064.80
551.18	24744.14
551.34	24952.45
551.51	26010.37
551.68	27110.43
551.84	26094.63
552.01	26146.12
552.18	25530.56
552.34	25273.10
552.51	25376.09
552.68	26277.19
552.84	25448.64
553.01	25802.07
553.18	26721.90
553.34	26883.39
553.51	26457.42
553.67	26256.13
553.84	27040.21
554.01	27091.70
554.17	25458.01
554.34	26408.26
554.51	26768.71
554.67	26515.93
554.84	25713.13
555.00	25706.10
555.17	25771.64
555.33	25865.26
555.50	26717.22
555.67	26061.87
555.83	26391.88
556.00	25656.95
556.16	25692.06
556.33	25046.07
556.50	24861.17
556.66	24435.19
556.83	23946.02
556.99	24364.98
557.16	24961.81
557.32	25160.76
557.49	24596.69
557.65	25095.22
557.82	24098.16
557.98	24584.99
558.15	25017.99
558.32	24245.61
558.48	23293.01
558.65	23190.03
558.81	23503.66
558.98	23489.62
559.14	24126.24
559.31	24702.01
559.47	23660.48
559.64	23711.97
559.80	24580.31
559.97	24142.63
560.13	24669.25
560.30	24716.06
560.46	24620.10
560.63	25137.35
560.79	25495.46
560.96	24723.08
561.12	23821.97
561.29	23515.36
561.45	23571.54
561.61	23566.85
561.78	23381.95
561.94	23805.59
562.11	23625.37
562.27	23758.78
562.44	24287.74
562.60	23976.45
562.77	24250.29
562.93	23917.93
563.10	23534.09
563.26	23328.12
563.42	23133.86
563.59	22867.03
563.75	23756.44
563.92	23892.19
564.08	23524.72
564.24	23522.38
564.41	22223.39
564.57	22941.93
564.74	22794.48
564.90	22448.08
565.07	22302.96
565.23	21603.14
565.39	21759.96
565.56	22675.11
565.72	22525.32
565.88	23171.30
566.05	22478.50
566.21	22422.33
566.38	22017.42
566.54	22544.04
566.70	22054.87
566.87	22349.78
567.03	23941.34
567.19	24004.53
567.36	22707.88
567.52	23477.91
567.68	22759.37
567.85	22504.25
568.01	22642.34
568.17	21568.04
568.34	20943.11
568.50	21111.63
568.66	21816.13
568.83	21776.34
568.99	22539.36
569.15	22579.15
569.32	22501.91
569.48	21998.70
569.64	21577.40
569.81	21146.74
569.97	21607.83
570.13	21729.53
570.30	21687.40
570.46	21259.09
570.62	20112.22
570.78	19309.42
570.95	20156.69
571.11	20805.02
571.27	21062.48
571.43	20793.32
571.60	21233.34
571.76	21633.57
571.92	21869.97
572.09	22075.93
572.25	21678.04
572.41	22324.03
572.57	22251.47
572.74	21397.18
572.90	21479.10
573.06	21429.94
573.22	21158.44
573.38	21083.55
573.55	20676.29
573.71	21247.38
573.87	21350.37
574.03	21429.94
574.20	21233.34
574.36	21001.63
574.52	20898.64
574.68	20372.02
574.84	20404.79
575.01	20856.51
575.17	21008.65
575.33	20552.24
575.49	20475.01
575.65	20503.09
575.82	20575.65
575.98	20355.64
576.14	20910.35
576.30	20673.95
576.46	20187.12
576.62	20854.17
576.79	20556.93
576.95	20058.39
577.11	19594.96
577.27	19609.01
577.43	19737.74
577.59	19840.72
577.75	20332.23
577.92	19527.09
578.08	19400.70
578.24	19126.86
578.40	19491.98
578.56	19440.49
578.72	19779.87
578.88	20144.99
579.04	19690.93
579.21	19960.09
579.37	20140.31
579.53	19513.05
579.69	19461.55
579.85	19176.01
580.01	19014.51
580.17	19417.08
580.33	19356.23
580.49	19192.39
580.65	19758.80
580.82	19709.65
580.98	19484.96
581.14	19278.99
581.30	20372.02
581.46	19770.51
581.62	19466.24
581.78	20128.61
581.94	20252.66
582.10	19955.41
582.26	20034.99
582.42	19782.21
582.58	20343.94
582.74	20063.07
582.90	19620.71
583.06	20039.67
583.22	19679.22
583.38	19962.43
583.54	19901.58
583.70	19936.68
583.86	19995.20
584.02	20032.65
584.18	19728.38
584.34	20023.28
584.50	20428.20
584.66	20163.72
584.82	20009.24
584.98	19470.92
585.14	18829.61
585.30	18497.25
585.46	18302.99
585.62	17825.52
585.78	18464.49
585.94	18590.88
586.10	19140.90
586.26	18815.57
586.42	19033.24
586.58	19152.60
586.74	18412.99
586.90	18394.27
587.06	18792.16
587.22	18073.62
587.38	18354.48
587.54	18637.69
587.70	18073.62
587.86	18155.54
588.02	17710.83
588.18	17783.39
588.34	17238.05
588.49	16922.07
588.65	15758.83
588.81	15508.39
588.97	15550.52
589.13	15655.84
589.29	15332.85
589.45	16035.01
589.61	17338.69
589.77	17352.73
589.93	16966.54
590.08	17317.62
590.24	18113.41
590.40	17647.64
590.56	17350.39
590.72	16875.26
590.88	16973.56
591.04	17188.89
591.20	16992.29
591.35	17387.84
591.51	18024.47
591.67	17729.56
591.83	17631.26
591.99	17207.62
592.15	17469.76
592.31	16996.97
592.46	16596.74
592.62	16886.97
592.78	17376.14
592.94	16847.18
593.10	17025.06
593.26	17022.72
593.41	17277.83
593.57	17556.36
593.73	17326.99
593.89	16723.13
594.05	16243.32
594.20	15857.13
594.36	16252.68
594.52	16643.55
594.68	16313.53
594.84	16388.43
594.99	16755.90
595.15	16791.00
595.31	16496.10
595.47	16449.28
595.62	16496.10
595.78	16140.33
595.94	16592.06
596.10	16833.13
596.25	16442.26
596.41	16783.98
596.57	16673.98
596.73	16350.98
596.88	16418.86
597.04	16248.00
597.20	15585.63
597.36	15634.78
597.51	15627.76
597.67	16013.95
597.83	15779.89
597.99	15721.38
598.14	15239.23
598.30	14775.80
598.46	14602.60
598.61	15639.46
598.77	15885.22
598.93	16329.92
599.09	16592.06
599.24	15716.70
599.40	16379.07
599.56	15985.86
599.71	16166.08
599.87	15770.53
600.03	16044.37
600.18	15932.03
600.34	16493.76
600.50	16243.32
600.65	16439.92
600.81	16535.88
600.97	16039.69
601.12	15594.99
601.28	15187.74
601.44	15323.49
601.59	15199.44
601.75	15344.55
601.91	15494.35
602.06	15194.76
602.22	15726.06
602.37	15857.13
602.53	15850.11
602.69	15281.36
602.84	15344.55
603.00	15985.86
603.16	15763.51
603.31	15639.46
603.47	15365.62
603.62	15382.00
603.78	15932.03
603.94	15594.99
604.09	16341.62
604.25	16283.11
604.40	16044.37
604.56	15768.19
604.71	15618.39
604.87	15772.87
605.03	16236.30
605.18	15707.34
605.34	15744.78
605.49	15154.97
605.65	15435.83
605.80	14951.34
605.96	14855.38
606.12	15021.56
606.27	14738.35
606.43	14834.32
606.58	15007.52
606.74	15220.50
606.89	15419.45
607.05	15351.57
607.20	15524.77
607.36	15323.49
607.51	15396.04
607.67	14736.01
607.82	14764.10
607.98	14878.79
608.13	14801.55
608.29	15042.62
608.44	14707.93
608.60	14604.94
608.75	14815.59
608.91	14806.23
609.06	14628.35
609.22	14366.21
609.37	15143.27
609.53	15295.40
609.68	14445.79
609.84	14340.46
609.99	14052.58
610.15	13532.98
610.30	13907.46
610.46	14026.83
610.61	14157.90
610.76	14525.36
610.92	15152.63
611.07	15452.22
611.23	15300.08
611.38	15000.49
611.54	13982.36
611.69	13341.05
611.84	13343.39
612.00	13577.45
612.15	13617.24
612.31	14228.12
612.46	14303.01
612.62	14045.55
612.77	13862.99
612.92	14031.51
613.08	13727.24
613.23	13289.56
613.39	13228.71
613.54	13149.13
613.69	13158.49
613.85	13591.49
614.00	13156.15
614.15	13167.85
614.31	13483.83
614.46	13319.99
614.62	13500.21
614.77	13394.89
614.92	13142.11
615.08	13507.23
615.23	13235.73
615.38	13481.49
615.54	13022.74
615.69	12507.82
615.84	12058.44
616.00	12484.42
616.15	12931.46
616.30	12704.43
616.46	12554.63
616.61	12620.17
616.76	12765.28
616.92	12704.43
617.07	13303.60
617.22	13205.30
617.37	13200.62
617.53	12973.59
617.68	12884.65
617.83	13025.08
617.99	13018.06
618.14	12924.44
618.29	12758.26
618.45	12556.97
618.60	12226.96
618.75	12372.07
618.90	12484.42
619.06	12779.32
619.21	12994.65
619.36	12774.64
619.51	13074.23
619.67	12734.85
619.82	12758.26
619.97	12505.48
620.12	12615.49
620.28	12683.36
620.43	12606.13
620.58	12615.49
620.73	12643.57
620.89	13029.76
621.04	12889.33
621.19	12133.34
621.34	12423.56
621.49	12262.07
621.65	12259.73
621.80	12091.21
621.95	12266.75
622.10	12418.88
622.25	11641.82
622.41	11707.36
622.56	11896.94
622.71	12042.06
622.86	12334.62
623.01	12269.09
623.16	12156.74
623.32	12294.83
623.47	11887.58
623.62	11997.59
623.77	11981.20
623.92	11992.90
624.07	11367.98
624.23	11566.93
624.38	11550.54
624.53	11843.11
624.68	11627.78
624.83	11272.02
624.98	11002.86
625.13	11410.11
625.29	11279.04
625.44	11255.64
625.59	11384.37
625.74	11744.81
625.89	11272.02
626.04	11290.74
626.19	11019.24
626.34	11297.77
626.49	10977.11
626.65	11012.22
626.80	11101.16
626.95	11257.98
627.10	11234.57
627.25	10911.58
627.40	10562.84
627.55	10115.80
627.70	10630.71
627.85	10457.51
628.00	10523.05
628.15	10860.09
628.30	10597.95
628.45	10382.62
628.60	10466.88
628.76	10675.18
628.91	10509.01
629.06	10525.39
629.21	10417.72
629.36	10469.22
629.51	10345.17
629.66	10747.74
629.81	10555.82
629.96	10478.58
630.11	10516.03
630.26	10424.75
630.41	10494.96
630.56	10066.64
630.71	10134.52
630.86	10043.24
631.01	10076.01
631.16	10080.69
631.31	9914.51
631.46	9724.93
631.61	9961.32
631.76	10228.14
631.91	10300.70
632.06	10389.64
632.21	10682.20
632.36	10974.77
632.51	10803.91
632.66	11037.97
632.81	10403.68
632.96	10019.83
633.10	10129.84
633.25	10204.74
633.40	10349.85
633.55	10160.27
633.70	9802.16
633.85	9989.41
634.00	9919.19
634.15	9582.15
634.30	9633.64
634.45	9799.82
634.60	10279.63
634.75	10148.56
634.90	10176.65
635.05	10003.45
635.19	10136.86
635.34	10253.89
635.49	10148.56
635.64	9935.57
635.79	9774.08
635.94	9554.07
636.09	9448.74
636.24	9825.57
636.39	9661.73
636.53	9722.59
636.68	10120.48
636.83	10335.81
636.98	10036.22
637.13	9984.73
637.28	10057.28
637.43	9907.49
637.57	10108.77
637.72	9961.32
637.87	9760.03
638.02	9397.25
638.17	9884.08
638.32	9968.34
638.46	9303.63
638.61	9242.78
638.76	9214.69
638.91	9324.69
639.06	9806.84
639.20	9919.19
639.35	9696.84
639.50	9661.73
639.65	9423.00
639.80	9324.69
639.94	9252.14
640.09	9291.93
640.24	9369.16
640.39	9497.89
640.54	9680.46
640.68	9371.50
640.83	9523.64
640.98	9448.74
641.13	9121.07
641.27	8975.95
641.42	8826.16
641.57	8552.32
641.72	8819.14
641.86	9123.41
642.01	9439.38
642.16	9551.73
642.31	9254.48
642.45	9268.52
642.60	9348.10
642.75	9411.29
642.90	9268.52
643.04	9565.77
643.19	9088.30
643.34	8922.12
643.48	8674.03
643.63	8594.45
643.78	8498.49
643.93	8994.68
644.07	8767.65
644.22	9104.68
644.37	9104.68
644.51	9013.40
644.66	8524.23
644.81	8507.85
644.95	8767.65
645.10	8667.00
645.25	8833.18
645.39	8741.90
645.54	8458.70
645.69	8430.61
645.83	8011.65
645.98	8112.30
646.13	8510.19
646.27	8727.86
646.42	8407.20
646.57	8692.75
646.71	8706.79
646.86	8624.87
647.00	8446.99
647.15	8271.45
647.30	8664.66
647.44	8491.46
647.59	8297.20
647.74	8067.83
647.88	7929.74
648.03	7826.75
648.17	7957.82
648.32	8439.97
648.47	8168.47
648.61	7768.24
648.76	7620.78
648.90	7344.60
649.05	7180.76
649.20	7171.40
649.34	7386.73
649.49	7290.77
649.63	7382.05
649.78	7777.60
649.92	7728.45
650.07	8131.02
650.21	7985.91
650.36	8156.77
650.51	7859.52
650.65	8145.06
650.80	7983.57
650.94	7992.93
651.09	7747.17
651.23	8009.31
651.38	7946.12
651.52	8145.06
651.67	7925.05
651.81	7983.57
651.96	7901.65
652.10	7812.71
652.25	7772.92
652.39	7829.09
652.54	8004.63
652.68	7810.37
652.83	8016.33
652.97	8194.22
653.12	8021.02
653.26	7946.12
653.41	7641.85
653.55	7801.01
653.70	7770.58
653.84	7843.14
653.99	8056.12
654.13	8128.68
654.27	7662.91
654.42	7578.65
654.56	7190.13
654.71	7363.33
654.85	7412.48
655.00	7478.01
655.14	7419.50
655.29	6944.37
655.43	7012.24
655.57	6827.34
655.72	6204.76
655.86	5638.35
656.01	5472.17
656.15	5675.80
656.30	6333.49
656.44	6476.26
656.58	6377.96
656.73	6696.27
656.87	7110.55
657.01	6750.10
657.16	6871.81
657.30	7016.93
657.45	7091.82
657.59	7286.09
657.73	7365.67
657.88	7459.29
658.02	7269.70
658.16	7435.88
658.31	7478.01
658.45	7478.01
658.60	7314.17
658.74	7346.94
658.88	7206.51
659.03	7143.32
659.17	7218.21
659.31	7119.91
659.46	7103.53
659.60	7215.87
659.74	7080.12
659.89	7330.56
660.03	7220.55
660.17	7213.53
660.32	7152.68
660.46	7080.12
660.60	7023.95
660.74	6974.80
660.89	6946.71
661.03	6927.99
661.17	6885.86
661.32	7091.82
661.46	6855.43
661.60	7218.21
661.74	7293.11
661.89	7108.21
662.03	6846.07
662.17	6970.12
662.31	6937.35
662.46	7279.07
662.60	7026.29
662.74	6738.40
662.88	6672.87
663.03	6855.43
663.17	6796.92
663.31	6775.85
663.45	6502.01
663.60	6588.61
663.74	6684.57
663.88	6445.84
664.02	6338.17
664.17	6399.02
664.31	6310.08
664.45	6487.96
664.59	6377.96
664.73	6623.72
664.88	6466.90
665.02	6415.41
665.16	6406.05
665.30	6455.20
665.44	6640.10
665.59	6768.83
665.73	6644.78
665.87	6656.48
666.01	6696.27
666.15	6609.67
666.29	6548.82
666.44	6466.90
666.58	6314.77
666.72	6480.94
666.86	6480.94
667.00	6441.15
667.14	6239.87
667.28	6150.93
667.43	6380.30
667.57	6289.02
667.71	6263.27
667.85	6134.54
667.99	6237.53
668.13	6448.18
668.27	6066.67
668.41	5975.39
668.56	6120.50
668.70	6235.19
668.84	5970.71
668.98	5970.71
669.12	6125.18
669.26	6099.44
669.40	5834.96
669.54	5753.04
669.68	5715.59
669.82	5530.69
669.96	5624.31
670.10	5591.54
670.25	5624.31
670.39	5867.72
670.53	5556.43
670.67	5689.84
670.81	5849.00
670.95	5909.85
671.09	5916.87
671.23	5542.39
671.37	5439.40
671.51	5633.67
671.65	5720.27
671.79	5521.32
671.93	5348.12
672.07	5675.80
672.21	5664.10
672.35	5764.74
672.49	5685.16
672.63	5652.39
672.77	5628.99
672.91	5500.26
673.05	5486.22
673.19	5535.37
673.33	5462.81
673.47	5497.92
673.61	5465.15
673.75	5320.04
673.89	5217.05
674.03	5170.24
674.17	5533.03
674.31	5556.43
674.45	5465.15
674.59	5497.92
674.73	5266.21
674.87	5355.15
675.01	5294.29
675.15	5345.78
675.29	5247.48
675.43	5027.47
675.56	5025.13
675.70	5137.48
675.84	5114.07
675.98	4983.00
676.12	5025.13
676.26	4987.68
676.40	5085.98
676.54	5217.05
676.68	5139.82
676.82	4746.61
676.96	4943.21
677.10	4966.62
677.23	4999.38
677.37	5039.17
677.51	5022.79
677.65	5034.49
677.79	4861.29
677.93	5111.73
678.07	5212.37
678.21	4926.83
678.34	5078.96
678.48	4971.30
678.62	4968.96
678.76	4905.76
678.90	4772.35
679.04	4844.91
679.18	4865.97
679.31	4851.93
679.45	4849.59
679.59	4746.61
679.73	4713.84
679.87	4430.63
680.00	4568.73
680.14	4585.11
680.28	4468.08
680.42	4337.01
680.56	4278.50
680.70	4229.35
680.83	4311.27
680.97	4456.38
681.11	4276.16
681.25	4306.59
681.39	4126.36
681.52	4238.71
681.66	4182.54
681.80	4217.65
681.94	4252.75
682.07	4325.31
682.21	4278.50
682.35	4348.72
682.49	4297.22
682.62	4313.61
682.76	4259.78
682.90	4320.63
683.04	4201.26
683.17	4100.62
683.31	3992.95
683.45	3906.35
683.59	3852.52
683.72	4182.54
683.86	3969.55
684.00	3854.86
684.13	4065.51
684.27	3871.25
684.41	3988.27
684.55	3932.10
684.68	3847.84
684.82	3880.61
684.96	3578.68
685.09	3730.81
685.23	3751.88
685.37	3681.66
685.50	3791.67
685.64	3803.37
685.78	3829.12
685.91	3499.10
686.05	3396.12
686.19	3239.30
686.32	3166.74
686.46	2944.39
686.60	2567.57
686.73	2438.84
686.87	2272.66
687.01	2235.21
687.14	2335.85
687.28	2230.53
687.42	2534.80
687.55	2988.86
687.69	2944.39
687.82	3075.46
687.96	2850.77
688.10	2928.01
688.23	3028.65
688.37	2967.80
688.50	2754.81
688.64	2853.11
688.78	2642.46
688.91	2738.43
689.05	2649.49
689.18	2726.72
689.32	2738.43
689.46	2670.55
689.59	2754.81
689.73	2616.72
689.86	2726.72
690.00	2640.12
690.13	2717.36
690.27	2789.92
690.41	2754.81
690.54	2986.52
690.68	2785.24
690.81	2729.06
690.95	2792.26
691.08	2881.20
691.22	2888.22
691.35	3007.59
691.49	3030.99
691.62	2876.52
691.76	2724.38
691.89	2787.58
692.03	2890.56
692.16	2787.58
692.30	2848.43
692.43	2841.41
692.57	2684.59
692.70	2726.72
692.84	2712.68
692.97	2644.81
693.11	2710.34
693.24	2647.15
693.38	2590.97
693.51	2588.63
693.65	2513.74
693.78	2452.88
693.92	2410.75
694.05	2466.92
694.19	2523.10
694.32	2471.61
694.45	2539.48
694.59	2537.14
694.72	2602.68
694.86	2579.27
694.99	2698.64
695.13	2558.21
695.26	2670.55
695.39	2588.63
695.53	2590.97
695.66	2469.27
695.80	2382.67
695.93	2354.58
696.07	2527.78
696.20	2429.48
696.33	2471.61
696.47	2373.30
696.60	2497.35
696.73	2448.20
696.87	2541.82
697.00	2457.56
697.14	2230.53
697.27	2385.01
697.40	2324.15
697.54	2160.31
697.67	2162.66
697.80	2186.06
697.94	2230.53
698.07	2167.34
698.21	2202.44
698.34	2183.72
698.47	2139.25
698.61	2083.08
698.74	2165.00
698.87	2200.10
699.01	2209.47
699.14	2118.18
699.27	2129.89
699.40	2031.58
699.54	1989.46
699.67	1942.64
699.80	2059.67
699.94	1956.69
700.07	2029.24
700.20	1968.39
700.34	1870.09
700.47	1795.19
700.60	1952.01
700.73	1940.30
700.87	1963.71
701.00	2019.88
701.13	1881.79
701.26	1720.29
701.40	1893.49
701.53	1930.94
701.66	1881.79
701.79	1809.23
701.93	1813.92
702.06	1792.85
702.19	1727.32
702.32	1795.19
702.46	1734.34
702.59	1732.00
702.72	1760.08
702.85	1715.61
702.99	1856.04
703.12	1860.73
703.25	1813.92
703.38	1802.21
703.51	1732.00
703.65	1722.63
703.78	1837.32
703.91	1797.53
704.04	1764.76
704.17	1755.40
704.31	1792.85
704.44	1827.96
704.57	1696.89
704.70	1739.02
704.83	1666.46
704.96	1652.42
705.10	1607.95
705.23	1675.82
>>>>>End Processed Spectral Data<<<<<
