SpectraSuite Data File
++++++++++++++++++++++++++++++++++++
Date: Mon Oct 07 14:54:57 GMT-05:00 2013
User: price-jones
Dark Spectrum Present: No
Reference Spectrum Present: No
Number of Sampled Component Spectra: 1
Spectrometers: USB2+H05261
Integration Time (usec): 10000 (USB2+H05261)
Spectra Averaged: 1 (USB2+H05261)
Boxcar Smoothing: 0 (USB2+H05261)
Correct for Electrical Dark: No (USB2+H05261)
Strobe/Lamp Enabled: No (USB2+H05261)
Correct for Detector Non-linearity: No (USB2+H05261)
Correct for Stray Light: No (USB2+H05261)
Number of Pixels in Processed Spectrum: 2048
>>>>>Begin Processed Spectral Data<<<<<
365.73	0.00
365.92	0.00
366.12	0.00
366.32	0.00
366.52	0.00
366.72	0.00
366.91	0.00
367.11	0.00
367.31	0.00
367.51	0.00
367.70	0.00
367.90	0.00
368.10	0.00
368.30	0.00
368.49	0.00
368.69	0.00
368.89	0.00
369.09	0.00
369.28	0.00
369.48	0.00
369.68	0.00
369.87	0.00
370.07	0.00
370.27	0.00
370.47	124.05
370.66	1631.35
370.86	1895.83
371.06	1961.37
371.25	1898.17
371.45	1647.74
371.65	1600.93
371.84	1577.52
372.04	1640.72
372.24	1769.44
372.44	1914.56
372.63	1631.35
372.83	1568.16
373.03	1479.22
373.22	1350.49
373.42	1432.41
373.62	1743.70
373.81	1701.57
374.01	1685.19
374.21	1530.71
374.40	1490.92
374.60	1530.71
374.79	1863.07
374.99	2202.44
375.19	2256.28
375.38	2251.60
375.58	2122.87
375.78	2090.10
375.97	2069.03
376.17	2122.87
376.37	2307.77
376.56	2237.55
376.76	2513.74
376.95	2576.93
377.15	2684.59
377.35	2939.71
377.54	3033.33
377.74	3253.34
377.93	3030.99
378.13	2850.77
378.33	2803.96
378.52	2497.35
378.72	2459.90
378.91	2389.69
379.11	2347.56
379.31	2167.34
379.50	2284.36
379.70	2612.04
379.89	2689.28
380.09	2850.77
380.28	3016.95
380.48	3005.25
380.68	2883.54
380.87	2754.81
381.07	2464.58
381.26	2342.88
381.46	2258.62
381.65	2146.27
381.85	2047.97
382.04	1956.69
382.24	1797.53
382.43	1776.47
382.63	1699.23
382.83	1739.02
383.02	1685.19
383.22	1764.76
383.41	1739.02
383.61	1867.75
383.80	2326.49
384.00	2534.80
384.19	2869.50
384.39	2956.10
384.58	2918.65
384.78	2970.14
384.97	2778.22
385.17	2569.91
385.36	2579.27
385.56	2448.20
385.75	2417.77
385.95	2869.50
386.14	3009.93
386.34	2963.12
386.53	2843.75
386.72	2700.98
386.92	2794.60
387.11	2937.37
387.31	2918.65
387.50	2916.31
387.70	2890.56
387.89	2881.20
388.09	2874.18
388.28	2913.97
388.48	3056.74
388.67	3353.99
388.86	3452.29
389.06	3761.24
389.25	4037.42
389.45	4112.32
389.64	3946.14
389.84	3941.46
390.03	3651.24
390.22	3812.73
390.42	4086.58
390.61	4348.72
390.81	4631.92
391.00	4655.33
391.19	4512.55
391.39	4264.46
391.58	4131.05
391.78	3904.01
391.97	3618.47
392.16	3391.44
392.36	2918.65
392.55	2406.07
392.75	1881.79
392.94	1444.11
393.13	1636.03
393.33	2062.01
393.52	2670.55
393.71	3251.00
393.91	3627.83
394.10	3817.41
394.29	4285.52
394.49	4681.07
394.68	4880.02
394.88	4966.62
395.07	5064.92
395.26	4798.10
395.46	4674.05
395.65	4510.21
395.84	3634.85
396.04	3007.59
396.23	2459.90
396.42	2136.91
396.62	2286.70
396.81	2637.78
397.00	3410.16
397.19	4327.65
397.39	5179.61
397.58	5675.80
397.77	5987.09
397.97	6237.53
398.16	6171.99
398.35	6574.56
398.55	6651.80
398.74	6857.77
398.93	6909.26
399.12	6853.09
399.32	6403.71
399.51	6537.12
399.70	7239.28
399.90	6916.28
400.09	6993.52
400.28	7295.45
400.47	7524.82
400.67	7662.91
400.86	7648.87
401.05	7770.58
401.24	7566.95
401.44	7588.02
401.63	7761.22
401.82	7810.37
402.01	7927.39
402.21	8060.80
402.40	7999.95
402.59	7768.24
402.78	7332.90
402.97	7248.64
403.17	7480.35
403.36	7925.05
403.55	8053.78
403.74	8056.12
403.93	7702.70
404.13	7279.07
404.32	7201.83
404.51	7744.83
404.70	7990.59
404.89	8093.57
405.09	7932.08
405.28	7709.72
405.47	7964.84
405.66	7784.62
405.85	7470.99
406.05	7150.34
406.24	7410.14
406.43	7880.58
406.62	7878.24
406.81	7896.97
407.00	7777.60
407.20	7325.88
407.39	7896.97
407.58	8053.78
407.77	8388.48
407.96	8549.98
408.15	8840.20
408.34	8875.31
408.54	9282.56
408.73	9458.10
408.92	8964.25
409.11	8617.85
409.30	8189.53
409.49	7758.88
409.68	7328.22
409.87	7300.13
410.07	7925.05
410.26	8196.56
410.45	8706.79
410.64	8875.31
410.83	9312.99
411.02	9607.90
411.21	9877.06
411.40	9764.72
411.59	9624.28
411.78	9722.59
411.98	9446.40
412.17	9511.94
412.36	9355.12
412.55	9341.08
412.74	9226.39
412.93	9050.85
413.12	9345.76
413.31	10101.75
413.50	10003.45
413.69	9928.55
413.88	9413.63
414.07	9682.80
414.26	9916.85
414.45	10209.42
414.64	10230.48
414.83	10150.90
415.02	9942.60
415.22	9870.04
415.41	10174.31
415.60	10408.36
415.79	10824.98
415.98	11246.27
416.17	10981.79
416.36	10555.82
416.55	10572.20
416.74	10373.25
416.93	10017.49
417.12	10026.86
417.31	10111.11
417.50	10249.21
417.69	10745.40
417.88	10682.20
418.07	10422.41
418.26	10410.70
418.45	10459.85
418.64	10855.40
418.83	11328.19
419.02	11154.99
419.21	10817.96
419.39	10305.38
419.58	10141.54
419.77	10022.17
419.96	10576.88
420.15	11122.23
420.34	11566.93
420.53	12161.42
420.72	11836.09
420.91	11852.47
421.10	11800.98
421.29	11571.61
421.48	11272.02
421.67	11777.58
421.86	11009.88
422.05	10015.15
422.24	9476.83
422.43	9895.78
422.61	10817.96
422.80	11054.35
422.99	10993.50
423.18	10675.18
423.37	10588.58
423.56	10986.47
423.75	11159.67
423.94	11351.60
424.13	10548.79
424.32	10583.90
424.50	10551.14
424.69	10710.29
424.88	10619.01
425.07	10698.59
425.26	10626.03
425.45	10232.82
425.64	10373.25
425.83	10626.03
426.01	11307.13
426.20	11082.44
426.39	10963.07
426.58	9968.34
426.77	9521.30
426.96	9268.52
427.15	9635.99
427.33	10511.35
427.52	10796.89
427.71	10766.46
427.90	10195.37
428.09	10293.68
428.28	10026.86
428.46	10043.24
428.65	9902.81
428.84	10024.51
429.03	9998.77
429.22	9252.14
429.40	8802.75
429.59	8198.90
429.78	7368.01
429.97	7342.26
430.16	7258.00
430.34	7288.43
430.53	7475.67
430.72	8042.08
430.91	9043.83
431.10	10214.10
431.28	11641.82
431.47	12250.36
431.66	12414.20
431.85	11222.87
432.03	10202.40
432.22	10410.70
432.41	11000.52
432.60	11779.92
432.79	12184.83
432.97	12528.89
433.16	11908.65
433.35	10827.32
433.54	9795.14
433.72	9736.63
433.91	10391.98
434.10	11187.76
434.28	11716.72
434.47	12250.36
434.66	11854.81
434.85	11569.27
435.03	11665.23
435.22	12313.56
435.41	12603.78
435.59	12727.83
435.78	12865.92
435.97	13181.90
436.16	13434.68
436.34	13008.70
436.53	12954.87
436.72	12791.03
436.90	12013.97
437.09	12252.70
437.28	12116.95
437.46	12271.43
437.65	12105.25
437.84	10934.98
438.02	10576.88
438.21	10799.23
438.40	11272.02
438.58	11894.60
438.77	12414.20
438.96	12294.83
439.14	13462.76
439.33	13029.76
439.52	13544.68
439.70	13062.53
439.89	12589.74
440.08	12528.89
440.26	12620.17
440.45	13039.12
440.63	14029.17
440.82	14668.14
441.01	14202.37
441.19	14303.01
441.38	14707.93
441.57	14864.74
441.75	14677.50
441.94	14909.21
442.12	14878.79
442.31	15611.37
442.50	15307.10
442.68	15068.37
442.87	15098.80
443.05	14925.60
443.24	15145.61
443.43	15367.96
443.61	15349.23
443.80	15913.30
443.98	15007.52
444.17	15276.68
444.35	16107.57
444.54	16035.01
444.73	16018.63
444.91	14757.08
445.10	14338.12
445.28	14033.85
445.47	13401.91
445.65	13797.46
445.84	14363.87
446.02	14789.85
446.21	15190.08
446.39	15082.41
446.58	15250.93
446.77	15929.69
446.95	15880.53
447.14	16079.48
447.32	16074.80
447.51	15822.02
447.69	14974.75
447.88	14885.81
448.06	15194.76
448.25	15316.47
448.43	15861.81
448.62	15112.84
448.80	14972.41
448.99	15257.95
449.17	15609.03
449.36	15765.85
449.54	15934.37
449.73	16446.94
449.91	16383.75
450.10	17146.76
450.28	16870.58
450.46	16671.64
450.65	16479.71
450.83	16690.36
451.02	16711.42
451.20	16470.35
451.39	16091.18
451.57	16367.37
451.76	16355.66
451.94	15913.30
452.13	15880.53
452.31	15028.58
452.49	14352.16
452.68	14728.99
452.86	14881.13
453.05	15073.05
453.23	15955.43
453.42	16037.35
453.60	15974.16
453.78	16240.98
453.97	15903.94
454.15	15885.22
454.34	15541.16
454.52	15704.99
454.70	15360.94
454.89	15667.55
455.07	15784.57
455.26	15815.00
455.44	16535.88
455.62	16781.64
455.81	16947.82
455.99	16547.59
456.17	16673.98
456.36	16608.44
456.54	16872.92
456.73	17022.72
456.91	17324.65
457.09	17413.59
457.28	17610.19
457.46	16952.50
457.64	16863.56
457.83	16116.93
458.01	15592.65
458.19	16620.14
458.38	16339.28
458.56	16776.96
458.74	17090.59
458.93	16690.36
459.11	16545.25
459.29	16112.25
459.48	16568.65
459.66	16659.93
459.84	16442.26
460.03	17067.19
460.21	16982.93
460.39	17224.00
460.57	17413.59
460.76	17376.14
460.94	17469.76
461.12	17357.41
461.31	17455.72
461.49	17460.40
461.67	17366.78
461.85	17987.02
462.04	17804.46
462.22	17635.94
462.40	17895.74
462.59	17418.27
462.77	17167.83
462.95	17376.14
463.13	17926.16
463.32	17364.43
463.50	17090.59
463.68	17305.92
463.86	17303.58
464.05	17366.78
464.23	16702.06
464.41	16201.19
464.59	16336.94
464.78	16849.52
464.96	16676.32
465.14	16472.69
465.32	17242.73
465.50	17715.51
465.69	17839.56
465.87	17350.39
466.05	16521.84
466.23	16013.95
466.41	16077.14
466.60	16872.92
466.78	16650.57
466.96	16580.36
467.14	16917.39
467.32	17027.40
467.51	16959.52
467.69	16390.77
467.87	16542.91
468.05	16842.50
468.23	16671.64
468.41	16919.73
468.60	16903.35
468.78	16961.86
468.96	17043.78
469.14	17497.84
469.32	17518.91
469.50	16428.22
469.69	16463.33
469.87	16418.86
470.05	16526.52
470.23	16528.86
470.41	16741.85
470.59	16975.91
470.77	16826.11
470.95	17186.55
471.14	17231.02
471.32	17455.72
471.50	18923.23
471.68	18499.59
471.86	18415.34
472.04	18122.77
472.22	18326.39
472.40	17366.78
472.58	17706.15
472.77	17282.52
472.95	17972.97
473.13	18253.84
473.31	17984.68
473.49	17694.45
473.67	18286.61
473.85	17951.91
474.03	18462.15
474.21	18785.14
474.39	18335.76
474.57	18595.56
474.75	19021.53
474.93	18899.83
475.12	18567.47
475.30	18478.53
475.48	18396.61
475.66	18761.73
475.84	18216.39
476.02	18651.73
476.20	18511.30
476.38	18333.42
476.56	19133.88
476.74	19145.58
476.92	19173.67
477.10	19302.40
477.28	20348.62
477.46	20049.03
477.64	20444.58
477.82	20196.48
478.00	20318.19
478.18	19917.96
478.36	20044.35
478.54	19632.41
478.72	20673.95
478.90	21443.99
479.08	21481.44
479.26	21205.25
479.44	21010.99
479.62	21488.46
479.80	21736.56
479.98	21289.51
480.16	22005.72
480.34	21462.71
480.52	21734.21
480.70	21542.29
480.88	21996.35
481.06	22309.99
481.24	22396.59
481.41	23147.90
481.59	23477.91
481.77	22909.16
481.95	22637.66
482.13	22965.34
482.31	22478.50
482.49	23168.96
482.67	22686.81
482.85	22551.06
483.03	22792.14
483.21	23143.22
483.39	23527.06
483.57	23398.34
483.74	23325.78
483.92	23000.44
484.10	23852.40
484.28	23997.51
484.46	23917.93
484.64	23601.96
484.82	23906.23
485.00	23124.49
485.18	22396.59
485.35	21432.29
485.53	19260.27
485.71	17891.06
485.89	18513.64
486.07	19910.94
486.25	21413.56
486.43	22338.07
486.61	21848.90
486.78	21886.35
486.96	23087.04
487.14	23651.11
487.32	24713.72
487.50	25085.86
487.68	24484.34
487.85	25750.57
488.03	25790.36
488.21	24917.34
488.39	24189.44
488.57	24547.54
488.75	24224.54
488.92	25373.75
489.10	27721.30
489.28	27716.62
489.46	28566.24
489.64	29350.32
489.81	28666.88
489.99	28189.41
490.17	28348.57
490.35	28629.43
490.53	27639.39
490.70	27571.51
490.88	27885.14
491.06	28648.16
491.24	28673.90
491.41	26984.04
491.59	26202.30
491.77	25387.79
491.95	27082.34
492.13	27110.43
492.30	27627.68
492.48	29357.34
492.66	29741.19
492.84	29345.64
493.01	29036.69
493.19	27861.74
493.37	27508.32
493.54	28191.75
493.72	29032.00
493.90	29741.19
494.08	30136.74
494.25	31295.30
494.43	31594.89
494.61	31962.36
494.79	31819.58
494.96	32030.23
495.14	30443.35
495.32	29413.51
495.49	29600.76
495.67	30211.64
495.85	32009.17
496.02	32229.18
496.20	32329.82
496.38	32116.83
496.55	31667.45
496.73	31744.69
496.91	31751.71
497.09	31917.89
497.26	32158.96
497.44	32449.19
497.62	31632.34
497.79	30789.75
497.97	29790.34
498.14	30132.06
498.32	30869.33
498.50	31484.89
498.67	32460.89
498.85	31585.53
499.03	31833.63
499.20	32128.53
499.38	31777.45
499.56	31061.25
499.73	31009.76
499.91	30995.71
500.08	30419.94
500.26	29738.85
500.44	30583.78
500.61	31309.35
500.79	30646.97
500.97	30553.35
501.14	30068.86
501.32	29556.28
501.49	29254.36
501.67	30246.74
501.84	31349.14
502.02	31545.74
502.20	31082.31
502.37	32364.93
502.55	32659.84
502.72	32870.48
502.90	33586.69
503.07	32730.05
503.25	32416.42
503.43	32114.49
503.60	30099.29
503.78	29937.79
503.95	31175.94
504.13	31395.95
504.30	33160.71
504.48	33294.12
504.65	32748.78
504.83	32671.54
505.01	32582.60
505.18	32657.49
505.36	34185.86
505.53	33998.62
505.71	34345.02
505.88	34616.52
506.06	34349.70
506.23	33116.24
506.41	32252.58
506.58	32610.68
506.76	32315.78
506.93	33160.71
507.11	31337.43
507.28	32383.65
507.46	31824.26
507.63	31618.30
507.81	30628.25
507.98	31346.79
508.16	32215.13
508.33	33233.27
508.50	32271.31
508.68	33663.93
508.85	34405.88
509.03	33949.47
509.20	32870.48
509.38	32357.91
509.55	32205.77
509.73	32854.10
509.90	33472.00
510.08	32538.13
510.25	32126.19
510.42	32292.37
510.60	32140.24
510.77	33362.00
510.95	34345.02
511.12	33244.97
511.30	33897.98
511.47	34981.65
511.64	33310.50
511.82	33975.22
511.99	33200.50
512.17	32929.00
512.34	32409.40
512.51	32233.86
512.69	32350.88
512.86	32692.60
513.04	33312.84
513.21	33230.93
513.38	33127.94
513.56	31840.65
513.73	30991.03
513.90	30941.88
514.08	31714.26
514.25	32397.70
514.43	33116.24
514.60	32776.86
514.77	32790.91
514.95	32861.12
515.12	32631.75
515.29	33282.42
515.47	33216.88
515.64	32542.81
515.81	33567.96
515.99	32828.35
516.16	29521.18
516.33	27747.05
516.51	26878.71
516.68	25996.33
516.85	25008.62
517.03	26618.91
517.20	28914.98
517.37	30761.66
517.54	31292.96
517.72	30026.73
517.89	28030.26
518.06	26984.04
518.24	27590.24
518.41	29352.66
518.58	30639.95
518.75	30934.86
518.93	31182.96
519.10	30703.15
519.27	31508.29
519.45	31964.70
519.62	32467.91
519.79	33268.37
519.96	32659.84
520.14	31758.73
520.31	30808.47
520.48	31267.22
520.65	31892.14
520.83	32488.98
521.00	32044.27
521.17	32016.19
521.34	31658.09
521.52	31976.40
521.69	33123.26
521.86	33453.28
522.03	32325.14
522.20	31374.88
522.38	29865.24
522.55	30171.85
522.72	31204.02
522.89	30464.41
523.07	31323.39
523.24	32446.85
523.41	32655.15
523.58	32638.77
523.75	32531.11
523.92	33434.55
524.10	33507.11
524.27	33322.21
524.44	32701.96
524.61	33582.01
524.78	33090.49
524.96	33193.48
525.13	33207.52
525.30	34164.80
525.47	33947.13
525.64	34176.50
525.81	31541.06
525.98	29972.90
526.16	28056.00
526.33	28177.71
526.50	28804.97
526.67	28301.76
526.84	28781.57
527.01	30139.08
527.18	31030.82
527.36	31625.32
527.53	32807.29
527.70	32086.40
527.87	30724.21
528.04	31054.23
528.21	32091.09
528.38	32802.61
528.55	33696.69
528.72	33612.43
528.89	33092.83
529.07	33689.67
529.24	31896.82
529.41	32044.27
529.58	31344.45
529.75	31262.54
529.92	31988.10
530.09	31690.85
530.26	32584.94
530.43	31204.02
530.60	32816.65
530.77	32987.51
530.94	34061.82
531.11	33354.97
531.28	32463.23
531.46	32643.45
531.63	33214.54
531.80	33331.57
531.97	31768.09
532.14	30190.57
532.31	28898.59
532.48	28411.76
532.65	28631.77
532.82	29542.24
532.99	31314.03
533.16	32669.20
533.33	32919.63
533.50	32360.25
533.67	31672.13
533.84	31847.67
534.01	31332.75
534.18	31302.32
534.35	31173.60
534.52	31166.57
534.69	31686.17
534.86	31960.02
535.03	31693.19
535.20	33008.58
535.37	33090.49
535.54	33315.19
535.71	32400.04
535.88	31634.68
536.05	30759.32
536.22	30728.89
536.38	30139.08
536.55	30827.20
536.72	30190.57
536.89	30576.76
537.06	31522.34
537.23	31821.92
537.40	31529.36
537.57	31702.56
537.74	30623.57
537.91	30148.44
538.08	31868.73
538.25	31630.00
538.42	30974.65
538.59	31463.82
538.75	31765.75
538.92	31484.89
539.09	30546.33
539.26	29404.15
539.43	28980.51
539.60	29521.18
539.77	29165.42
539.94	28386.02
540.11	28023.23
540.28	27564.49
540.44	28430.49
540.61	28512.41
540.78	29242.65
540.95	30312.28
541.12	29467.34
541.29	30934.86
541.46	30424.62
541.62	30167.16
541.79	29628.84
541.96	29081.16
542.13	30132.06
542.30	30188.23
542.47	30288.87
542.63	29944.81
542.80	29055.41
542.97	28889.23
543.14	28938.38
543.31	29003.92
543.48	30536.97
543.64	30494.84
543.81	31227.43
543.98	30169.51
544.15	30087.59
544.32	29165.42
544.48	30108.65
544.65	29247.33
544.82	29582.03
544.99	29757.57
545.16	29617.14
545.32	30665.70
545.49	30965.29
545.66	30335.68
545.83	30721.87
546.00	29736.51
546.16	29254.36
546.33	29551.60
546.50	29968.22
546.67	29572.67
546.83	29027.32
547.00	29289.46
547.17	28849.44
547.34	28847.10
547.50	28549.85
547.67	28804.97
547.84	28648.16
548.00	29673.31
548.17	28563.90
548.34	28664.54
548.51	28896.25
548.67	29537.56
548.84	29413.51
549.01	29862.90
549.18	29949.50
549.34	30658.68
549.51	29947.15
549.68	29738.85
549.84	29053.07
550.01	29811.40
550.18	28580.28
550.34	28687.95
550.51	28524.11
550.68	27988.13
550.84	27290.65
551.01	27229.79
551.18	27089.36
551.34	27197.02
551.51	28404.74
551.68	29961.20
551.84	28500.70
552.01	28835.40
552.18	28002.17
552.34	27857.06
552.51	28411.76
552.68	29177.12
552.84	28423.47
553.01	28091.11
553.18	29474.37
553.34	29120.95
553.51	28865.83
553.67	27740.03
553.84	29261.38
554.01	29888.64
554.17	28030.26
554.34	28591.98
554.51	29153.71
554.67	28989.88
554.84	28044.30
555.00	28196.43
555.17	28439.85
555.33	27978.76
555.50	28922.00
555.67	28477.30
555.83	28376.66
556.00	28283.03
556.16	28084.09
556.33	27641.73
556.50	27365.54
556.66	26771.05
556.83	26272.51
556.99	26864.67
557.16	27440.44
557.32	27367.88
557.49	27335.12
557.65	27447.46
557.82	26300.60
557.98	26780.41
558.15	27253.20
558.32	26412.95
558.48	25436.94
558.65	25184.16
558.81	25411.20
558.98	25895.69
559.14	26256.13
559.31	27037.87
559.47	26281.88
559.64	25649.93
559.80	27204.05
559.97	26572.10
560.13	26874.03
560.30	27393.63
560.46	27152.55
560.63	27608.96
560.79	28030.26
560.96	26843.60
561.12	26263.15
561.29	25914.41
561.45	25635.89
561.61	25539.93
561.78	26078.25
561.94	26223.36
562.11	26068.89
562.27	26267.83
562.44	26513.59
562.60	26340.39
562.77	26902.12
562.93	26216.34
563.10	26024.42
563.26	25722.49
563.42	25266.08
563.59	25216.93
563.75	26368.48
563.92	25748.23
564.08	25886.32
564.24	25886.32
564.41	24474.98
564.57	25212.25
564.74	24966.49
564.90	24943.09
565.07	24430.51
565.23	24032.62
565.39	23639.41
565.56	25230.98
565.72	24428.17
565.88	25462.69
566.05	24882.24
566.21	24683.29
566.38	24116.88
566.54	24423.49
566.70	24215.18
566.87	25240.34
567.03	26352.09
567.19	26703.17
567.36	24805.00
567.52	25584.40
567.68	24503.07
567.85	25074.16
568.01	25034.37
568.17	23480.25
568.34	22902.14
568.50	22948.95
568.66	23487.28
568.83	23885.17
568.99	24510.09
569.15	24687.97
569.32	24601.37
569.48	24514.77
569.64	23777.50
569.81	23260.24
569.97	23178.33
570.13	23449.83
570.30	23225.14
570.46	22803.84
570.62	21743.58
570.78	21387.82
570.95	21874.65
571.11	22829.59
571.27	22974.70
571.43	22995.76
571.60	23744.73
571.76	23864.10
571.92	23772.82
572.09	24205.82
572.25	24130.92
572.41	24559.24
572.57	24311.14
572.74	23756.44
572.90	23571.54
573.06	23449.83
573.22	23199.39
573.38	23063.64
573.55	22562.76
573.71	22986.40
573.87	23026.19
574.03	23400.68
574.20	23117.47
574.36	23026.19
574.52	23009.81
574.68	22288.92
574.84	22452.76
575.01	22881.08
575.17	23094.07
575.33	22705.54
575.49	22415.31
575.65	22867.03
575.82	22403.61
575.98	22244.45
576.14	22171.89
576.30	22181.26
576.46	21912.10
576.62	22628.30
576.79	22513.61
576.95	21472.07
577.11	21348.03
577.27	21661.66
577.43	21490.80
577.59	21689.74
577.75	22295.94
577.92	21184.19
578.08	21142.06
578.24	21247.38
578.40	21598.46
578.56	21401.86
578.72	21422.92
578.88	22326.37
579.04	21563.36
579.21	21434.63
579.37	21937.84
579.53	21408.88
579.69	21245.04
579.85	21142.06
580.01	21057.80
580.17	21149.08
580.33	21678.04
580.49	21371.43
580.65	21502.50
580.82	21469.73
580.98	21584.42
581.14	21355.05
581.30	22258.49
581.46	21502.50
581.62	21458.03
581.78	21886.35
581.94	22244.45
582.10	21865.28
582.26	21523.57
582.42	21694.43
582.58	22569.79
582.74	22279.56
582.90	21638.25
583.06	21774.00
583.22	21577.40
583.38	21769.32
583.54	22036.14
583.70	21839.54
583.86	21701.45
584.02	21811.45
584.18	21558.67
584.34	21916.78
584.50	22295.94
584.66	21884.01
584.82	21455.69
584.98	21446.33
585.14	20877.58
585.30	20163.72
585.46	20388.41
585.62	20119.24
585.78	20486.71
585.94	20421.17
586.10	21240.36
586.26	20837.79
586.42	20812.04
586.58	21039.08
586.74	20301.81
586.90	20559.27
587.06	20482.03
587.22	20063.07
587.38	20439.90
587.54	20070.09
587.70	20140.31
587.86	19796.25
588.02	19660.50
588.18	19562.20
588.34	18937.27
588.49	18567.47
588.65	17453.37
588.81	17130.38
588.97	17172.51
589.13	17249.75
589.29	17008.67
589.45	17776.37
589.61	18745.35
589.77	18843.65
589.93	19138.56
590.08	18974.72
590.24	19620.71
590.40	19269.63
590.56	19002.81
590.72	18604.92
590.88	18356.82
591.04	18462.15
591.20	18508.96
591.35	19103.45
591.51	19857.10
591.67	19489.64
591.83	19206.44
591.99	19190.05
592.15	18902.17
592.31	18450.44
592.46	18525.34
592.62	18604.92
592.78	18885.78
592.94	18597.90
593.10	18394.27
593.26	18604.92
593.41	19026.21
593.57	19108.13
593.73	18401.29
593.89	18775.78
594.05	18043.19
594.20	17820.84
594.36	17774.03
594.52	18335.76
594.68	18047.87
594.84	18019.78
594.99	18167.24
595.15	18237.45
595.31	18307.67
595.47	17790.41
595.62	17858.29
595.78	18047.87
595.94	18260.86
596.10	17893.40
596.25	17900.42
596.41	18733.65
596.57	18354.48
596.73	17958.93
596.88	18092.34
597.04	17703.81
597.20	17371.46
597.36	16638.87
597.51	16973.56
597.67	17490.82
597.83	17027.40
597.99	17326.99
598.14	16919.73
598.30	16130.97
598.46	16248.00
598.61	16861.22
598.77	17195.92
598.93	18157.88
599.09	17930.84
599.24	17479.12
599.40	17628.92
599.56	17652.32
599.71	17689.77
599.87	17355.07
600.03	17661.68
600.18	17872.33
600.34	17994.04
600.50	17439.33
600.65	18228.09
600.81	18139.15
600.97	17539.97
601.12	17261.45
601.28	16613.12
601.44	16798.02
601.59	16989.95
601.75	16783.98
601.91	17008.67
602.06	16662.27
602.22	17039.10
602.37	17146.76
602.53	17207.62
602.69	16631.85
602.84	16468.01
603.00	17504.87
603.16	17343.37
603.31	17273.15
603.47	16755.90
603.62	16697.38
603.78	17596.15
603.94	17242.73
604.09	17635.94
604.25	17755.30
604.40	17556.36
604.56	17001.65
604.71	17696.79
604.87	17390.18
605.03	17839.56
605.18	17053.14
605.34	16996.97
605.49	16524.18
605.65	16830.79
605.80	16250.34
605.96	16465.67
606.12	16437.58
606.27	16212.89
606.43	16475.03
606.58	16624.83
606.74	16353.32
606.89	16882.28
607.05	16128.63
607.20	16596.74
607.36	16638.87
607.51	16531.20
607.67	16285.45
607.82	16540.57
607.98	16566.31
608.13	16442.26
608.29	16673.98
608.44	16325.24
608.60	15894.58
608.75	16236.30
608.91	15866.49
609.06	15850.11
609.22	15943.73
609.37	16657.59
609.53	16599.08
609.68	15676.91
609.84	15541.16
609.99	15290.72
610.15	14981.77
610.30	15288.38
610.46	15234.55
610.61	15389.02
610.76	15690.95
610.92	16430.56
611.07	17050.80
611.23	16432.90
611.38	15974.16
611.54	15630.10
611.69	15049.64
611.84	14661.12
612.00	14841.34
612.15	15047.30
612.31	15515.41
612.46	15754.15
612.62	15541.16
612.77	15311.78
612.92	15412.43
613.08	15033.26
613.23	14675.16
613.39	14295.99
613.54	14441.11
613.69	14377.91
613.85	14431.74
614.00	14429.40
614.15	14153.22
614.31	14717.29
614.46	14494.94
614.62	14953.68
614.77	14780.48
614.92	14452.81
615.08	15049.64
615.23	14583.88
615.38	14836.66
615.54	14340.46
615.69	13785.76
615.84	13329.35
616.00	13427.65
616.15	13956.61
616.30	13678.09
616.46	13551.70
616.61	13965.98
616.76	13736.60
616.92	14015.13
617.07	14331.10
617.22	14452.81
617.37	14377.91
617.53	14108.75
617.68	13872.36
617.83	14270.25
617.99	14033.85
618.14	14424.72
618.29	14115.77
618.45	13687.45
618.60	13231.05
618.75	13397.23
618.90	13708.52
619.06	13771.71
619.21	13984.70
619.36	13933.21
619.51	13884.06
619.67	13888.74
619.82	13626.60
619.97	13806.82
620.12	13785.76
620.28	13881.72
620.43	13886.40
620.58	13989.38
620.73	13813.84
620.89	14544.09
621.04	14263.22
621.19	13500.21
621.34	13619.58
621.49	13282.54
621.65	13359.78
621.80	13235.73
621.95	13233.39
622.10	13544.68
622.25	12905.71
622.41	12856.56
622.56	12924.44
622.71	13046.15
622.86	13455.74
623.01	13626.60
623.16	13174.88
623.32	13626.60
623.47	13214.66
623.62	12968.91
623.77	12849.54
623.92	13083.59
624.07	12383.77
624.23	12723.15
624.38	12624.85
624.53	13198.28
624.68	12514.84
624.83	12341.64
624.98	12166.10
625.13	12556.97
625.29	12428.24
625.44	12678.68
625.59	12503.14
625.74	12753.58
625.89	12575.70
626.04	12100.57
626.19	12070.14
626.34	12159.08
626.49	11960.14
626.65	11899.28
626.80	12159.08
626.95	12250.36
627.10	12212.92
627.25	11934.39
627.40	11438.20
627.55	11274.36
627.70	11513.10
627.85	11272.02
628.00	11480.33
628.15	11744.81
628.30	11875.88
628.45	11653.53
628.60	11690.98
628.76	11709.70
628.91	11445.22
629.06	11637.14
629.21	11618.42
629.36	11583.31
629.51	11557.57
629.66	11501.39
629.81	11770.55
629.96	11389.05
630.11	11683.95
630.26	11208.83
630.41	11431.18
630.56	11180.74
630.71	11192.44
630.86	11066.05
631.01	11007.54
631.16	11096.48
631.31	10637.73
631.46	10567.52
631.61	11080.10
631.76	11393.73
631.91	11485.01
632.06	11555.22
632.21	11733.11
632.36	11901.62
632.51	11723.74
632.66	12006.95
632.81	11424.15
632.96	11290.74
633.10	11047.33
633.25	11330.53
633.40	11412.45
633.55	11339.90
633.70	10689.23
633.85	10909.24
634.00	10909.24
634.15	10661.14
634.30	10480.92
634.45	10497.30
634.60	10927.96
634.75	10986.47
634.90	11164.36
635.05	10979.45
635.19	10876.47
635.34	11241.59
635.49	10892.85
635.64	10934.98
635.79	10647.10
635.94	10509.01
636.09	10237.50
636.24	10841.36
636.39	10562.84
636.53	10656.46
636.68	10930.30
636.83	11084.78
636.98	11059.03
637.13	10967.75
637.28	10918.60
637.43	10895.19
637.57	10979.45
637.72	10906.90
637.87	10438.79
638.02	10441.13
638.17	11019.24
638.32	10960.73
638.46	10218.78
638.61	10026.86
638.76	10085.37
638.91	10010.47
639.06	10441.13
639.20	10707.95
639.35	10459.85
639.50	10377.94
639.65	10033.88
639.80	10504.32
639.94	10204.74
640.09	10036.22
640.24	10071.33
640.39	10581.56
640.54	10366.23
640.68	10279.63
640.83	10291.34
640.98	10244.52
641.13	9769.40
641.27	9944.94
641.42	9439.38
641.57	9383.21
641.72	9598.54
641.86	10104.09
642.01	10197.71
642.16	10485.60
642.31	10221.12
642.45	10228.14
642.60	10380.28
642.75	10071.33
642.90	10347.51
643.04	10501.98
643.19	10303.04
643.34	9902.81
643.48	9643.01
643.63	9217.03
643.78	9329.38
643.93	9661.73
644.07	9486.19
644.22	9982.38
644.37	9956.64
644.51	9844.29
644.66	9399.59
644.81	9317.67
644.95	9654.71
645.10	9518.96
645.25	9659.39
645.39	9547.05
645.54	9179.58
645.69	9195.96
645.83	8917.44
645.98	8971.27
646.13	9102.34
646.27	9554.07
646.42	9533.00
646.57	9551.73
646.71	9518.96
646.86	8992.34
647.00	9071.92
647.15	8720.84
647.30	9263.84
647.44	9315.33
647.59	9020.42
647.74	8954.89
647.88	8858.93
648.03	8919.78
648.17	8765.31
648.32	8971.27
648.47	8826.16
648.61	8479.76
648.76	8463.38
648.90	8135.70
649.05	7796.32
649.20	7953.14
649.34	7974.21
649.49	7749.51
649.63	8168.47
649.78	8400.18
649.92	8697.43
650.07	9025.11
650.21	8985.32
650.36	8971.27
650.51	8442.31
650.65	9006.38
650.80	8777.01
650.94	8479.76
651.09	8540.61
651.23	8636.58
651.38	8800.41
651.52	8737.22
651.67	8603.81
651.81	8872.97
651.96	8634.24
652.10	8676.37
652.25	8585.08
652.39	8638.92
652.54	8615.51
652.68	8688.07
652.83	8606.15
652.97	8779.35
653.12	8676.37
653.26	8615.51
653.41	8699.77
653.55	8414.23
653.70	8351.03
653.84	8566.36
653.99	8451.67
654.13	8519.55
654.27	8311.24
654.42	8238.69
654.56	7805.69
654.71	8067.83
654.85	7997.61
655.00	8283.16
655.14	7946.12
655.29	7527.16
655.43	7784.62
655.57	7393.75
655.72	6682.23
655.86	6141.57
656.01	6115.82
656.15	6162.63
656.30	6878.83
656.44	7133.95
656.58	7353.96
656.73	7480.35
656.87	7487.37
657.01	7492.05
657.16	7335.24
657.30	7435.88
657.45	7786.96
657.59	7950.80
657.73	7995.27
657.88	7927.39
658.02	8013.99
658.16	7920.37
658.31	7843.14
658.45	8336.99
658.60	8191.88
658.74	7880.58
658.88	7772.92
659.03	7953.14
659.17	7943.78
659.31	7892.29
659.46	7768.24
659.60	8056.12
659.74	7967.18
659.89	7808.03
660.03	7850.16
660.17	7868.88
660.32	8016.33
660.46	7756.54
660.60	7534.18
660.74	7412.48
660.89	7613.76
661.03	7527.16
661.17	7686.32
661.32	7625.47
661.46	7470.99
661.60	7817.39
661.74	7913.35
661.89	7695.68
662.03	7407.80
662.17	7623.12
662.31	7681.64
662.46	7880.58
662.60	7506.10
662.74	7438.22
662.88	7412.48
663.03	7414.82
663.17	7330.56
663.31	7466.31
663.45	7108.21
663.60	7211.19
663.74	7243.96
663.88	7087.14
664.02	7288.43
664.17	7105.87
664.31	7012.24
664.45	7185.44
664.59	6951.39
664.73	7073.10
664.88	7052.03
665.02	6974.80
665.16	7019.27
665.30	6977.14
665.44	7332.90
665.59	7288.43
665.73	7234.60
665.87	7386.73
666.01	7410.14
666.15	6930.33
666.29	6972.46
666.44	7236.94
666.58	7045.01
666.72	6972.46
666.86	7009.90
667.00	6869.47
667.14	6956.07
667.28	6663.51
667.43	6906.92
667.57	6820.32
667.71	6752.45
667.85	6766.49
667.99	6832.02
668.13	7054.37
668.27	6899.90
668.41	6494.99
668.56	6658.82
668.70	6717.34
668.84	6413.07
668.98	6609.67
669.12	6380.30
669.26	6572.22
669.40	6452.86
669.54	6230.51
669.68	6232.85
669.82	6291.36
669.96	6010.50
670.10	6155.61
670.25	6171.99
670.39	6193.06
670.53	6272.64
670.67	6188.38
670.81	6267.95
670.95	6579.25
671.09	6352.21
671.23	5926.24
671.37	5959.00
671.51	6139.23
671.65	6183.70
671.79	6188.38
671.93	6239.87
672.07	6265.61
672.21	6242.21
672.35	6183.70
672.49	6232.85
672.63	6387.32
672.77	6127.52
672.91	6106.46
673.05	6064.33
673.19	5912.19
673.33	5909.85
673.47	5940.28
673.61	5977.73
673.75	5680.48
673.89	5818.57
674.03	5689.84
674.17	5825.59
674.31	6160.29
674.45	6066.67
674.59	5944.96
674.73	5980.07
674.87	5937.94
675.01	5783.46
675.15	5837.30
675.29	5884.11
675.43	5490.90
675.56	5647.71
675.70	5701.54
675.84	5577.50
675.98	5425.36
676.12	5640.69
676.26	5563.45
676.40	5699.20
676.54	5738.99
676.68	5432.38
676.82	5118.75
676.96	5172.58
677.10	5544.73
677.23	5441.75
677.37	5502.60
677.51	5556.43
677.65	5544.73
677.79	5320.04
677.93	5408.98
678.07	5582.18
678.21	5624.31
678.34	5493.24
678.48	5205.35
678.62	5577.50
678.76	5549.41
678.90	5369.19
679.04	5441.75
679.18	5259.18
679.31	5284.93
679.45	5348.12
679.59	5121.09
679.73	5029.81
679.87	4816.82
680.00	4856.61
680.14	4889.38
680.28	4964.28
680.42	4854.27
680.56	4744.27
680.70	4842.57
680.83	4816.82
680.97	4720.86
681.11	4833.21
681.25	4711.50
681.39	4669.37
681.52	4489.15
681.66	4526.60
681.80	4669.37
681.94	4449.36
682.07	4652.98
682.21	4809.80
682.35	4844.91
682.49	4697.46
682.62	4667.03
682.76	4657.67
682.90	4545.32
683.04	4507.87
683.17	4561.70
683.31	4273.82
683.45	4325.31
683.59	4557.02
683.72	4542.98
683.86	4325.31
684.00	4231.69
684.13	4241.05
684.27	4383.82
684.41	4402.55
684.55	4234.03
684.68	4231.69
684.82	4381.48
684.96	4084.23
685.09	4046.79
685.23	3964.87
685.37	4072.53
685.50	4243.39
685.64	4135.73
685.78	3929.76
685.91	3899.33
686.05	3765.92
686.19	3552.93
686.32	3562.30
686.46	3166.74
686.60	2864.82
686.73	2612.04
686.87	2483.31
687.01	2434.16
687.14	2593.31
687.28	2621.40
687.42	2799.28
687.55	3080.14
687.69	3066.10
687.82	3180.79
687.96	3349.31
688.10	3096.53
688.23	3133.98
688.37	3297.81
688.50	3073.12
688.64	3129.30
688.78	2972.48
688.91	2778.22
689.05	2839.07
689.18	3103.55
689.32	2916.31
689.46	2867.16
689.59	2949.08
689.73	2750.13
689.86	2787.58
690.00	2789.92
690.13	2993.55
690.27	3141.00
690.41	3047.38
690.54	2958.44
690.68	3101.21
690.81	3082.49
690.95	3033.33
691.08	3112.91
691.22	3218.24
691.35	3199.51
691.49	3363.35
691.62	3157.38
691.76	3084.83
691.89	3124.62
692.03	3112.91
692.16	3068.44
692.30	3241.64
692.43	3143.34
692.57	2965.46
692.70	3068.44
692.84	2857.79
692.97	2869.50
693.11	2832.05
693.24	2750.13
693.38	2829.71
693.51	2787.58
693.65	2803.96
693.78	2588.63
693.92	2506.71
694.05	2724.38
694.19	2619.06
694.32	2691.62
694.45	2764.17
694.59	2768.85
694.72	2860.13
694.86	2942.05
694.99	2827.37
695.13	2822.69
695.26	2850.77
695.39	2871.84
695.53	2747.79
695.66	2700.98
695.80	2644.81
695.93	2567.57
696.07	2602.68
696.20	2590.97
696.33	2689.28
696.47	2647.15
696.60	2750.13
696.73	2656.51
696.87	2782.90
697.00	2715.02
697.14	2595.65
697.27	2602.68
697.40	2562.89
697.54	2487.99
697.67	2457.56
697.80	2427.14
697.94	2324.15
698.07	2333.51
698.21	2422.45
698.34	2413.09
698.47	2455.22
698.61	2338.20
698.74	2380.32
698.87	2387.35
699.01	2399.05
699.14	2228.19
699.27	2382.67
699.40	2258.62
699.54	2270.32
699.67	2300.75
699.80	2277.34
699.94	2279.68
700.07	2282.02
700.20	2136.91
700.34	2265.64
700.47	2113.50
700.60	2125.21
700.73	2129.89
700.87	2104.14
701.00	2073.71
701.13	2111.16
701.26	2038.61
701.40	2120.53
701.53	2097.12
701.66	2022.22
701.79	2017.54
701.93	1961.37
702.06	2054.99
702.19	2036.27
702.32	2033.93
702.46	2071.37
702.59	1879.45
702.72	1902.86
702.85	1907.54
702.99	2022.22
703.12	2040.95
703.25	1942.64
703.38	1952.01
703.51	1832.64
703.65	1898.17
703.78	1877.11
703.91	1989.46
704.04	2008.18
704.17	1947.33
704.31	2001.16
704.44	1760.08
704.57	2022.22
704.70	1762.42
704.83	1795.19
704.96	1874.77
705.10	1870.09
705.23	1769.44
>>>>>End Processed Spectral Data<<<<<
