SpectraSuite Data File
++++++++++++++++++++++++++++++++++++
Date: Mon Oct 07 14:54:59 GMT-05:00 2013
User: price-jones
Dark Spectrum Present: No
Reference Spectrum Present: No
Number of Sampled Component Spectra: 1
Spectrometers: USB2+H05261
Integration Time (usec): 10000 (USB2+H05261)
Spectra Averaged: 1 (USB2+H05261)
Boxcar Smoothing: 0 (USB2+H05261)
Correct for Electrical Dark: No (USB2+H05261)
Strobe/Lamp Enabled: No (USB2+H05261)
Correct for Detector Non-linearity: No (USB2+H05261)
Correct for Stray Light: No (USB2+H05261)
Number of Pixels in Processed Spectrum: 2048
>>>>>Begin Processed Spectral Data<<<<<
365.73	0.00
365.92	0.00
366.12	0.00
366.32	0.00
366.52	0.00
366.72	0.00
366.91	0.00
367.11	0.00
367.31	0.00
367.51	0.00
367.70	0.00
367.90	0.00
368.10	0.00
368.30	0.00
368.49	0.00
368.69	0.00
368.89	0.00
369.09	0.00
369.28	0.00
369.48	0.00
369.68	0.00
369.87	0.00
370.07	0.00
370.27	0.00
370.47	121.71
370.66	1303.68
370.86	1706.25
371.06	1809.23
371.25	1701.57
371.45	1589.22
371.65	1371.55
371.84	1411.34
372.04	1584.54
372.24	1626.67
372.44	1755.40
372.63	1502.62
372.83	1458.15
373.03	1390.28
373.22	1245.16
373.42	1329.42
373.62	1570.50
373.81	1638.38
374.01	1582.20
374.21	1411.34
374.40	1324.74
374.60	1416.02
374.79	1696.89
374.99	1952.01
375.19	2008.18
375.38	2157.97
375.58	1834.98
375.78	1867.75
375.97	1919.24
376.17	1879.45
376.37	1944.99
376.56	2157.97
376.76	2120.53
376.95	2434.16
377.15	2450.54
377.35	2565.23
377.54	2815.66
377.74	2841.41
377.93	2801.62
378.13	2607.36
378.33	2469.27
378.52	2207.13
378.72	2251.60
378.91	2150.95
379.11	2160.31
379.31	2094.78
379.50	2043.29
379.70	2270.32
379.89	2544.16
380.09	2696.30
380.28	2785.24
380.48	2780.56
380.68	2635.44
380.87	2626.08
381.07	2356.92
381.26	2193.08
381.46	2059.67
381.65	1980.09
381.85	1888.81
382.04	1746.04
382.24	1706.25
382.43	1668.80
382.63	1685.19
382.83	1577.52
383.02	1692.21
383.22	1621.99
383.41	1729.66
383.61	1743.70
383.80	2118.18
384.00	2319.47
384.19	2616.72
384.39	2775.88
384.58	2698.64
384.78	2738.43
384.97	2527.78
385.17	2324.15
385.36	2366.28
385.56	2321.81
385.75	2445.86
385.95	2759.49
386.14	2771.19
386.34	2813.32
386.53	2525.44
386.72	2417.77
386.92	2527.78
387.11	2747.79
387.31	2850.77
387.50	2738.43
387.70	2675.23
387.89	2736.09
388.09	2733.75
388.28	2839.07
388.48	2729.06
388.67	3087.17
388.86	3358.67
389.06	3466.33
389.25	3723.79
389.45	3655.92
389.64	3459.31
389.84	3653.58
390.03	3431.23
390.22	3574.00
390.42	3845.50
390.61	4278.50
390.81	4219.99
391.00	4255.09
391.19	4315.95
391.39	4191.90
391.58	3882.95
391.78	3555.27
391.97	3478.04
392.16	3323.56
392.36	2909.29
392.55	2352.24
392.75	1757.74
392.94	1533.05
393.13	1514.33
393.33	1980.09
393.52	2628.42
393.71	2981.84
393.91	3229.94
394.10	3705.07
394.29	4117.00
394.49	4219.99
394.68	4650.64
394.88	4737.24
395.07	4643.62
395.26	4500.85
395.46	4503.19
395.65	4215.30
395.84	3391.44
396.04	2841.41
396.23	2356.92
396.42	1968.39
396.62	2040.95
396.81	2600.34
397.00	3232.28
397.19	4060.83
397.39	4830.87
397.58	5523.66
397.77	5570.48
397.97	5696.86
398.16	5980.07
398.35	6186.04
398.55	6143.91
398.74	6548.82
398.93	6380.30
399.12	6338.17
399.32	6277.32
399.51	6520.73
399.70	6874.15
399.90	6574.56
400.09	6766.49
400.28	6565.20
400.47	6832.02
400.67	7138.63
400.86	7267.36
401.05	7166.72
401.24	7253.32
401.44	7325.88
401.63	7431.20
401.82	7564.61
402.01	7318.86
402.21	7616.10
402.40	7412.48
402.59	7206.51
402.78	6881.18
402.97	7101.19
403.17	7150.34
403.36	7581.00
403.55	7857.18
403.74	7859.52
403.93	7335.24
404.13	6904.58
404.32	6888.20
404.51	7414.82
404.70	7674.62
404.89	7604.40
405.09	7590.36
405.28	7314.17
405.47	7541.21
405.66	7407.80
405.85	7103.53
406.05	6984.16
406.24	7105.87
406.43	7658.23
406.62	7749.51
406.81	7868.88
407.00	7623.12
407.20	7152.68
407.39	7536.52
407.58	7822.07
407.77	8086.55
407.96	8329.97
408.15	8430.61
408.34	8397.84
408.54	8933.82
408.73	8819.14
408.92	8809.78
409.11	8372.10
409.30	8049.10
409.49	7566.95
409.68	7084.80
409.87	7037.99
410.07	7623.12
410.26	8112.30
410.45	8617.85
410.64	8741.90
410.83	9055.53
411.02	9151.49
411.21	9291.93
411.40	9011.06
411.59	9294.27
411.78	9418.32
411.98	9235.75
412.17	9427.68
412.36	9149.15
412.55	9296.61
412.74	9107.02
412.93	8924.46
413.12	9011.06
413.31	9877.06
413.50	9774.08
413.69	9886.42
413.88	9439.38
414.07	9259.16
414.26	9451.08
414.45	10052.60
414.64	9673.43
414.83	9635.99
415.02	9650.03
415.22	9479.17
415.41	9699.18
415.60	10026.86
415.79	10707.95
415.98	10810.93
416.17	10902.22
416.36	10429.43
416.55	10176.65
416.74	9987.07
416.93	9643.01
417.12	9706.20
417.31	9708.54
417.50	10174.31
417.69	10619.01
417.88	10684.55
418.07	10244.52
418.26	10078.35
418.45	10471.56
418.64	10839.02
418.83	11187.76
419.02	10616.67
419.21	10724.33
419.39	10052.60
419.58	9839.61
419.77	10090.05
419.96	10600.29
420.15	10906.90
420.34	11094.14
420.53	11290.74
420.72	11346.92
420.91	11609.06
421.10	11101.16
421.29	11248.61
421.48	11344.58
421.67	11307.13
421.86	10923.28
422.05	10038.56
422.24	9116.39
422.43	9720.24
422.61	10703.27
422.80	11293.08
422.99	11012.22
423.18	10478.58
423.37	10181.33
423.56	10499.64
423.75	10860.09
423.94	10958.39
424.13	10347.51
424.32	10122.82
424.50	10445.81
424.69	10546.45
424.88	10389.64
425.07	10478.58
425.26	10345.17
425.45	10078.35
425.64	10064.30
425.83	10258.57
426.01	10637.73
426.20	10841.36
426.39	10864.77
426.58	9785.78
426.77	9198.31
426.96	8952.55
427.15	9799.82
427.33	10366.23
427.52	10415.38
427.71	10829.66
427.90	10345.17
428.09	10237.50
428.28	10080.69
428.46	9818.55
428.65	9650.03
428.84	10143.88
429.03	9996.43
429.22	9364.48
429.40	8674.03
429.59	7960.16
429.78	7248.64
429.97	7311.83
430.16	7602.06
430.34	7344.60
430.53	7522.48
430.72	7997.61
430.91	8887.01
431.10	10434.11
431.28	12123.98
431.47	12339.30
431.66	12564.00
431.85	11105.84
432.03	10340.49
432.22	10394.32
432.41	10991.16
432.60	11852.47
432.79	12362.71
432.97	12484.42
433.16	12009.29
433.35	10785.19
433.54	9659.39
433.72	9544.70
433.91	9994.09
434.10	11183.08
434.28	11969.50
434.47	12271.43
434.66	11934.39
434.85	11950.78
435.03	11655.87
435.22	12187.17
435.41	12463.35
435.59	12980.61
435.78	12823.80
435.97	13226.37
436.16	13179.56
436.34	13097.64
436.53	12823.80
436.72	13015.72
436.90	12273.77
437.09	12255.04
437.28	12123.98
437.46	12564.00
437.65	12229.30
437.84	11225.21
438.02	10817.96
438.21	10686.89
438.40	11147.97
438.58	12159.08
438.77	12552.29
438.96	12451.65
439.14	13256.79
439.33	13378.50
439.52	13228.71
439.70	13018.06
439.89	12573.36
440.08	12489.10
440.26	12407.18
440.45	13069.55
440.63	14223.44
440.82	14630.69
441.01	14232.80
441.19	14204.71
441.38	14766.44
441.57	15061.35
441.75	15133.90
441.94	15267.31
442.12	15482.64
442.31	15578.61
442.50	15442.85
442.68	15342.21
442.87	15108.16
443.05	15094.11
443.24	14855.38
443.43	15627.76
443.61	15618.39
443.80	15737.76
443.98	15035.60
444.17	15218.16
444.35	15686.27
444.54	16215.23
444.73	16004.58
444.91	15037.94
445.10	14574.52
445.28	13860.65
445.47	13949.59
445.65	13982.36
445.84	14354.51
446.02	14960.70
446.21	15311.78
446.39	15063.69
446.58	15379.66
446.77	15566.90
446.95	15969.48
447.14	16130.97
447.32	16229.27
447.51	15597.33
447.69	15288.38
447.88	15419.45
448.06	15733.08
448.25	16154.38
448.43	15875.85
448.62	15700.31
448.80	15571.58
448.99	15400.72
449.17	15927.35
449.36	16285.45
449.54	16547.59
449.73	16805.05
449.91	16933.78
450.10	17369.12
450.28	17853.61
450.46	17481.46
450.65	17701.47
450.83	17376.14
451.02	16947.82
451.20	16725.47
451.39	17331.67
451.57	16795.68
451.76	16793.34
451.94	16374.39
452.13	16355.66
452.31	15431.15
452.49	14476.21
452.68	15286.04
452.86	14771.12
453.05	15393.70
453.23	16023.31
453.42	16449.28
453.60	16421.20
453.78	16528.86
453.97	15990.54
454.15	16727.81
454.34	15967.13
454.52	16414.18
454.70	15786.91
454.89	15967.13
455.07	16102.89
455.26	16390.77
455.44	17142.08
455.62	17411.25
455.81	17268.47
455.99	17380.82
456.17	17106.98
456.36	17516.57
456.54	17928.50
456.73	17591.47
456.91	17523.59
457.09	18075.96
457.28	18382.57
457.46	17942.55
457.64	17392.52
457.83	16847.18
458.01	16444.60
458.19	17193.58
458.38	17268.47
458.56	17858.29
458.74	17696.79
458.93	16994.63
459.11	16945.48
459.29	16809.73
459.48	16828.45
459.66	16833.13
459.84	17453.37
460.03	17465.08
460.21	17774.03
460.39	18331.08
460.57	18307.67
460.76	18363.84
460.94	18415.34
461.12	17797.43
461.31	17937.87
461.49	18148.51
461.67	18080.64
461.85	18726.63
462.04	18932.59
462.22	18597.90
462.40	18576.83
462.59	18782.80
462.77	18546.40
462.95	18441.08
463.13	18326.39
463.32	18054.89
463.50	18036.17
463.68	18064.25
463.86	18061.91
464.05	17565.72
464.23	17345.71
464.41	17259.11
464.59	17008.67
464.78	18160.22
464.96	18038.51
465.14	17727.22
465.32	18324.05
465.50	18520.66
465.69	19087.07
465.87	18239.79
466.05	17666.36
466.23	16783.98
466.41	16659.93
466.60	17741.26
466.78	17310.60
466.96	17619.55
467.14	17752.96
467.32	17944.89
467.51	18305.33
467.69	17048.46
467.87	18239.79
468.05	17907.44
468.23	17813.82
468.41	18022.12
468.60	18001.06
468.78	18019.78
468.96	17759.98
469.14	18363.84
469.32	18647.05
469.50	17607.85
469.69	17432.31
469.87	17125.70
470.05	17612.53
470.23	17589.13
470.41	17598.49
470.59	17537.63
470.77	17855.95
470.95	18200.01
471.14	18398.95
471.32	18359.16
471.50	19412.40
471.68	19578.58
471.86	19278.99
472.04	19592.62
472.22	19075.37
472.40	18518.32
472.58	18370.86
472.77	18396.61
472.95	18640.03
473.13	19510.71
473.31	18752.37
473.49	19342.19
473.67	19143.24
473.85	19454.53
474.03	20343.94
474.21	20315.85
474.39	20271.38
474.57	20177.76
474.75	20409.47
474.93	20203.50
475.12	19721.35
475.30	20009.24
475.48	19470.92
475.66	19517.73
475.84	19997.54
476.02	19407.72
476.20	19051.96
476.38	19805.61
476.56	20540.54
476.74	20566.29
476.92	20559.27
477.10	20795.66
477.28	21752.94
477.46	21879.33
477.64	21738.90
477.82	21951.88
478.00	22043.17
478.18	21558.67
478.36	21308.24
478.54	22209.34
478.72	21886.35
478.90	23075.34
479.08	23433.44
479.26	23293.01
479.44	23040.23
479.62	23255.56
479.80	22487.87
479.98	23131.51
480.16	23543.45
480.34	23204.07
480.52	23667.50
480.70	24016.24
480.88	23751.76
481.06	23735.37
481.24	23714.31
481.41	23908.57
481.59	25280.13
481.77	24992.24
481.95	25106.93
482.13	25055.43
482.31	24620.10
482.49	25694.40
482.67	25132.67
482.85	25303.53
483.03	25954.20
483.21	26232.72
483.39	26073.57
483.57	24673.93
483.74	24856.49
483.92	25057.78
484.10	25268.42
484.28	25975.27
484.46	26068.89
484.64	26143.78
484.82	25516.52
485.00	25406.52
485.18	24229.23
485.35	23220.45
485.53	21238.02
485.71	19789.23
485.89	20156.69
486.07	21614.85
486.25	23110.45
486.43	24528.81
486.61	24807.34
486.78	24725.42
486.96	25607.80
487.14	26595.51
487.32	26412.95
487.50	27236.81
487.68	27718.96
487.85	28685.61
488.03	28596.67
488.21	28261.97
488.39	27646.41
488.57	26679.77
488.75	27190.00
488.92	28596.67
489.10	30223.34
489.28	30232.70
489.46	31323.39
489.64	30904.43
489.81	31468.50
489.99	31232.11
490.17	31307.01
490.35	31288.28
490.53	30778.04
490.70	29656.93
490.88	29645.23
491.06	30998.06
491.24	31262.54
491.41	29593.73
491.59	28236.22
491.77	28105.15
491.95	29577.35
492.13	30731.23
492.30	31545.74
492.48	32744.09
492.66	32800.27
492.84	32070.02
493.01	32315.78
493.19	32149.60
493.37	31852.35
493.54	32063.00
493.72	33591.37
493.90	33240.29
494.08	33387.74
494.25	34794.40
494.43	34401.19
494.61	34614.18
494.79	34969.94
494.96	34380.13
495.14	33266.03
495.32	33078.79
495.49	32818.99
495.67	34022.03
495.85	35906.16
496.02	36285.33
496.20	35452.09
496.38	34991.01
496.55	34911.43
496.73	35810.20
496.91	35082.29
497.09	36566.19
497.26	36161.28
497.44	35159.53
497.62	35091.65
497.79	33928.41
497.97	33123.26
498.14	33422.85
498.32	35608.91
498.50	36182.34
498.67	35814.88
498.85	36397.67
499.03	36910.25
499.20	37127.92
499.38	36952.38
499.56	36226.81
499.73	35737.64
499.91	34398.85
500.08	33951.81
500.26	33605.41
500.44	34094.58
500.61	35264.85
500.79	35227.40
500.97	34089.90
501.14	33888.62
501.32	33944.79
501.49	34436.30
501.67	34258.42
501.84	34780.36
502.02	35166.55
502.20	35494.22
502.37	36027.87
502.55	36130.85
502.72	35978.72
502.90	36685.56
503.07	36058.29
503.25	34934.84
503.43	34508.86
503.60	33883.94
503.78	33397.10
503.95	34773.34
504.13	36692.58
504.30	37427.51
504.48	35945.95
504.65	36116.81
504.83	36364.90
505.01	36540.44
505.18	36814.29
505.36	37504.74
505.53	38120.31
505.71	38284.14
505.88	39206.31
506.06	38010.30
506.23	37972.85
506.41	37778.59
506.58	37897.95
506.76	37376.01
506.93	37144.30
507.11	36371.92
507.28	36762.79
507.46	36755.77
507.63	35723.60
507.81	34731.21
507.98	35878.07
508.16	36655.13
508.33	37762.20
508.50	38054.77
508.68	38178.82
508.85	39475.48
509.03	38483.09
509.20	37816.04
509.38	36601.30
509.55	36608.32
509.73	37109.19
509.90	37294.10
510.08	36762.79
510.25	37233.24
510.42	36521.72
510.60	37879.23
510.77	38209.25
510.95	39599.52
511.12	38962.90
511.30	40327.43
511.47	39342.06
511.64	39323.34
511.82	38424.57
511.99	37219.20
512.17	36947.70
512.34	37074.09
512.51	37188.77
512.69	36758.11
512.86	36968.76
513.04	37780.93
513.21	37958.81
513.38	36968.76
513.56	34899.73
513.73	34595.46
513.90	35213.36
514.08	35206.34
514.25	37104.51
514.43	36987.49
514.60	37113.87
514.77	36486.61
514.95	37820.72
515.12	37380.70
515.29	36865.78
515.47	37502.40
515.64	38040.73
515.81	38738.21
515.99	36900.89
516.16	34171.82
516.33	31908.52
516.51	31489.57
516.68	29855.87
516.85	29717.78
517.03	31101.04
517.20	33991.60
517.37	36898.55
517.54	36781.52
517.72	35269.53
517.89	32498.34
518.06	31798.52
518.24	32980.49
518.41	33556.26
518.58	35821.90
518.75	36367.24
518.93	35512.95
519.10	35353.79
519.27	36519.38
519.45	37542.19
519.62	37518.79
519.79	37764.54
519.96	38234.99
520.14	37425.17
520.31	35665.08
520.48	35541.03
520.65	36343.84
520.83	38143.71
521.00	37907.32
521.17	37471.98
521.34	37270.69
521.52	37631.13
521.69	37535.17
521.86	38010.30
522.03	37961.15
522.20	36542.78
522.38	35524.65
522.55	36130.85
522.72	36594.28
522.89	36526.40
523.07	36690.24
523.24	37247.29
523.41	38113.28
523.58	38103.92
523.75	38653.95
523.92	39690.80
524.10	39323.34
524.27	39143.12
524.44	38747.57
524.61	38539.26
524.78	38115.62
524.96	37645.18
525.13	36940.68
525.30	38122.65
525.47	38766.29
525.64	39288.23
525.81	37371.33
525.98	35243.79
526.16	34433.96
526.33	32926.66
526.50	32257.26
526.67	32180.03
526.84	33518.81
527.01	35030.80
527.18	36577.89
527.36	37649.86
527.53	37453.25
527.70	37043.66
527.87	36669.17
528.04	37195.79
528.21	37745.82
528.38	39021.41
528.55	40229.13
528.72	40612.98
528.89	40687.87
529.07	39709.53
529.24	37549.21
529.41	37060.04
529.58	37666.24
529.75	37979.87
529.92	39222.70
530.09	39100.99
530.26	38946.51
530.43	39433.35
530.60	39353.77
530.77	39063.54
530.94	39131.42
531.11	38204.56
531.28	37799.65
531.46	37446.23
531.63	37294.10
531.80	37502.40
531.97	36168.30
532.14	35374.86
532.31	34590.78
532.48	35393.58
532.65	35093.99
532.82	35580.82
532.99	38302.87
533.16	38337.98
533.33	37963.49
533.50	36362.56
533.67	36971.10
533.84	37558.58
534.01	37043.66
534.18	36858.76
534.35	38195.20
534.52	36442.14
534.69	38246.69
534.86	37830.08
535.03	37474.32
535.20	39028.43
535.37	40086.36
535.54	39552.71
535.71	39054.18
535.88	38202.22
536.05	37235.58
536.22	37691.99
536.38	36704.28
536.55	35428.69
536.72	35452.09
536.89	36077.02
537.06	36715.98
537.23	39009.71
537.40	38181.16
537.57	38031.36
537.74	37968.17
537.91	37495.38
538.08	36744.07
538.25	37017.91
538.42	37488.36
538.59	37277.71
538.75	36608.32
538.92	36236.17
539.09	36622.36
539.26	36596.62
539.43	36294.69
539.60	35807.86
539.77	37191.11
539.94	35569.12
540.11	34246.72
540.28	34525.24
540.44	34363.75
540.61	35189.95
540.78	36140.21
540.95	37258.99
541.12	36940.68
541.29	37053.02
541.46	36779.18
541.62	36849.39
541.79	37556.24
541.96	36605.98
542.13	35206.34
542.30	35204.00
542.47	35571.46
542.63	35590.19
542.80	35585.50
542.97	36573.21
543.14	35508.27
543.31	36472.57
543.48	36463.21
543.64	36610.66
543.81	37776.25
543.98	37769.22
544.15	36357.88
544.32	35704.87
544.48	36514.70
544.65	37106.85
544.82	37706.03
544.99	35866.37
545.16	35576.14
545.32	36114.47
545.49	37205.16
545.66	36301.71
545.83	35723.60
546.00	35498.91
546.16	36369.58
546.33	35915.52
546.50	35269.53
546.67	37209.84
546.83	35716.58
547.00	35674.45
547.17	34979.31
547.34	34719.51
547.50	35386.56
547.67	35995.10
547.84	36290.01
548.00	36643.43
548.17	36142.55
548.34	35409.96
548.51	35798.49
548.67	36802.58
548.84	36598.96
549.01	37254.31
549.18	36411.71
549.34	36491.29
549.51	36306.39
549.68	36772.16
549.84	36238.51
550.01	35424.01
550.18	36421.08
550.34	35536.35
550.51	35360.81
550.68	35625.29
550.84	35749.34
551.01	35306.98
551.18	35782.11
551.34	36067.66
551.51	35358.47
551.68	36392.99
551.84	36723.01
552.01	36835.35
552.18	35445.07
552.34	35604.23
552.51	35604.23
552.68	35611.25
552.84	35938.93
553.01	35435.71
553.18	34820.15
553.34	35091.65
553.51	36348.52
553.67	36079.36
553.84	34782.70
554.01	35508.27
554.17	35002.71
554.34	35915.52
554.51	35379.54
554.67	35349.11
554.84	36238.51
555.00	35185.27
555.17	35206.34
555.33	35154.85
555.50	35697.85
555.67	34731.21
555.83	34029.05
556.00	32741.75
556.16	33752.87
556.33	33464.98
556.50	34843.56
556.66	34450.35
556.83	34466.73
556.99	33759.89
557.16	33816.06
557.32	34330.98
557.49	35065.91
557.65	34778.02
557.82	34646.95
557.98	34391.83
558.15	33834.78
558.32	33567.96
558.48	32390.67
558.65	32364.93
558.81	31246.15
558.98	31866.39
559.14	33532.86
559.31	34300.55
559.47	32526.42
559.64	31981.08
559.80	30756.98
559.97	32135.56
560.13	33287.10
560.30	33858.19
560.46	34553.33
560.63	35737.64
560.79	36034.89
560.96	33872.23
561.12	32807.29
561.29	32339.18
561.45	32044.27
561.61	31938.95
561.78	32397.70
561.94	33141.99
562.11	32793.25
562.27	33612.43
562.44	33933.09
562.60	33797.34
562.77	34066.50
562.93	33708.40
563.10	32772.18
563.26	32950.06
563.42	32510.04
563.59	32161.30
563.75	31873.42
563.92	32528.77
564.08	33010.92
564.24	32369.61
564.41	32048.96
564.57	33624.14
564.74	32680.90
564.90	31906.18
565.07	31152.53
565.23	30101.63
565.39	31250.83
565.56	31098.70
565.72	31016.78
565.88	30515.90
566.05	31094.02
566.21	32147.26
566.38	31257.85
566.54	31810.22
566.70	32507.70
566.87	32917.29
567.03	32194.07
567.19	32046.62
567.36	32170.66
567.52	31611.28
567.68	31955.33
567.85	31131.47
568.01	29647.57
568.17	30335.68
568.34	31133.81
568.50	31103.38
568.66	31765.75
568.83	31414.67
568.99	31108.06
569.15	31292.96
569.32	32074.70
569.48	30780.39
569.64	29940.13
569.81	30490.16
569.97	30520.59
570.13	30649.32
570.30	30169.51
570.46	29869.92
570.62	29113.92
570.78	29282.44
570.95	29783.32
571.11	30532.29
571.27	30604.84
571.43	30986.35
571.60	31175.94
571.76	30927.84
571.92	30892.73
572.09	30551.01
572.25	31346.79
572.41	32063.00
572.57	32826.01
572.74	32517.06
572.90	31578.51
573.06	30871.67
573.22	29825.45
573.38	29303.51
573.55	29862.90
573.71	29537.56
573.87	30312.28
574.03	30347.39
574.20	30953.58
574.36	30565.06
574.52	31889.80
574.68	30246.74
574.84	29036.69
575.01	29104.56
575.17	28793.27
575.33	29427.56
575.49	28816.68
575.65	29912.05
575.82	29961.20
575.98	29317.55
576.14	29153.71
576.30	28889.23
576.46	29013.28
576.62	29895.66
576.79	29780.98
576.95	29546.92
577.11	28896.25
577.27	29259.04
577.43	29530.54
577.59	29013.28
577.75	29429.90
577.92	28105.15
578.08	28084.09
578.24	28299.42
578.40	28308.78
578.56	28641.14
578.72	29441.60
578.88	29355.00
579.04	29134.99
579.21	29130.31
579.37	29322.23
579.53	30029.07
579.69	30319.30
579.85	29355.00
580.01	28545.17
580.17	27873.44
580.33	28701.99
580.49	29123.29
580.65	28732.42
580.82	28643.48
580.98	28877.53
581.14	29326.91
581.30	28194.09
581.46	28636.45
581.62	28465.60
581.78	28767.52
581.94	29001.58
582.10	29567.99
582.26	29408.83
582.42	29614.80
582.58	29043.71
582.74	29228.61
582.90	29347.98
583.06	29413.51
583.22	29074.13
583.38	29750.55
583.54	28449.21
583.70	29560.97
583.86	29137.33
584.02	28835.40
584.18	29518.84
584.34	29626.50
584.50	28947.75
584.66	28390.70
584.82	28662.20
584.98	28198.77
585.14	28093.45
585.30	27295.33
585.46	27398.31
585.62	26806.16
585.78	27587.89
585.94	27964.72
586.10	27353.84
586.26	27332.78
586.42	28065.36
586.58	28067.70
586.74	28423.47
586.90	27756.41
587.06	28009.19
587.22	28301.76
587.38	27964.72
587.54	27461.51
587.70	27002.76
587.86	25998.67
588.02	26155.49
588.18	26033.78
588.34	24528.81
588.49	23307.05
588.65	22530.00
588.81	23618.35
588.97	22972.36
589.13	23098.75
589.29	22904.48
589.45	23491.96
589.61	23840.70
589.77	25230.98
589.93	25132.67
590.08	25376.09
590.24	25900.37
590.40	25001.60
590.56	25170.12
590.72	25617.16
590.88	25242.68
591.04	25125.65
591.20	25284.81
591.35	24943.09
591.51	25614.82
591.67	26829.56
591.83	25310.55
591.99	25106.93
592.15	25926.11
592.31	26410.60
592.46	24893.94
592.62	25867.60
592.78	26108.68
592.94	26120.38
593.10	25916.75
593.26	26202.30
593.41	24884.58
593.57	24442.21
593.73	25163.10
593.89	25369.07
594.05	24940.75
594.20	24989.90
594.36	25247.36
594.52	23922.62
594.68	24666.91
594.84	24751.17
594.99	24999.26
595.15	24367.32
595.31	24638.82
595.47	25235.66
595.62	24875.21
595.78	25193.53
595.94	25191.19
596.10	23676.86
596.25	23840.70
596.41	24528.81
596.57	24868.19
596.73	24741.80
596.88	25322.26
597.04	24957.13
597.20	23838.36
597.36	24049.00
597.51	24416.47
597.67	24257.31
597.83	24751.17
597.99	24912.66
598.14	23866.44
598.30	23367.91
598.46	23524.72
598.61	24526.47
598.77	24187.10
598.93	23726.01
599.09	24039.64
599.24	25102.25
599.40	24142.63
599.56	24741.80
599.71	24727.76
599.87	24041.98
600.03	23491.96
600.18	23384.29
600.34	22829.59
600.50	23419.40
600.65	23864.10
600.81	23737.71
600.97	23377.27
601.12	23520.04
601.28	22981.72
601.44	23534.09
601.59	23821.97
601.75	23133.86
601.91	23447.49
602.06	24254.97
602.22	24250.29
602.37	23803.25
602.53	24224.54
602.69	24348.59
602.84	24582.65
603.00	24311.14
603.16	24851.81
603.31	24133.26
603.47	23721.33
603.62	23707.29
603.78	23688.56
603.94	23342.16
604.09	23761.12
604.25	24236.25
604.40	24229.23
604.56	24196.46
604.71	25184.16
604.87	24898.62
605.03	24027.94
605.18	23908.57
605.34	24030.28
605.49	22965.34
605.65	23915.59
605.80	23704.95
605.96	23962.40
606.12	23330.46
606.27	23857.08
606.43	23510.68
606.58	23190.03
606.74	23901.55
606.89	23545.79
607.05	23293.01
607.20	22745.33
607.36	22888.10
607.51	23325.78
607.67	23161.94
607.82	23080.02
607.98	22979.38
608.13	22548.72
608.29	22988.74
608.44	22600.21
608.60	23147.90
608.75	21879.33
608.91	22244.45
609.06	23426.42
609.22	23101.09
609.37	22963.00
609.53	22897.46
609.68	22469.14
609.84	21350.37
609.99	22394.25
610.15	21521.23
610.30	22228.07
610.46	22319.35
610.61	22073.59
610.76	21853.58
610.92	21612.51
611.07	22878.74
611.23	22689.15
611.38	23103.43
611.54	22855.33
611.69	22026.78
611.84	22249.13
612.00	21425.26
612.15	22134.45
612.31	22368.50
612.46	21876.99
612.62	21977.63
612.77	22113.38
612.92	22162.53
613.08	21495.48
613.23	20758.21
613.39	20556.93
613.54	20652.89
613.69	21345.69
613.85	21750.60
614.00	21130.36
614.15	21057.80
614.31	21797.41
614.46	21914.44
614.62	21359.73
614.77	20711.40
614.92	20769.91
615.08	21357.39
615.23	20627.14
615.38	20877.58
615.54	20472.67
615.69	19985.83
615.84	19330.48
616.00	20034.99
616.15	20042.01
616.30	19555.18
616.46	19639.44
616.61	20372.02
616.76	20292.44
616.92	20776.94
617.07	20854.17
617.22	20606.08
617.37	20751.19
617.53	20418.83
617.68	20201.16
617.83	20711.40
617.99	20657.57
618.14	20652.89
618.29	20343.94
618.45	20049.03
618.60	20549.90
618.75	19590.28
618.90	20187.12
619.06	19941.36
619.21	20149.67
619.36	20411.81
619.51	19468.58
619.67	19489.64
619.82	20531.18
619.97	21142.06
620.12	21682.72
620.28	20947.79
620.43	21404.20
620.58	20458.62
620.73	20872.90
620.89	20243.29
621.04	20105.20
621.19	18677.48
621.34	18897.49
621.49	19330.48
621.65	20144.99
621.80	20697.36
621.95	19791.57
622.10	19396.02
622.25	18628.32
622.41	18871.74
622.56	18422.36
622.71	18277.24
622.86	18237.45
623.01	18427.04
623.16	18286.61
623.32	18682.16
623.47	19381.98
623.62	19475.60
623.77	19260.27
623.92	18878.76
624.07	18363.84
624.23	18979.40
624.38	18448.10
624.53	17942.55
624.68	17745.94
624.83	18068.94
624.98	18066.60
625.13	17631.26
625.29	18434.06
625.44	18328.74
625.59	18492.57
625.74	18115.75
625.89	18780.46
626.04	18831.95
626.19	18654.07
626.34	18197.67
626.49	17432.31
626.65	17729.56
626.80	17694.45
626.95	18356.82
627.10	18373.21
627.25	17921.48
627.40	17558.70
627.55	16568.65
627.70	16793.34
627.85	16711.42
628.00	17350.39
628.15	17275.49
628.30	17502.53
628.45	17507.21
628.60	16980.59
628.76	17128.04
628.91	17135.06
629.06	17249.75
629.21	18523.00
629.36	17310.60
629.51	17008.67
629.66	16414.18
629.81	16248.00
629.96	16758.24
630.11	16545.25
630.26	16746.53
630.41	16929.09
630.56	16865.90
630.71	17188.89
630.86	16322.90
631.01	16606.10
631.16	16793.34
631.31	15859.47
631.46	16449.28
631.61	16542.91
631.76	16168.42
631.91	16517.16
632.06	16561.63
632.21	16924.41
632.36	16109.91
632.51	16032.67
632.66	16592.06
632.81	16568.65
632.96	16489.07
633.10	16432.90
633.25	16631.85
633.40	16245.66
633.55	15939.05
633.70	16238.64
633.85	16173.10
634.00	16491.41
634.15	16659.93
634.30	16088.84
634.45	15969.48
634.60	15857.13
634.75	16505.46
634.90	16657.59
635.05	16741.85
635.19	16322.90
635.34	16224.59
635.49	16390.77
635.64	16130.97
635.79	16304.17
635.94	16608.44
636.09	17680.41
636.24	16847.18
636.39	16692.70
636.53	16725.47
636.68	16872.92
636.83	16821.43
636.98	16245.66
637.13	16851.86
637.28	16545.25
637.43	17067.19
637.57	17116.34
637.72	16395.45
637.87	16152.04
638.02	16065.44
638.17	15995.22
638.32	16840.15
638.46	16376.73
638.61	15887.56
638.76	16217.57
638.91	16278.43
639.06	16233.96
639.20	16042.03
639.35	15524.77
639.50	15412.43
639.65	15700.31
639.80	15274.34
639.94	15449.88
640.09	15726.06
640.24	14920.92
640.39	14829.63
640.54	14981.77
640.68	15236.89
640.83	14979.43
640.98	15566.90
641.13	15815.00
641.27	16208.21
641.42	15382.00
641.57	15363.28
641.72	15412.43
641.86	15480.30
642.01	15723.72
642.16	15606.69
642.31	15197.10
642.45	15147.95
642.60	15087.09
642.75	14675.16
642.90	15199.44
643.04	15140.93
643.19	14422.38
643.34	14272.59
643.48	14499.62
643.63	14558.13
643.78	14396.64
643.93	14244.50
644.07	14665.80
644.22	15101.14
644.37	14499.62
644.51	14497.28
644.66	14567.49
644.81	14773.46
644.95	14532.39
645.10	14530.05
645.25	14265.57
645.39	13518.93
645.54	14104.07
645.69	13668.73
645.83	13877.04
645.98	14113.43
646.13	14380.25
646.27	14185.99
646.42	14244.50
646.57	14211.73
646.71	14164.92
646.86	14012.79
647.00	14015.13
647.15	13961.30
647.30	13963.64
647.44	13509.57
647.59	13128.06
647.74	13521.27
647.88	13355.10
648.03	13097.64
648.17	13422.97
648.32	13254.45
648.47	13778.73
648.61	13973.00
648.76	14237.48
648.90	13418.29
649.05	13256.79
649.20	12917.42
649.34	12411.86
649.49	12730.17
649.63	12786.35
649.78	13144.45
649.92	13118.70
650.07	13855.97
650.21	13394.89
650.36	13158.49
650.51	13415.95
650.65	13912.14
650.80	14185.99
650.94	13832.57
651.09	13612.56
651.23	13048.49
651.38	12908.05
651.52	12996.99
651.67	13202.96
651.81	13390.20
651.96	13877.04
652.10	13626.60
652.25	13668.73
652.39	13565.74
652.54	13107.00
652.68	13633.62
652.83	13341.05
652.97	13343.39
653.12	12809.75
653.26	12924.44
653.41	12760.60
653.55	12896.35
653.70	13341.05
653.84	12908.05
653.99	13600.85
654.13	13025.08
654.27	13015.72
654.42	12863.58
654.56	13041.46
654.71	12901.03
654.85	12294.83
655.00	12084.19
655.14	12030.35
655.29	11800.98
655.43	12042.06
655.57	11009.88
655.72	10406.02
655.86	9643.01
656.01	9874.72
656.15	9926.21
656.30	10672.84
656.44	10853.06
656.58	11166.70
656.73	11461.60
656.87	11922.69
657.01	12039.72
657.16	11761.19
657.30	11950.78
657.45	12292.49
657.59	11793.96
657.73	11742.47
657.88	11995.25
658.02	12224.62
658.16	12287.81
658.31	12152.06
658.45	12276.11
658.60	12105.25
658.74	13064.87
658.88	12652.94
659.03	12065.46
659.17	11906.31
659.31	12063.12
659.46	11850.13
659.60	12280.79
659.74	12409.52
659.89	12482.08
660.03	12379.09
660.17	12077.16
660.32	11791.62
660.46	12138.02
660.60	12140.36
660.74	11847.79
660.89	12241.00
661.03	12386.12
661.17	12383.77
661.32	12641.23
661.46	12720.81
661.60	12538.25
661.74	12168.45
661.89	12149.72
662.03	12100.57
662.17	11241.59
662.31	11639.48
662.46	11578.63
662.60	11082.44
662.74	11068.39
662.88	10916.26
663.03	11276.70
663.17	11389.05
663.31	10848.38
663.45	11522.46
663.60	11323.51
663.74	11101.16
663.88	11522.46
664.02	11084.78
664.17	11587.99
664.31	10832.00
664.45	10483.26
664.59	11176.06
664.73	11625.44
664.88	11660.55
665.02	12273.77
665.16	12131.00
665.30	12102.91
665.44	12145.04
665.59	11463.94
665.73	11056.69
665.87	11016.90
666.01	11152.65
666.15	10843.70
666.29	10904.56
666.44	11473.31
666.58	10867.11
666.72	11442.88
666.86	11623.10
667.00	11229.89
667.14	10801.57
667.28	10626.03
667.43	10899.87
667.57	11302.45
667.71	11384.37
667.85	11094.14
667.99	11328.19
668.13	11400.75
668.27	11169.04
668.41	11145.63
668.56	11012.22
668.70	10864.77
668.84	11138.61
668.98	11353.94
669.12	10684.55
669.26	10265.59
669.40	10155.58
669.54	10527.73
669.68	10204.74
669.82	10333.47
669.96	10366.23
670.10	10225.80
670.25	10406.02
670.39	9865.36
670.53	10246.87
670.67	10501.98
670.81	9863.02
670.95	10181.33
671.09	9619.60
671.23	9659.39
671.37	9874.72
671.51	9563.43
671.65	9605.56
671.79	9652.37
671.93	10211.76
672.07	10551.14
672.21	9825.57
672.35	9951.96
672.49	9823.23
672.63	9788.12
672.77	9984.73
672.91	9816.21
673.05	9710.88
673.19	9432.36
673.33	9839.61
673.47	10061.96
673.61	9919.19
673.75	9589.17
673.89	9619.60
674.03	9231.07
674.17	9369.16
674.31	9469.81
674.45	9036.81
674.59	9811.53
674.73	9731.95
674.87	9603.22
675.01	9053.19
675.15	9001.70
675.29	9221.71
675.43	9046.17
675.56	8709.13
675.70	9004.04
675.84	8987.66
675.98	8802.75
676.12	8762.97
676.26	8519.55
676.40	8493.80
676.54	8791.05
676.68	8711.47
676.82	8449.33
676.96	8559.34
677.10	8353.37
677.23	8615.51
677.37	8498.49
677.51	8535.93
677.65	8238.69
677.79	8098.25
677.93	8161.45
678.07	8367.42
678.21	8519.55
678.34	8791.05
678.48	8615.51
678.62	8093.57
678.76	8486.78
678.90	8229.32
679.04	8334.65
679.18	8826.16
679.31	8657.64
679.45	8407.20
679.59	8170.81
679.73	8145.06
679.87	8386.14
680.00	8212.94
680.14	8025.70
680.28	8320.60
680.42	8058.46
680.56	7630.15
680.70	7569.29
680.83	7672.28
680.97	8170.81
681.11	8114.64
681.25	8030.38
681.39	7948.46
681.52	7906.33
681.66	7632.49
681.80	7452.27
681.94	7681.64
682.07	7688.66
682.21	7625.47
682.35	7887.61
682.49	7400.77
682.62	7414.82
682.76	7178.42
682.90	6939.69
683.04	6939.69
683.17	7063.74
683.31	7274.38
683.45	7576.31
683.59	6925.65
683.72	6927.99
683.86	6829.68
684.00	6567.54
684.13	6097.10
684.27	6642.44
684.41	6544.14
684.55	6918.62
684.68	6801.60
684.82	6855.43
684.96	6944.37
685.09	6883.52
685.23	6813.30
685.37	6656.48
685.50	6750.10
685.64	6703.29
685.78	6759.47
685.91	6855.43
686.05	6792.23
686.19	6722.02
686.32	5977.73
686.46	5167.90
686.60	4601.49
686.73	4124.02
686.87	4079.55
687.01	3992.95
687.14	4273.82
687.28	4727.88
687.42	5125.77
687.55	5015.77
687.69	5132.79
687.82	5303.65
687.96	5240.46
688.10	5294.29
688.23	5762.40
688.37	5537.71
688.50	5102.37
688.64	5029.81
688.78	5114.07
688.91	5275.57
689.05	5039.17
689.18	4968.96
689.32	4997.04
689.46	5027.47
689.59	4915.12
689.73	5034.49
689.86	5004.07
690.00	4961.94
690.13	5167.90
690.27	4947.89
690.41	4880.02
690.54	5008.75
690.68	5102.37
690.81	5200.67
690.95	5479.19
691.08	5500.26
691.22	5511.96
691.35	5345.78
691.49	5174.92
691.62	5104.71
691.76	5270.89
691.89	5383.23
692.03	5062.58
692.16	4992.36
692.30	5205.35
692.43	5050.88
692.57	5032.15
692.70	4849.59
692.84	4798.10
692.97	4821.50
693.11	4678.73
693.24	4505.53
693.38	4697.46
693.51	4947.89
693.65	4732.56
693.78	4477.44
693.92	4493.83
694.05	4395.53
694.19	4425.95
694.32	4039.76
694.45	4430.63
694.59	4465.74
694.72	4311.27
694.86	4608.51
694.99	4662.35
695.13	4667.03
695.26	4629.58
695.39	4526.60
695.53	4498.51
695.66	4552.34
695.80	4374.46
695.93	4386.16
696.07	4947.89
696.20	4929.17
696.33	4903.42
696.47	4985.34
696.60	4498.51
696.73	4507.87
696.87	4449.36
697.00	4535.96
697.14	4528.94
697.27	4524.26
697.40	4582.77
697.54	4325.31
697.67	4484.47
697.80	4435.32
697.94	4461.06
698.07	4355.74
698.21	4362.76
698.34	4058.49
698.47	4011.68
698.61	3990.61
698.74	4091.26
698.87	4105.30
699.01	4077.21
699.14	4255.09
699.27	4182.54
699.40	4355.74
699.54	4297.22
699.67	4152.11
699.80	4236.37
699.94	3960.19
700.07	3969.55
700.20	3934.44
700.34	3794.01
700.47	3707.41
700.60	3534.21
700.73	3662.94
700.87	3597.40
701.00	3632.51
701.13	3616.13
701.26	3550.59
701.40	3566.98
701.53	3475.70
701.66	3489.74
701.79	3555.27
701.93	3447.61
702.06	3379.73
702.19	3487.40
702.32	3421.86
702.46	3325.90
702.59	3545.91
702.72	3510.80
702.85	3564.64
702.99	3684.00
703.12	3651.24
703.25	3574.00
703.38	3304.84
703.51	3243.98
703.65	3363.35
703.78	3510.80
703.91	3585.70
704.04	3382.07
704.17	3419.52
704.31	3370.37
704.44	3382.07
704.57	3396.12
704.70	3356.33
704.83	3344.63
704.96	3248.66
705.10	3246.32
705.23	3068.44
>>>>>End Processed Spectral Data<<<<<
